flex_1,flex_2,flex_3,flex_4,flex_5,Qw,Qx,Qy,Qz,GYRx,GYRy,GYRz,ACCx,ACCy,ACCz,ACCx_real,ACCy_real,ACCz_real,ACCx_world,ACCy_world,ACCz_world,GRAx,GRAy,GRAz,ACCx_raw,ACCy_raw,ACCz_raw,GYRx_raw,GYRy_raw,GYRz_raw
2864.0,2819.0,2915.0,3147.0,3054.0,1.0,0.0,0.0,0.0,0.0,0.0,0.0,0.0,0.0,0.0,0.0,0.0,0.0,0.0,0.0,0.0,0.0,0.0,0.0,0.0,0.0,0.0,0.0,0.0,0.0
2860.0,2829.0,2909.0,3151.0,3053.0,0.829346,-0.115967,-0.546509,0.0047,-1.0,1.0,2.0,7736.0,-1565.0,-684.0,318.0,52.0,-3761.0,3547.0,-610.0,-1135.0,0.905399,-0.19749,0.375716,15446.0,-3238.0,-1214.0,-17.0,32.0,47.0
2863.0,2815.0,2903.0,3155.0,3043.0,0.827576,-0.116882,-0.549011,0.005005,0.0,1.0,1.0,7727.0,-1647.0,-678.0,292.0,-17.0,-3707.0,3486.0,-673.0,-1102.0,0.907527,-0.198953,0.369832,15490.0,-3516.0,-1302.0,3.0,24.0,39.0
2863.0,2829.0,2899.0,3155.0,3027.0,0.826721,-0.117249,-0.550171,0.005188,0.0,1.0,1.0,7737.0,-1665.0,-663.0,294.0,-30.0,-3669.0,3454.0,-679.0,-1073.0,0.908459,-0.199572,0.36706,15520.0,-3426.0,-1238.0,16.0,28.0,35.0
2869.0,2815.0,2899.0,3139.0,3059.0,0.825012,-0.11792,-0.552612,0.005432,-1.0,1.0,1.0,7735.0,-1691.0,-641.0,275.0,-47.0,-3601.0,3389.0,-686.0,-1041.0,0.910543,-0.200574,0.361389,15476.0,-3532.0,-1200.0,0.0,27.0,27.0
2864.0,2822.0,2897.0,3157.0,3055.0,0.824219,-0.118286,-0.553772,0.005554,0.0,1.0,1.0,7728.0,-1732.0,-633.0,260.0,-84.0,-3571.0,3354.0,-719.0,-1027.0,0.911545,-0.201139,0.358712,15422.0,-3696.0,-1238.0,4.0,26.0,25.0
2867.0,2826.0,2897.0,3153.0,3047.0,0.82251,-0.118958,-0.556152,0.00592,0.0,0.0,1.0,7711.0,-1746.0,-609.0,227.0,-88.0,-3501.0,3283.0,-715.0,-1011.0,0.913473,-0.202273,0.353101,15484.0,-3456.0,-1140.0,14.0,10.0,23.0
2869.0,2826.0,2911.0,3147.0,3059.0,0.821594,-0.119263,-0.557373,0.005981,0.0,0.0,0.0,7737.0,-1737.0,-609.0,245.0,-76.0,-3477.0,3272.0,-697.0,-978.0,0.914442,-0.202639,0.350165,15638.0,-3416.0,-1232.0,9.0,15.0,17.0
2861.0,2807.0,2902.0,3163.0,3039.0,0.819946,-0.119873,-0.559753,0.006104,0.0,1.0,0.0,7741.0,-1738.0,-627.0,233.0,-71.0,-3450.0,3250.0,-689.0,-961.0,0.916472,-0.203412,0.344656,15404.0,-3466.0,-1372.0,2.0,23.0,13.0
2877.0,2821.0,2905.0,3147.0,3057.0,0.819092,-0.120178,-0.560913,0.006165,0.0,0.0,0.0,7738.0,-1740.0,-640.0,222.0,-70.0,-3440.0,3239.0,-689.0,-958.0,0.917397,-0.20379,0.341883,15476.0,-3518.0,-1352.0,3.0,20.0,8.0
2871.0,2823.0,2895.0,3166.0,3047.0,0.817383,-0.120728,-0.563293,0.006165,0.0,0.0,0.0,7731.0,-1723.0,-643.0,199.0,-49.0,-3397.0,3199.0,-665.0,-949.0,0.919364,-0.204306,0.336278,15424.0,-3346.0,-1306.0,2.0,19.0,7.0
2862.0,2822.0,2918.0,3167.0,3035.0,0.816528,-0.121033,-0.564453,0.006165,-1.0,0.0,0.0,7722.0,-1701.0,-638.0,182.0,-24.0,-3370.0,3174.0,-639.0,-951.0,0.920292,-0.204612,0.3335,15424.0,-3262.0,-1238.0,-12.0,15.0,9.0
2867.0,2827.0,2893.0,3135.0,3055.0,0.814758,-0.121826,-0.566833,0.006104,-2.0,0.0,0.0,7731.0,-1701.0,-645.0,176.0,-18.0,-3329.0,3140.0,-629.0,-925.0,0.922177,-0.205437,0.327727,15518.0,-3394.0,-1318.0,-28.0,3.0,16.0
2865.0,2823.0,2896.0,3155.0,3057.0,0.813843,-0.122192,-0.568054,0.006104,-2.0,0.0,0.0,7737.0,-1692.0,-648.0,174.0,-5.0,-3308.0,3124.0,-613.0,-912.0,0.923122,-0.205825,0.324761,15516.0,-3308.0,-1332.0,-26.0,4.0,19.0
2864.0,2823.0,2915.0,3151.0,3039.0,0.812073,-0.122986,-0.570374,0.00592,-2.0,0.0,0.0,7756.0,-1667.0,-664.0,179.0,24.0,-3277.0,3106.0,-582.0,-884.0,0.924913,-0.206501,0.319046,15538.0,-3246.0,-1438.0,-29.0,12.0,8.0
2863.0,2818.0,2911.0,3152.0,3055.0,0.811218,-0.123352,-0.571533,0.005859,-2.0,0.0,0.0,7749.0,-1643.0,-671.0,164.0,51.0,-3261.0,3092.0,-556.0,-889.0,0.925831,-0.206829,0.316243,15436.0,-3116.0,-1368.0,-35.0,13.0,11.0
2877.0,2821.0,2903.0,3163.0,3055.0,0.809448,-0.124329,-0.573853,0.005554,-3.0,0.0,0.0,7727.0,-1599.0,-681.0,127.0,102.0,-3224.0,3056.0,-510.0,-904.0,0.927627,-0.20765,0.310473,15360.0,-3118.0,-1404.0,-62.0,2.0,20.0
2871.0,2839.0,2914.0,3142.0,3047.0,0.808472,-0.124878,-0.575073,0.005432,-3.0,-1.0,1.0,7719.0,-1592.0,-679.0,112.0,113.0,-3196.0,3029.0,-498.0,-901.0,0.928504,-0.208168,0.307352,15426.0,-3150.0,-1298.0,-68.0,-8.0,29.0
2870.0,2832.0,2919.0,3143.0,3047.0,0.80658,-0.126099,-0.577454,0.005249,-3.0,-1.0,1.0,7717.0,-1616.0,-699.0,96.0,100.0,-3166.0,2999.0,-513.0,-885.0,0.930201,-0.209479,0.301245,15472.0,-3348.0,-1472.0,-67.0,-16.0,43.0
2847.0,2819.0,2879.0,3127.0,3035.0,0.805664,-0.126709,-0.578674,0.005249,-3.0,-1.0,1.0,7717.0,-1657.0,-710.0,89.0,65.0,-3152.0,2981.0,-547.0,-870.0,0.931104,-0.210245,0.298203,15418.0,-3616.0,-1518.0,-52.0,-14.0,38.0
2875.0,2821.0,2919.0,3119.0,3055.0,0.803833,-0.127625,-0.580994,0.005493,0.0,-1.0,1.0,7727.0,-1737.0,-733.0,86.0,-3.0,-3127.0,2952.0,-611.0,-833.0,0.932642,-0.211561,0.292336,15514.0,-3546.0,-1516.0,9.0,-10.0,27.0
2874.0,2839.0,2919.0,3131.0,3041.0,0.802917,-0.127808,-0.582153,0.005615,1.0,-1.0,0.0,7742.0,-1736.0,-733.0,95.0,-1.0,-3104.0,2936.0,-602.0,-809.0,0.933407,-0.211776,0.289471,15586.0,-3468.0,-1490.0,24.0,-9.0,17.0
2864.0,2819.0,2887.0,3163.0,3055.0,0.801208,-0.128174,-0.584412,0.005859,0.0,-1.0,0.0,7753.0,-1720.0,-736.0,93.0,18.0,-3062.0,2904.0,-575.0,-786.0,0.934969,-0.212236,0.284004,15494.0,-3362.0,-1480.0,19.0,0.0,13.0
2864.0,2825.0,2902.0,3154.0,3055.0,0.800415,-0.128357,-0.58551,0.00592,0.0,0.0,0.0,7744.0,-1721.0,-738.0,78.0,19.0,-3043.0,2884.0,-573.0,-787.0,0.935783,-0.212411,0.281402,15406.0,-3472.0,-1506.0,10.0,1.0,9.0
2863.0,2810.0,2928.0,3135.0,3068.0,0.798706,-0.128906,-0.587708,0.005981,-1.0,-1.0,0.0,7711.0,-1725.0,-732.0,32.0,19.0,-2992.0,2826.0,-571.0,-799.0,0.937269,-0.212947,0.27595,15396.0,-3458.0,-1432.0,-11.0,-11.0,9.0
2878.0,2833.0,2893.0,3158.0,3055.0,0.797852,-0.129211,-0.588867,0.00592,-1.0,-1.0,0.0,7726.0,-1736.0,-730.0,40.0,10.0,-2967.0,2806.0,-574.0,-775.0,0.938127,-0.213156,0.273142,15572.0,-3566.0,-1466.0,-17.0,-11.0,2.0
2878.0,2833.0,2901.0,3147.0,3047.0,0.796143,-0.129822,-0.591003,0.005859,-1.0,-1.0,0.0,7713.0,-1736.0,-732.0,16.0,14.0,-2925.0,2763.0,-568.0,-771.0,0.939525,-0.213639,0.267739,15336.0,-3394.0,-1498.0,-8.0,-6.0,0.0
2855.0,2819.0,2916.0,3175.0,3031.0,0.795288,-0.130066,-0.592102,0.005798,-1.0,-1.0,-1.0,7717.0,-1711.0,-716.0,14.0,40.0,-2887.0,2733.0,-536.0,-760.0,0.940275,-0.213746,0.265015,15512.0,-3244.0,-1362.0,-9.0,-7.0,-3.0
2861.0,2823.0,2905.0,3163.0,3019.0,0.793701,-0.130493,-0.594116,0.005554,-1.0,0.0,-1.0,7734.0,-1673.0,-693.0,19.0,77.0,-2822.0,2682.0,-488.0,-732.0,0.941652,-0.213745,0.25999,15478.0,-3234.0,-1326.0,-21.0,2.0,-1.0
2859.0,2834.0,2907.0,3151.0,3025.0,0.792908,-0.130798,-0.595154,0.005432,-2.0,-1.0,0.0,7725.0,-1657.0,-687.0,4.0,95.0,-2795.0,2657.0,-469.0,-736.0,0.942383,-0.213888,0.257416,15388.0,-3216.0,-1348.0,-26.0,-2.0,4.0
2867.0,2823.0,2902.0,3143.0,3057.0,0.79126,-0.131409,-0.597168,0.00531,-1.0,-1.0,0.0,7709.0,-1657.0,-666.0,-21.0,98.0,-2732.0,2594.0,-459.0,-729.0,0.943634,-0.214299,0.252242,15334.0,-3332.0,-1262.0,-22.0,-9.0,14.0
2864.0,2813.0,2906.0,3159.0,3055.0,0.790466,-0.131714,-0.598145,0.00531,-1.0,-1.0,0.0,7713.0,-1664.0,-664.0,-22.0,93.0,-2709.0,2573.0,-460.0,-717.0,0.944227,-0.214583,0.24974,15484.0,-3386.0,-1334.0,-14.0,-15.0,17.0
2862.0,2821.0,2895.0,3163.0,3047.0,0.788879,-0.132141,-0.600159,0.005432,0.0,-1.0,0.0,7730.0,-1670.0,-676.0,-15.0,91.0,-2680.0,2551.0,-455.0,-689.0,0.94547,-0.215007,0.244708,15480.0,-3286.0,-1418.0,17.0,-11.0,11.0
2867.0,2839.0,2913.0,3152.0,3053.0,0.788086,-0.132263,-0.601196,0.005493,0.0,-1.0,0.0,7737.0,-1651.0,-678.0,-13.0,110.0,-2661.0,2538.0,-433.0,-680.0,0.946136,-0.215074,0.242179,15474.0,-3150.0,-1392.0,20.0,-7.0,11.0
2859.0,2829.0,2907.0,3167.0,3056.0,0.786499,-0.132568,-0.603149,0.005493,-1.0,-1.0,0.0,7737.0,-1601.0,-688.0,-23.0,161.0,-2631.0,2518.0,-379.0,-680.0,0.947296,-0.215156,0.237247,15520.0,-3084.0,-1428.0,-13.0,-13.0,16.0
2870.0,2831.0,2898.0,3150.0,3035.0,0.785706,-0.132874,-0.604187,0.005493,-2.0,-1.0,1.0,7736.0,-1597.0,-699.0,-29.0,167.0,-2621.0,2509.0,-373.0,-678.0,0.947966,-0.215437,0.234666,15460.0,-3196.0,-1490.0,-34.0,-17.0,27.0
2875.0,2825.0,2881.0,3141.0,3031.0,0.783936,-0.133789,-0.606201,0.005432,-2.0,-1.0,1.0,7752.0,-1668.0,-746.0,-22.0,104.0,-2623.0,2506.0,-436.0,-644.0,0.948992,-0.21635,0.229205,15596.0,-3654.0,-1636.0,-36.0,-15.0,30.0
2855.0,2823.0,2910.0,3163.0,3039.0,0.783142,-0.134155,-0.607117,0.005493,-1.0,-1.0,0.0,7752.0,-1699.0,-770.0,-25.0,76.0,-2627.0,2507.0,-465.0,-635.0,0.949443,-0.216795,0.226753,15446.0,-3546.0,-1720.0,-13.0,-2.0,21.0
2870.0,2823.0,2909.0,3151.0,3051.0,0.781677,-0.134644,-0.609009,0.005554,0.0,0.0,0.0,7750.0,-1720.0,-806.0,-37.0,59.0,-2624.0,2501.0,-484.0,-630.0,0.950601,-0.217261,0.22203,15498.0,-3402.0,-1678.0,12.0,12.0,7.0
2879.0,2823.0,2911.0,3140.0,3051.0,0.780945,-0.134766,-0.609863,0.005615,0.0,0.0,0.0,7745.0,-1706.0,-813.0,-45.0,74.0,-2613.0,2492.0,-468.0,-633.0,0.951026,-0.217338,0.219811,15454.0,-3324.0,-1680.0,13.0,22.0,7.0
2865.0,2815.0,2908.0,3157.0,3047.0,0.779663,-0.135132,-0.61145,0.005554,0.0,1.0,0.0,7731.0,-1692.0,-812.0,-67.0,89.0,-2579.0,2459.0,-451.0,-639.0,0.951949,-0.217507,0.215773,15360.0,-3380.0,-1682.0,2.0,31.0,5.0
2865.0,2827.0,2914.0,3143.0,3027.0,0.778992,-0.135315,-0.612244,0.005554,0.0,1.0,0.0,7729.0,-1687.0,-801.0,-72.0,95.0,-2551.0,2434.0,-441.0,-634.0,0.952362,-0.217619,0.213707,15480.0,-3338.0,-1536.0,3.0,31.0,10.0
2864.0,2827.0,2911.0,3159.0,3055.0,0.777771,-0.135681,-0.613708,0.005615,0.0,1.0,0.0,7738.0,-1692.0,-780.0,-70.0,93.0,-2499.0,2386.0,-432.0,-611.0,0.953126,-0.21795,0.209912,15494.0,-3450.0,-1480.0,12.0,36.0,16.0
2854.0,2815.0,2896.0,3159.0,3047.0,0.777222,-0.135803,-0.61438,0.005737,1.0,1.0,0.0,7732.0,-1701.0,-764.0,-78.0,86.0,-2469.0,2356.0,-434.0,-607.0,0.95346,-0.218148,0.208201,15410.0,-3420.0,-1392.0,28.0,42.0,18.0
2855.0,2819.0,2885.0,3159.0,3057.0,0.776062,-0.135986,-0.615784,0.005981,0.0,1.0,1.0,7704.0,-1645.0,-719.0,-112.0,144.0,-2395.0,2288.0,-368.0,-628.0,0.954146,-0.218434,0.204626,15386.0,-3038.0,-1278.0,22.0,24.0,32.0
2901.0,2832.0,2893.0,3167.0,3051.0,0.775452,-0.136169,-0.616516,0.006042,-1.0,0.0,1.0,7713.0,-1630.0,-705.0,-106.0,161.0,-2365.0,2265.0,-345.0,-615.0,0.954511,-0.218636,0.202728,15476.0,-3228.0,-1364.0,0.0,18.0,36.0
2869.0,2827.0,2891.0,3159.0,3047.0,0.774231,-0.13678,-0.617859,0.006226,0.0,1.0,1.0,7755.0,-1686.0,-690.0,-68.0,112.0,-2320.0,2225.0,-377.0,-551.0,0.955028,-0.219491,0.199014,15598.0,-3606.0,-1338.0,1.0,32.0,34.0
2859.0,2831.0,2917.0,3155.0,3043.0,0.773743,-0.137024,-0.61853,0.006348,0.0,1.0,1.0,7753.0,-1710.0,-688.0,-73.0,91.0,-2304.0,2206.0,-395.0,-544.0,0.955427,-0.219895,0.197363,15494.0,-3522.0,-1382.0,12.0,42.0,27.0
2875.0,2831.0,2887.0,3171.0,3056.0,0.772644,-0.137451,-0.619751,0.00647,-1.0,1.0,1.0,7739.0,-1721.0,-702.0,-91.0,84.0,-2291.0,2190.0,-403.0,-550.0,0.955915,-0.220421,0.194037,15464.0,-3524.0,-1486.0,-7.0,38.0,29.0
2864.0,2815.0,2906.0,3159.0,3051.0,0.772095,-0.137817,-0.620361,0.006531,-1.0,1.0,1.0,7725.0,-1752.0,-719.0,-107.0,57.0,-2294.0,2186.0,-434.0,-556.0,0.956155,-0.220919,0.192331,15342.0,-3748.0,-1588.0,-18.0,40.0,30.0
2864.0,2832.0,2907.0,3159.0,3061.0,0.770935,-0.138489,-0.621643,0.006714,0.0,1.0,1.0,7683.0,-1852.0,-735.0,-153.0,-34.0,-2281.0,2150.0,-528.0,-569.0,0.956633,-0.221879,0.188767,15276.0,-3914.0,-1464.0,7.0,37.0,24.0
2867.0,2814.0,2903.0,3155.0,3023.0,0.770386,-0.138794,-0.622253,0.006836,0.0,1.0,0.0,7676.0,-1852.0,-730.0,-162.0,-30.0,-2262.0,2131.0,-523.0,-571.0,0.956853,-0.222357,0.187078,15330.0,-3668.0,-1420.0,8.0,38.0,18.0
2859.0,2823.0,2901.0,3155.0,3102.0,0.769409,-0.139282,-0.623352,0.006775,-1.0,2.0,0.0,7728.0,-1838.0,-700.0,-114.0,-13.0,-2207.0,2093.0,-487.0,-512.0,0.957338,-0.222776,0.184069,15606.0,-3642.0,-1254.0,-19.0,59.0,3.0
2865.0,2823.0,2896.0,3151.0,3047.0,0.768982,-0.139526,-0.62384,0.006653,-1.0,3.0,0.0,7727.0,-1836.0,-684.0,-117.0,-10.0,-2180.0,2068.0,-480.0,-508.0,0.957587,-0.222887,0.182733,15374.0,-3694.0,-1296.0,-22.0,70.0,0.0
2871.0,2839.0,2907.0,3153.0,3039.0,0.768127,-0.139954,-0.624817,0.006531,0.0,2.0,-1.0,7702.0,-1855.0,-623.0,-146.0,-26.0,-2098.0,1981.0,-485.0,-511.0,0.95805,-0.223165,0.180079,15352.0,-3694.0,-1054.0,6.0,53.0,-10.0
2862.0,2815.0,2911.0,3143.0,3039.0,0.7677,-0.140015,-0.625305,0.00647,0.0,2.0,-1.0,7710.0,-1820.0,-589.0,-140.0,7.0,-2053.0,1945.0,-443.0,-502.0,0.958282,-0.22307,0.178795,15484.0,-3358.0,-984.0,16.0,47.0,-14.0
2862.0,2815.0,2902.0,3147.0,3019.0,0.766785,-0.140137,-0.626404,0.006165,-2.0,1.0,-1.0,7729.0,-1704.0,-512.0,-126.0,119.0,-1953.0,1872.0,-313.0,-490.0,0.958906,-0.222632,0.175977,15534.0,-3166.0,-828.0,-30.0,26.0,-3.0
2864.0,2823.0,2911.0,3143.0,3054.0,0.766296,-0.140442,-0.626953,0.00592,-3.0,0.0,0.0,7740.0,-1688.0,-484.0,-117.0,136.0,-1913.0,1839.0,-288.0,-476.0,0.959201,-0.222664,0.174451,15542.0,-3368.0,-800.0,-47.0,22.0,2.0
2869.0,2826.0,2915.0,3153.0,3047.0,0.765198,-0.140991,-0.628174,0.005676,-2.0,0.0,0.0,7733.0,-1714.0,-471.0,-129.0,112.0,-1872.0,1794.0,-307.0,-469.0,0.959754,-0.222904,0.171079,15478.0,-3506.0,-942.0,-23.0,1.0,9.0
2859.0,2815.0,2899.0,3147.0,3051.0,0.764587,-0.141174,-0.628845,0.005676,-1.0,-1.0,0.0,7739.0,-1726.0,-481.0,-125.0,100.0,-1867.0,1789.0,-316.0,-458.0,0.960012,-0.223019,0.16925,15540.0,-3472.0,-1040.0,-2.0,-4.0,7.0
2862.0,2813.0,2907.0,3141.0,3039.0,0.763489,-0.141296,-0.630188,0.005737,0.0,-1.0,-1.0,7759.0,-1702.0,-504.0,-110.0,124.0,-1862.0,1793.0,-289.0,-442.0,0.960662,-0.222988,0.165846,15560.0,-3296.0,-1068.0,21.0,-3.0,-1.0
2871.0,2827.0,2915.0,3155.0,3045.0,0.762878,-0.141235,-0.630859,0.005737,1.0,-1.0,-1.0,7765.0,-1706.0,-516.0,-106.0,118.0,-1860.0,1791.0,-293.0,-433.0,0.960917,-0.22273,0.164085,15550.0,-3482.0,-1116.0,27.0,-1.0,-8.0
2869.0,2827.0,2911.0,3159.0,3059.0,0.761841,-0.141113,-0.632141,0.005859,1.0,0.0,-1.0,7733.0,-1696.0,-548.0,-143.0,126.0,-1866.0,1793.0,-293.0,-465.0,0.961528,-0.22242,0.16092,15356.0,-3344.0,-1278.0,39.0,2.0,-6.0
2861.0,2814.0,2891.0,3151.0,3055.0,0.761292,-0.141113,-0.632812,0.00592,1.0,-1.0,-1.0,7726.0,-1692.0,-564.0,-153.0,129.0,-1868.0,1794.0,-292.0,-473.0,0.961839,-0.22235,0.159235,15412.0,-3344.0,-1226.0,34.0,-3.0,-3.0
2866.0,2823.0,2899.0,3143.0,3043.0,0.760132,-0.141235,-0.634216,0.006042,0.0,-1.0,0.0,7705.0,-1669.0,-587.0,-179.0,152.0,-1862.0,1789.0,-273.0,-495.0,0.962469,-0.222379,0.155659,15412.0,-3338.0,-1210.0,3.0,-14.0,17.0
2866.0,2829.0,2907.0,3151.0,3055.0,0.75946,-0.141418,-0.634949,0.006104,-1.0,-1.0,0.0,7709.0,-1683.0,-589.0,-177.0,140.0,-1847.0,1774.0,-281.0,-485.0,0.962711,-0.222554,0.153658,15448.0,-3462.0,-1166.0,-7.0,-17.0,19.0
2867.0,2827.0,2913.0,3167.0,3051.0,0.75824,-0.141907,-0.636292,0.006165,-1.0,-1.0,0.0,7720.0,-1730.0,-591.0,-170.0,97.0,-1819.0,1742.0,-316.0,-458.0,0.963173,-0.223044,0.149961,15482.0,-3626.0,-1118.0,-8.0,-14.0,19.0
2855.0,2823.0,2903.0,3152.0,3037.0,0.75769,-0.14209,-0.636963,0.006287,0.0,-1.0,0.0,7729.0,-1754.0,-597.0,-163.0,75.0,-1811.0,1733.0,-334.0,-442.0,0.963455,-0.223329,0.148223,15482.0,-3668.0,-1244.0,5.0,-10.0,14.0
2863.0,2819.0,2896.0,3139.0,3031.0,0.756592,-0.142212,-0.638184,0.00647,1.0,0.0,-1.0,7744.0,-1787.0,-610.0,-151.0,43.0,-1797.0,1718.0,-359.0,-415.0,0.963849,-0.22345,0.14497,15458.0,-3620.0,-1258.0,35.0,8.0,-4.0
2865.0,2832.0,2911.0,3153.0,3054.0,0.756104,-0.142151,-0.638733,0.006531,1.0,0.0,-1.0,7734.0,-1775.0,-604.0,-163.0,54.0,-1779.0,1700.0,-346.0,-424.0,0.96404,-0.223304,0.143549,15378.0,-3448.0,-1156.0,45.0,12.0,-7.0
2863.0,2821.0,2899.0,3157.0,3043.0,0.755127,-0.142151,-0.639954,0.006592,0.0,-1.0,0.0,7702.0,-1701.0,-590.0,-200.0,126.0,-1741.0,1671.0,-276.0,-465.0,0.964618,-0.223121,0.140513,15382.0,-3256.0,-1206.0,1.0,-6.0,5.0
2864.0,2820.0,2907.0,3151.0,3056.0,0.754578,-0.142334,-0.640564,0.006531,-1.0,-1.0,0.0,7719.0,-1710.0,-594.0,-185.0,118.0,-1731.0,1663.0,-279.0,-445.0,0.964851,-0.223171,0.138849,15574.0,-3542.0,-1234.0,-20.0,-6.0,11.0
2863.0,2815.0,2909.0,3152.0,3039.0,0.753479,-0.142761,-0.641724,0.006531,-1.0,0.0,0.0,7746.0,-1757.0,-616.0,-160.0,74.0,-1726.0,1656.0,-316.0,-404.0,0.965186,-0.223517,0.135583,15480.0,-3624.0,-1314.0,-4.0,12.0,8.0
2865.0,2827.0,2911.0,3155.0,3051.0,0.752991,-0.142944,-0.642273,0.006531,0.0,0.0,0.0,7727.0,-1760.0,-623.0,-181.0,72.0,-1721.0,1648.0,-322.0,-421.0,0.965384,-0.223661,0.13409,15304.0,-3518.0,-1234.0,1.0,7.0,3.0
2871.0,2822.0,2917.0,3147.0,3045.0,0.751831,-0.14325,-0.643555,0.006531,-1.0,-1.0,0.0,7694.0,-1750.0,-635.0,-217.0,83.0,-1704.0,1629.0,-315.0,-450.0,0.965818,-0.223805,0.130609,15380.0,-3520.0,-1346.0,-8.0,-21.0,6.0
2865.0,2815.0,2901.0,3151.0,3043.0,0.751221,-0.143433,-0.644226,0.006592,-1.0,-2.0,0.0,7697.0,-1759.0,-647.0,-216.0,75.0,-1701.0,1626.0,-322.0,-444.0,0.966021,-0.223992,0.128776,15436.0,-3576.0,-1368.0,-1.0,-23.0,9.0
2863.0,2818.0,2903.0,3151.0,3043.0,0.750061,-0.143616,-0.645569,0.006836,1.0,-1.0,0.0,7730.0,-1775.0,-662.0,-187.0,62.0,-1688.0,1617.0,-325.0,-406.0,0.966469,-0.224267,0.125254,15598.0,-3522.0,-1346.0,28.0,-13.0,12.0
2864.0,2827.0,2911.0,3152.0,3051.0,0.749573,-0.143616,-0.646118,0.006897,1.0,0.0,0.0,7751.0,-1766.0,-679.0,-167.0,70.0,-1693.0,1627.0,-315.0,-386.0,0.966644,-0.224213,0.123813,15594.0,-3456.0,-1440.0,29.0,5.0,7.0
2865.0,2823.0,2910.0,3153.0,3051.0,0.748596,-0.143738,-0.647217,0.006958,0.0,0.0,-1.0,7729.0,-1785.0,-707.0,-192.0,51.0,-1697.0,1625.0,-338.0,-402.0,0.967008,-0.22421,0.120895,15372.0,-3762.0,-1414.0,7.0,15.0,-1.0
2863.0,2819.0,2903.0,3151.0,3047.0,0.748169,-0.14386,-0.647705,0.007019,0.0,0.0,-1.0,7712.0,-1795.0,-715.0,-211.0,42.0,-1694.0,1618.0,-350.0,-416.0,0.967166,-0.224356,0.119588,15294.0,-3618.0,-1470.0,8.0,18.0,-6.0
2864.0,2815.0,2897.0,3147.0,3043.0,0.747253,-0.144104,-0.648743,0.006836,-1.0,0.0,-1.0,7708.0,-1773.0,-701.0,-218.0,63.0,-1657.0,1586.0,-324.0,-418.0,0.96758,-0.224234,0.116801,15472.0,-3432.0,-1338.0,-15.0,21.0,-8.0
2869.0,2823.0,2907.0,3157.0,3047.0,0.746826,-0.144287,-0.64917,0.006714,-2.0,1.0,-1.0,7711.0,-1757.0,-687.0,-216.0,79.0,-1633.0,1566.0,-304.0,-415.0,0.967697,-0.224232,0.115554,15408.0,-3428.0,-1264.0,-34.0,28.0,-5.0
2864.0,2823.0,2911.0,3155.0,3047.0,0.746033,-0.144775,-0.649963,0.006287,-2.0,1.0,-1.0,7719.0,-1760.0,-655.0,-210.0,76.0,-1582.0,1518.0,-297.0,-399.0,0.967968,-0.224187,0.113192,15406.0,-3498.0,-1192.0,-31.0,38.0,-2.0
2861.0,2815.0,2899.0,3151.0,3045.0,0.745667,-0.144958,-0.65033,0.006165,-1.0,1.0,-1.0,7711.0,-1756.0,-627.0,-219.0,80.0,-1545.0,1481.0,-288.0,-403.0,0.968071,-0.224199,0.112115,15372.0,-3496.0,-1098.0,-20.0,35.0,-1.0
2867.0,2821.0,2899.0,3150.0,3043.0,0.744934,-0.145142,-0.651123,0.006042,0.0,1.0,0.0,7718.0,-1716.0,-584.0,-214.0,119.0,-1484.0,1431.0,-237.0,-397.0,0.968333,-0.224111,0.109936,15496.0,-3218.0,-1030.0,1.0,27.0,0.0
2871.0,2827.0,2903.0,3151.0,3043.0,0.744568,-0.145203,-0.651489,0.005981,-1.0,1.0,0.0,7723.0,-1692.0,-569.0,-210.0,143.0,-1461.0,1414.0,-209.0,-394.0,0.968419,-0.22402,0.108895,15474.0,-3262.0,-1052.0,-6.0,26.0,1.0
2858.0,2819.0,2903.0,3155.0,3053.0,0.743896,-0.145447,-0.652283,0.005859,-1.0,0.0,0.0,7726.0,-1681.0,-540.0,-210.0,154.0,-1414.0,1371.0,-189.0,-388.0,0.968757,-0.224039,0.106789,15426.0,-3320.0,-980.0,-1.0,18.0,10.0
2865.0,2823.0,2903.0,3151.0,3031.0,0.743469,-0.145508,-0.65271,0.005859,0.0,0.0,0.0,7721.0,-1677.0,-529.0,-215.0,158.0,-1393.0,1351.0,-182.0,-390.0,0.968834,-0.22401,0.105578,15420.0,-3326.0,-1012.0,8.0,12.0,13.0
2864.0,2819.0,2907.0,3151.0,3039.0,0.742737,-0.145691,-0.653564,0.00592,-1.0,0.0,0.0,7733.0,-1648.0,-509.0,-206.0,188.0,-1355.0,1321.0,-143.0,-381.0,0.969128,-0.224159,0.103321,15534.0,-3238.0,-964.0,0.0,2.0,22.0
2864.0,2829.0,2915.0,3152.0,3047.0,0.74231,-0.145813,-0.653992,0.005981,-1.0,0.0,1.0,7738.0,-1647.0,-505.0,-201.0,190.0,-1341.0,1309.0,-138.0,-374.0,0.969184,-0.2243,0.102093,15510.0,-3306.0,-1004.0,-10.0,1.0,29.0
2871.0,2827.0,2907.0,3151.0,3039.0,0.741455,-0.146179,-0.654846,0.006042,0.0,0.0,0.0,7747.0,-1718.0,-524.0,-193.0,122.0,-1339.0,1297.0,-201.0,-347.0,0.969311,-0.224684,0.0996,15524.0,-3786.0,-1156.0,4.0,5.0,14.0
2864.0,2822.0,2901.0,3152.0,3047.0,0.741028,-0.146301,-0.655273,0.006165,1.0,0.0,0.0,7740.0,-1756.0,-542.0,-200.0,86.0,-1347.0,1298.0,-239.0,-345.0,0.969348,-0.224906,0.098373,15434.0,-3692.0,-1154.0,32.0,6.0,9.0
2863.0,2819.0,2899.0,3149.0,3039.0,0.740234,-0.146179,-0.656189,0.00647,1.0,0.0,0.0,7717.0,-1739.0,-567.0,-225.0,103.0,-1353.0,1304.0,-228.0,-371.0,0.969576,-0.224904,0.096036,15436.0,-3318.0,-1200.0,35.0,1.0,7.0
2865.0,2823.0,2907.0,3155.0,3051.0,0.739868,-0.14624,-0.656677,0.006531,0.0,0.0,0.0,7726.0,-1723.0,-582.0,-218.0,119.0,-1358.0,1313.0,-212.0,-366.0,0.969799,-0.224974,0.094836,15512.0,-3378.0,-1286.0,16.0,6.0,11.0
2866.0,2827.0,2911.0,3151.0,3039.0,0.739075,-0.146484,-0.657471,0.006592,-1.0,0.0,0.0,7709.0,-1735.0,-606.0,-236.0,109.0,-1364.0,1316.0,-226.0,-379.0,0.969909,-0.225194,0.09255,15294.0,-3550.0,-1224.0,-4.0,16.0,19.0
2863.0,2819.0,2907.0,3143.0,3039.0,0.738647,-0.146667,-0.657898,0.006653,-1.0,0.0,1.0,7695.0,-1751.0,-608.0,-250.0,95.0,-1355.0,1303.0,-241.0,-387.0,0.969958,-0.225425,0.091303,15346.0,-3606.0,-1218.0,-3.0,9.0,24.0
2863.0,2827.0,2907.0,3151.0,3045.0,0.737915,-0.147034,-0.65863,0.006836,0.0,0.0,0.0,7715.0,-1791.0,-602.0,-231.0,60.0,-1332.0,1277.0,-266.0,-356.0,0.970016,-0.226001,0.089152,15508.0,-3664.0,-1164.0,6.0,15.0,18.0
2870.0,2830.0,2909.0,3153.0,3047.0,0.737549,-0.147156,-0.658997,0.006897,0.0,0.0,0.0,7721.0,-1793.0,-589.0,-225.0,59.0,-1310.0,1257.0,-261.0,-347.0,0.970054,-0.226159,0.088095,15456.0,-3600.0,-1044.0,8.0,19.0,10.0
2870.0,2822.0,2903.0,3151.0,3051.0,0.736938,-0.147339,-0.659729,0.006897,-1.0,0.0,0.0,7723.0,-1786.0,-552.0,-225.0,67.0,-1257.0,1208.0,-243.0,-341.0,0.970327,-0.22626,0.086175,15478.0,-3554.0,-970.0,-6.0,16.0,0.0
2867.0,2822.0,2896.0,3143.0,3039.0,0.736572,-0.147461,-0.660034,0.006836,-1.0,0.0,-1.0,7727.0,-1781.0,-547.0,-221.0,72.0,-1244.0,1196.0,-235.0,-336.0,0.97031,-0.226255,0.085196,15478.0,-3516.0,-1044.0,-6.0,16.0,-6.0
2863.0,2819.0,2910.0,3151.0,3047.0,0.735901,-0.147583,-0.660767,0.006531,-1.0,0.0,-1.0,7741.0,-1754.0,-527.0,-210.0,96.0,-1208.0,1168.0,-203.0,-326.0,0.97059,-0.225844,0.0832,15518.0,-3464.0,-1006.0,-15.0,19.0,-19.0
2871.0,2815.0,2908.0,3155.0,3056.0,0.735596,-0.147644,-0.661133,0.006409,-1.0,0.0,-1.0,7732.0,-1752.0,-521.0,-220.0,96.0,-1194.0,1153.0,-202.0,-333.0,0.970761,-0.225687,0.082247,15420.0,-3462.0,-986.0,-17.0,15.0,-20.0
2869.0,2819.0,2901.0,3147.0,3051.0,0.734863,-0.147827,-0.661926,0.006165,-1.0,-1.0,0.0,7733.0,-1761.0,-515.0,-221.0,85.0,-1170.0,1128.0,-208.0,-327.0,0.971028,-0.225426,0.080063,15710.0,-3688.0,-952.0,-14.0,-7.0,3.0
2864.0,2815.0,2907.0,3151.0,3045.0,0.734497,-0.148071,-0.662231,0.006287,0.0,0.0,1.0,7761.0,-1785.0,-518.0,-193.0,65.0,-1165.0,1123.0,-221.0,-294.0,0.970952,-0.225842,0.07905,15514.0,-3532.0,-1158.0,6.0,19.0,36.0
2865.0,2838.0,2903.0,3151.0,3042.0,0.733765,-0.148254,-0.663025,0.006348,-1.0,-2.0,0.0,7675.0,-1757.0,-513.0,-280.0,94.0,-1142.0,1097.0,-206.0,-380.0,0.971126,-0.225985,0.076869,15390.0,-3744.0,-1010.0,-9.0,-25.0,2.0
2863.0,2825.0,2931.0,3149.0,3051.0,0.733337,-0.148438,-0.663452,0.00647,0.0,-1.0,0.0,7710.0,-1796.0,-521.0,-245.0,57.0,-1140.0,1092.0,-234.0,-337.0,0.971148,-0.226294,0.075623,15642.0,-3750.0,-1118.0,10.0,-17.0,20.0
2871.0,2831.0,2908.0,3155.0,3047.0,0.732544,-0.14856,-0.664246,0.006653,0.0,-1.0,0.0,7728.0,-1768.0,-551.0,-228.0,87.0,-1152.0,1112.0,-204.0,-325.0,0.971202,-0.226491,0.073373,15518.0,-3496.0,-1182.0,7.0,-1.0,1.0
2864.0,2818.0,2903.0,3151.0,3043.0,0.732178,-0.148621,-0.664673,0.006653,-1.0,0.0,0.0,7738.0,-1761.0,-560.0,-219.0,94.0,-1151.0,1114.0,-195.0,-317.0,0.97134,-0.226477,0.07225,15532.0,-3426.0,-1176.0,-1.0,8.0,5.0
2870.0,2823.0,2911.0,3155.0,3039.0,0.731506,-0.148926,-0.665344,0.006409,-2.0,0.0,-1.0,7726.0,-1758.0,-577.0,-232.0,96.0,-1152.0,1115.0,-197.0,-328.0,0.971498,-0.226408,0.070281,15428.0,-3632.0,-1212.0,-30.0,15.0,-1.0
2847.0,2822.0,2909.0,3163.0,3055.0,0.73114,-0.149109,-0.66571,0.006348,-1.0,0.0,-1.0,7719.0,-1789.0,-594.0,-240.0,66.0,-1160.0,1116.0,-229.0,-328.0,0.971562,-0.22649,0.069202,15402.0,-3758.0,-1274.0,-22.0,13.0,-4.0
2865.0,2831.0,2911.0,3158.0,3047.0,0.73053,-0.149292,-0.666382,0.006226,0.0,0.0,-1.0,7712.0,-1802.0,-615.0,-248.0,52.0,-1166.0,1119.0,-246.0,-331.0,0.971765,-0.226422,0.06736,15416.0,-3552.0,-1266.0,5.0,19.0,-11.0
2867.0,2815.0,2911.0,3151.0,3051.0,0.730225,-0.149292,-0.666687,0.006226,0.0,0.0,-1.0,7712.0,-1787.0,-612.0,-249.0,67.0,-1156.0,1112.0,-230.0,-334.0,0.971804,-0.226334,0.066507,15428.0,-3480.0,-1148.0,8.0,19.0,-9.0
2863.0,2821.0,2903.0,3153.0,3039.0,0.729614,-0.149353,-0.667358,0.006104,0.0,0.0,-1.0,7718.0,-1755.0,-589.0,-244.0,97.0,-1119.0,1083.0,-192.0,-331.0,0.972005,-0.226087,0.064701,15468.0,-3434.0,-1102.0,6.0,14.0,-3.0
2862.0,2822.0,2911.0,3163.0,3055.0,0.729309,-0.149353,-0.667664,0.006104,0.0,0.0,-1.0,7728.0,-1745.0,-566.0,-234.0,106.0,-1089.0,1057.0,-175.0,-320.0,0.972043,-0.225999,0.063848,15514.0,-3416.0,-998.0,5.0,14.0,-2.0
2866.0,2830.0,2911.0,3155.0,3039.0,0.728821,-0.149414,-0.668213,0.006042,-1.0,0.0,0.0,7734.0,-1715.0,-534.0,-230.0,135.0,-1045.0,1020.0,-138.0,-319.0,0.972209,-0.225867,0.062383,15472.0,-3380.0,-1006.0,-1.0,21.0,0.0
2865.0,2823.0,2911.0,3154.0,3053.0,0.728577,-0.149475,-0.668457,0.005981,-1.0,0.0,0.0,7733.0,-1710.0,-530.0,-231.0,139.0,-1035.0,1011.0,-132.0,-319.0,0.972256,-0.225805,0.061682,15458.0,-3360.0,-1022.0,-5.0,20.0,1.0
2864.0,2815.0,2911.0,3153.0,3051.0,0.727966,-0.149719,-0.669006,0.00592,-1.0,0.0,0.0,7730.0,-1733.0,-517.0,-234.0,117.0,-1008.0,981.0,-148.0,-314.0,0.972255,-0.225903,0.059985,15514.0,-3584.0,-1028.0,-3.0,10.0,10.0
2866.0,2819.0,2911.0,3165.0,3054.0,0.727722,-0.14978,-0.669312,0.00592,0.0,0.0,0.0,7726.0,-1743.0,-515.0,-239.0,107.0,-999.0,970.0,-157.0,-315.0,0.972372,-0.225922,0.059203,15400.0,-3524.0,-1006.0,7.0,13.0,7.0
2866.0,2827.0,2896.0,3151.0,3039.0,0.727112,-0.149902,-0.669922,0.005981,0.0,-1.0,0.0,7721.0,-1742.0,-496.0,-245.0,109.0,-966.0,938.0,-150.0,-318.0,0.972423,-0.226006,0.057461,15510.0,-3568.0,-940.0,3.0,-1.0,6.0
2867.0,2815.0,2899.0,3155.0,3051.0,0.726807,-0.149963,-0.670227,0.006042,0.0,-1.0,0.0,7732.0,-1771.0,-504.0,-234.0,81.0,-967.0,935.0,-174.0,-300.0,0.972439,-0.226088,0.056591,15544.0,-3728.0,-1052.0,9.0,-2.0,1.0
2867.0,2819.0,2903.0,3151.0,3051.0,0.726257,-0.149902,-0.670837,0.006226,1.0,0.0,-1.0,7733.0,-1800.0,-508.0,-234.0,52.0,-958.0,921.0,-200.0,-292.0,0.972535,-0.226088,0.054995,15398.0,-3602.0,-998.0,33.0,6.0,-8.0
2869.0,2822.0,2906.0,3166.0,3055.0,0.726013,-0.14978,-0.671143,0.006287,1.0,0.0,-1.0,7723.0,-1797.0,-511.0,-244.0,53.0,-955.0,918.0,-200.0,-301.0,0.972633,-0.225923,0.054268,15386.0,-3540.0,-1078.0,35.0,2.0,-8.0
2866.0,2825.0,2909.0,3153.0,3062.0,0.725403,-0.149597,-0.671814,0.006409,1.0,-1.0,-1.0,7712.0,-1769.0,-529.0,-256.0,79.0,-959.0,926.0,-178.0,-317.0,0.972754,-0.225647,0.052537,15382.0,-3416.0,-1102.0,26.0,-1.0,-11.0
2863.0,2821.0,2914.0,3151.0,3039.0,0.725098,-0.149597,-0.67218,0.006409,0.0,-1.0,-1.0,7712.0,-1754.0,-515.0,-257.0,93.0,-937.0,908.0,-160.0,-319.0,0.972875,-0.225561,0.051602,15458.0,-3414.0,-936.0,10.0,-5.0,-11.0
2867.0,2815.0,2911.0,3153.0,3047.0,0.724487,-0.149658,-0.672852,0.006348,-1.0,-1.0,0.0,7718.0,-1730.0,-520.0,-253.0,116.0,-927.0,903.0,-135.0,-318.0,0.973045,-0.225393,0.049795,15414.0,-3334.0,-1050.0,-13.0,-4.0,2.0
2865.0,2822.0,2907.0,3153.0,3058.0,0.724121,-0.14978,-0.673157,0.006226,-1.0,-1.0,0.0,7720.0,-1731.0,-516.0,-251.0,114.0,-915.0,892.0,-134.0,-314.0,0.973029,-0.2253,0.048816,15480.0,-3540.0,-1026.0,-22.0,-7.0,5.0
2859.0,2818.0,2902.0,3165.0,3043.0,0.72345,-0.150085,-0.673828,0.006165,-1.0,-1.0,-1.0,7730.0,-1770.0,-526.0,-241.0,77.0,-909.0,880.0,-167.0,-294.0,0.973111,-0.225466,0.046847,15480.0,-3654.0,-1038.0,-5.0,-4.0,-1.0
2869.0,2818.0,2898.0,3151.0,3047.0,0.723145,-0.150085,-0.674133,0.006165,0.0,-1.0,-1.0,7729.0,-1789.0,-534.0,-242.0,57.0,-910.0,877.0,-186.0,-290.0,0.973141,-0.225378,0.045995,15444.0,-3682.0,-1112.0,11.0,-4.0,-5.0
2864.0,2823.0,2908.0,3151.0,3039.0,0.722534,-0.149963,-0.674866,0.006348,1.0,-1.0,-1.0,7716.0,-1780.0,-540.0,-257.0,65.0,-901.0,870.0,-179.0,-304.0,0.973323,-0.225275,0.044163,15438.0,-3502.0,-1070.0,33.0,-12.0,-9.0
2867.0,2823.0,2896.0,3143.0,3063.0,0.722229,-0.149902,-0.675171,0.006409,1.0,-1.0,-1.0,7713.0,-1764.0,-540.0,-260.0,80.0,-894.0,866.0,-164.0,-309.0,0.973335,-0.225182,0.043329,15438.0,-3432.0,-1088.0,29.0,-16.0,-9.0
2865.0,2815.0,2906.0,3159.0,3055.0,0.721558,-0.14978,-0.675903,0.006409,0.0,-1.0,-1.0,7729.0,-1733.0,-531.0,-245.0,108.0,-870.0,850.0,-129.0,-298.0,0.973487,-0.224814,0.041407,15520.0,-3476.0,-1050.0,8.0,-14.0,-12.0
2865.0,2819.0,2903.0,3151.0,3047.0,0.721252,-0.149719,-0.67627,0.006409,0.0,-1.0,-1.0,7729.0,-1742.0,-543.0,-246.0,98.0,-874.0,852.0,-139.0,-296.0,0.973603,-0.224639,0.04049,15452.0,-3542.0,-1150.0,6.0,-10.0,-11.0
2864.0,2823.0,2903.0,3145.0,3047.0,0.720581,-0.14978,-0.677002,0.006348,-1.0,-1.0,-1.0,7719.0,-1723.0,-555.0,-258.0,115.0,-870.0,851.0,-125.0,-310.0,0.973768,-0.224452,0.038512,15446.0,-3342.0,-1076.0,0.0,-15.0,-3.0
2867.0,2830.0,2911.0,3151.0,3035.0,0.720215,-0.149841,-0.677368,0.006287,-1.0,-1.0,0.0,7725.0,-1701.0,-555.0,-252.0,136.0,-861.0,847.0,-102.0,-308.0,0.973817,-0.224353,0.037469,15518.0,-3280.0,-1096.0,-12.0,-16.0,4.0
2861.0,2831.0,2913.0,3153.0,3039.0,0.719482,-0.150146,-0.67804,0.006226,-1.0,-1.0,0.0,7721.0,-1696.0,-569.0,-256.0,143.0,-859.0,846.0,-96.0,-311.0,0.973806,-0.224498,0.035412,15430.0,-3402.0,-1136.0,-21.0,-10.0,12.0
2867.0,2826.0,2905.0,3167.0,3047.0,0.719177,-0.150269,-0.678345,0.006104,-2.0,-1.0,0.0,7720.0,-1696.0,-569.0,-257.0,142.0,-851.0,839.0,-95.0,-311.0,0.973866,-0.22442,0.034521,15448.0,-3402.0,-1132.0,-23.0,-9.0,10.0
2874.0,2823.0,2899.0,3159.0,3055.0,0.718567,-0.150513,-0.678955,0.006104,-1.0,-1.0,0.0,7731.0,-1721.0,-556.0,-247.0,118.0,-824.0,809.0,-111.0,-294.0,0.973912,-0.224595,0.032742,15472.0,-3506.0,-1062.0,0.0,-4.0,10.0
2877.0,2819.0,2905.0,3155.0,3059.0,0.718323,-0.150574,-0.679199,0.006165,0.0,-1.0,0.0,7729.0,-1721.0,-550.0,-249.0,119.0,-812.0,797.0,-108.0,-295.0,0.973912,-0.224695,0.032042,15436.0,-3382.0,-1070.0,13.0,-2.0,8.0
2871.0,2822.0,2895.0,3155.0,3063.0,0.717773,-0.150574,-0.679749,0.006287,0.0,-1.0,0.0,7742.0,-1705.0,-534.0,-236.0,135.0,-783.0,774.0,-84.0,-284.0,0.973918,-0.224702,0.030508,15570.0,-3416.0,-1034.0,17.0,-3.0,9.0
2859.0,2819.0,2903.0,3153.0,3055.0,0.71759,-0.150574,-0.679993,0.006348,0.0,0.0,0.0,7750.0,-1707.0,-532.0,-229.0,134.0,-777.0,768.0,-82.0,-276.0,0.974001,-0.224733,0.029914,15528.0,-3424.0,-1058.0,20.0,5.0,11.0
2874.0,2822.0,2896.0,3137.0,3031.0,0.717163,-0.150513,-0.68042,0.006531,0.0,0.0,0.0,7729.0,-1697.0,-526.0,-249.0,144.0,-761.0,753.0,-73.0,-296.0,0.973978,-0.224772,0.02874,15402.0,-3386.0,-1074.0,17.0,3.0,11.0
2864.0,2834.0,2896.0,3141.0,3051.0,0.716919,-0.150574,-0.680664,0.006592,0.0,-1.0,0.0,7732.0,-1702.0,-515.0,-246.0,140.0,-744.0,736.0,-73.0,-291.0,0.973977,-0.224872,0.02804,15478.0,-3444.0,-940.0,11.0,0.0,15.0
2855.0,2835.0,2911.0,3157.0,3055.0,0.716431,-0.150757,-0.681152,0.006714,0.0,-1.0,0.0,7707.0,-1718.0,-533.0,-271.0,126.0,-751.0,739.0,-93.0,-312.0,0.973973,-0.22516,0.026622,15338.0,-3528.0,-1098.0,1.0,-10.0,19.0
2859.0,2823.0,2919.0,3139.0,3039.0,0.716064,-0.150879,-0.681458,0.006775,-1.0,-1.0,0.0,7705.0,-1750.0,-534.0,-273.0,95.0,-744.0,726.0,-122.0,-306.0,0.973891,-0.225312,0.025645,15426.0,-3750.0,-1074.0,0.0,-18.0,12.0
2864.0,2822.0,2897.0,3153.0,3045.0,0.715515,-0.151001,-0.682068,0.00708,1.0,-1.0,0.0,7722.0,-1805.0,-551.0,-256.0,44.0,-747.0,721.0,-167.0,-277.0,0.973922,-0.225745,0.023994,15472.0,-3614.0,-1116.0,26.0,-6.0,8.0
2867.0,2825.0,2915.0,3155.0,3053.0,0.715271,-0.15094,-0.682312,0.007141,0.0,-1.0,0.0,7720.0,-1791.0,-553.0,-258.0,57.0,-744.0,721.0,-154.0,-281.0,0.97392,-0.225671,0.023331,15420.0,-3478.0,-1114.0,22.0,-5.0,2.0
2867.0,2826.0,2894.0,3159.0,3057.0,0.714783,-0.151001,-0.682861,0.007202,0.0,-1.0,0.0,7720.0,-1778.0,-567.0,-259.0,70.0,-746.0,726.0,-142.0,-284.0,0.97402,-0.225702,0.021865,15452.0,-3578.0,-1242.0,3.0,-3.0,3.0
2863.0,2823.0,2927.0,3147.0,3047.0,0.714478,-0.151062,-0.683105,0.007202,-1.0,-1.0,0.0,7722.0,-1780.0,-577.0,-256.0,68.0,-749.0,729.0,-144.0,-280.0,0.973951,-0.2257,0.021077,15454.0,-3576.0,-1234.0,-2.0,-1.0,1.0
2863.0,2819.0,2915.0,3163.0,3039.0,0.713989,-0.151184,-0.683594,0.007202,0.0,0.0,0.0,7716.0,-1779.0,-586.0,-262.0,70.0,-747.0,727.0,-143.0,-285.0,0.973979,-0.225734,0.019675,15466.0,-3540.0,-1176.0,5.0,2.0,0.0
2858.0,2832.0,2895.0,3149.0,3039.0,0.713745,-0.151184,-0.683838,0.007263,0.0,0.0,-1.0,7721.0,-1780.0,-582.0,-257.0,69.0,-737.0,718.0,-141.0,-279.0,0.973976,-0.225747,0.018994,15460.0,-3586.0,-1122.0,14.0,4.0,-3.0
2875.0,2819.0,2915.0,3163.0,3059.0,0.713379,-0.151001,-0.684265,0.007324,1.0,0.0,-1.0,7715.0,-1748.0,-576.0,-264.0,99.0,-722.0,709.0,-111.0,-292.0,0.974069,-0.225465,0.017943,15400.0,-3376.0,-1160.0,25.0,7.0,-5.0
2866.0,2831.0,2883.0,3127.0,3047.0,0.713196,-0.15094,-0.684509,0.007385,0.0,-1.0,-1.0,7714.0,-1732.0,-565.0,-266.0,114.0,-707.0,697.0,-94.0,-297.0,0.974149,-0.22541,0.017367,15452.0,-3362.0,-1024.0,22.0,0.0,-1.0
2871.0,2829.0,2903.0,3143.0,3029.0,0.712769,-0.15094,-0.684937,0.007385,0.0,-1.0,0.0,7731.0,-1690.0,-537.0,-249.0,155.0,-669.0,669.0,-43.0,-288.0,0.974173,-0.225287,0.016173,15500.0,-3316.0,-1012.0,2.0,-3.0,12.0
2877.0,2823.0,2877.0,3167.0,3023.0,0.712524,-0.151001,-0.685181,0.007446,-1.0,-1.0,0.0,7733.0,-1702.0,-534.0,-247.0,144.0,-660.0,659.0,-51.0,-283.0,0.974167,-0.225388,0.015473,15482.0,-3524.0,-1084.0,-3.0,0.0,17.0
2862.0,2831.0,2928.0,3175.0,3027.0,0.712036,-0.151184,-0.685608,0.007629,0.0,-1.0,0.0,7726.0,-1750.0,-536.0,-253.0,99.0,-651.0,641.0,-94.0,-277.0,0.974048,-0.225759,0.014139,15472.0,-3612.0,-1044.0,17.0,-7.0,18.0
2877.0,2822.0,2911.0,3159.0,3043.0,0.711853,-0.151184,-0.685852,0.007751,0.0,-1.0,0.0,7730.0,-1748.0,-541.0,-249.0,102.0,-651.0,642.0,-90.0,-274.0,0.974108,-0.225874,0.013545,15512.0,-3434.0,-1132.0,19.0,-7.0,14.0
2875.0,2823.0,2895.0,3163.0,3057.0,0.711365,-0.151245,-0.686279,0.007812,-1.0,-1.0,0.0,7735.0,-1734.0,-546.0,-244.0,116.0,-646.0,640.0,-74.0,-271.0,0.974027,-0.225904,0.012246,15454.0,-3506.0,-1142.0,-5.0,-1.0,4.0
2854.0,2815.0,2911.0,3147.0,3054.0,0.711121,-0.151367,-0.686523,0.007812,-1.0,-1.0,0.0,7732.0,-1755.0,-555.0,-247.0,96.0,-649.0,639.0,-95.0,-269.0,0.974037,-0.226008,0.011527,15446.0,-3664.0,-1186.0,-10.0,-4.0,6.0
2859.0,2823.0,2906.0,3167.0,3035.0,0.710693,-0.151489,-0.686951,0.007874,0.0,0.0,0.0,7736.0,-1783.0,-568.0,-243.0,69.0,-652.0,638.0,-120.0,-259.0,0.974037,-0.226142,0.010297,15486.0,-3628.0,-1130.0,14.0,7.0,5.0
2875.0,2815.0,2907.0,3152.0,3047.0,0.71051,-0.151489,-0.687134,0.007935,0.0,0.0,0.0,7729.0,-1787.0,-573.0,-250.0,65.0,-653.0,638.0,-126.0,-264.0,0.974027,-0.226174,0.009786,15408.0,-3584.0,-1180.0,15.0,9.0,5.0
2877.0,2819.0,2901.0,3143.0,3053.0,0.710144,-0.15155,-0.6875,0.008057,0.0,0.0,0.0,7712.0,-1773.0,-567.0,-267.0,81.0,-638.0,625.0,-111.0,-283.0,0.974006,-0.226323,0.008746,15384.0,-3488.0,-1100.0,11.0,5.0,11.0
2867.0,2826.0,2911.0,3131.0,3042.0,0.709961,-0.151611,-0.687683,0.008118,0.0,0.0,0.0,7708.0,-1768.0,-565.0,-270.0,87.0,-632.0,621.0,-105.0,-287.0,0.973995,-0.226441,0.008216,15394.0,-3494.0,-1112.0,13.0,3.0,4.0
2862.0,2811.0,2895.0,3121.0,3059.0,0.709656,-0.151489,-0.688049,0.008301,1.0,0.0,0.0,7723.0,-1754.0,-545.0,-256.0,100.0,-604.0,597.0,-83.0,-276.0,0.974041,-0.226433,0.007319,15568.0,-3368.0,-1052.0,27.0,4.0,4.0
2851.0,2813.0,2895.0,3151.0,3058.0,0.709473,-0.151428,-0.688232,0.008301,0.0,0.0,0.0,7737.0,-1724.0,-536.0,-242.0,129.0,-591.0,591.0,-50.0,-268.0,0.97405,-0.226294,0.006826,15558.0,-3258.0,-1030.0,16.0,9.0,8.0
2869.0,2811.0,2895.0,3151.0,3045.0,0.709167,-0.15155,-0.688538,0.008301,-1.0,0.0,0.0,7736.0,-1706.0,-549.0,-243.0,148.0,-597.0,601.0,-33.0,-273.0,0.974061,-0.22638,0.005936,15410.0,-3440.0,-1132.0,-6.0,9.0,22.0
2866.0,2826.0,2931.0,3165.0,3027.0,0.708984,-0.151733,-0.688721,0.008362,-1.0,0.0,1.0,7731.0,-1717.0,-550.0,-248.0,139.0,-593.0,595.0,-42.0,-276.0,0.974047,-0.226671,0.00537,15440.0,-3500.0,-1058.0,-4.0,7.0,26.0
2877.0,2823.0,2923.0,3153.0,3025.0,0.708618,-0.151978,-0.688965,0.008545,-1.0,0.0,1.0,7717.0,-1728.0,-564.0,-260.0,132.0,-600.0,600.0,-53.0,-285.0,0.973829,-0.227162,0.004443,15318.0,-3398.0,-1222.0,0.0,13.0,34.0
2851.0,2813.0,2913.0,3167.0,3051.0,0.708435,-0.152161,-0.689087,0.008606,-1.0,0.0,1.0,7708.0,-1735.0,-559.0,-268.0,128.0,-591.0,590.0,-57.0,-292.0,0.973728,-0.227452,0.003961,15378.0,-3544.0,-1088.0,-14.0,6.0,36.0
2865.0,2815.0,2907.0,3159.0,3047.0,0.708069,-0.152649,-0.689392,0.008728,-1.0,0.0,1.0,7713.0,-1785.0,-567.0,-262.0,84.0,-590.0,581.0,-98.0,-275.0,0.973609,-0.228206,0.002875,15450.0,-3738.0,-1168.0,-12.0,5.0,32.0
2871.0,2815.0,2896.0,3151.0,3027.0,0.707886,-0.152771,-0.689575,0.00885,-1.0,0.0,0.0,7727.0,-1812.0,-570.0,-248.0,59.0,-589.0,576.0,-119.0,-256.0,0.973577,-0.228494,0.002328,15568.0,-3810.0,-1164.0,-1.0,10.0,22.0
2873.0,2832.0,2924.0,3135.0,3057.0,0.707703,-0.152832,-0.689758,0.009033,1.0,1.0,0.0,7738.0,-1826.0,-570.0,-237.0,48.0,-584.0,569.0,-126.0,-242.0,0.973526,-0.228781,0.001801,15426.0,-3618.0,-1088.0,25.0,29.0,2.0
2869.0,2829.0,2911.0,3163.0,3031.0,0.707642,-0.152832,-0.689819,0.009094,0.0,1.0,0.0,7719.0,-1816.0,-562.0,-255.0,58.0,-575.0,562.0,-118.0,-262.0,0.97351,-0.228847,0.001631,15328.0,-3570.0,-1060.0,18.0,27.0,7.0
2863.0,2821.0,2911.0,3155.0,3055.0,0.707397,-0.152954,-0.690002,0.009094,-1.0,0.0,0.0,7710.0,-1813.0,-520.0,-264.0,62.0,-528.0,516.0,-107.0,-271.0,0.97343,-0.228949,0.000996,15470.0,-3774.0,-918.0,-9.0,11.0,7.0
2864.0,2811.0,2911.0,3147.0,3059.0,0.707275,-0.153076,-0.690125,0.009155,-1.0,0.0,0.0,7702.0,-1835.0,-506.0,-272.0,42.0,-511.0,495.0,-125.0,-274.0,0.973413,-0.229171,0.000618,15314.0,-3750.0,-956.0,-1.0,13.0,14.0
2861.0,2815.0,2891.0,3166.0,3055.0,0.707031,-0.153137,-0.690369,0.009216,0.0,0.0,0.0,7716.0,-1816.0,-482.0,-258.0,62.0,-481.0,471.0,-96.0,-265.0,0.973402,-0.229271,-8.2e-05,15566.0,-3586.0,-878.0,8.0,9.0,2.0
2861.0,2817.0,2943.0,3183.0,3031.0,0.706909,-0.153137,-0.69043,0.009277,0.0,0.0,0.0,7732.0,-1817.0,-478.0,-241.0,61.0,-475.0,465.0,-92.0,-248.0,0.973301,-0.229319,-0.000338,15574.0,-3646.0,-898.0,8.0,15.0,6.0
2863.0,2807.0,2887.0,3158.0,3043.0,0.706787,-0.153137,-0.690613,0.009338,0.0,0.0,0.0,7727.0,-1796.0,-471.0,-246.0,82.0,-464.0,459.0,-71.0,-257.0,0.973372,-0.229369,-0.000762,15402.0,-3548.0,-944.0,12.0,17.0,3.0
2885.0,2829.0,2906.0,3159.0,3046.0,0.706665,-0.153137,-0.690674,0.009338,0.0,0.0,0.0,7718.0,-1791.0,-471.0,-255.0,87.0,-462.0,457.0,-68.0,-267.0,0.97329,-0.229333,-0.001019,15372.0,-3534.0,-970.0,9.0,13.0,4.0
2869.0,2815.0,2864.0,3159.0,3027.0,0.706421,-0.153198,-0.690918,0.009399,0.0,0.0,0.0,7705.0,-1788.0,-470.0,-268.0,91.0,-455.0,451.0,-66.0,-280.0,0.973278,-0.229433,-0.001719,15380.0,-3574.0,-956.0,3.0,1.0,6.0
2864.0,2818.0,2915.0,3152.0,3039.0,0.706238,-0.153259,-0.691101,0.009399,-1.0,-1.0,0.0,7706.0,-1794.0,-476.0,-267.0,85.0,-457.0,452.0,-72.0,-278.0,0.973282,-0.229467,-0.002249,15452.0,-3646.0,-980.0,-2.0,-6.0,6.0
2850.0,2821.0,2921.0,3135.0,3055.0,0.705933,-0.15332,-0.691467,0.00946,0.0,0.0,-1.0,7726.0,-1821.0,-493.0,-247.0,59.0,-466.0,457.0,-94.0,-252.0,0.973358,-0.229551,-0.003204,15486.0,-3662.0,-1046.0,7.0,1.0,-2.0
2861.0,2823.0,2893.0,3139.0,3063.0,0.70575,-0.15332,-0.691589,0.00946,0.0,0.0,-1.0,7723.0,-1822.0,-498.0,-250.0,58.0,-468.0,458.0,-96.0,-254.0,0.973277,-0.229497,-0.003631,15398.0,-3660.0,-1044.0,10.0,6.0,-7.0
2871.0,2823.0,2928.0,3131.0,3069.0,0.705505,-0.153259,-0.691895,0.009521,0.0,-1.0,-1.0,7710.0,-1815.0,-497.0,-263.0,64.0,-461.0,452.0,-91.0,-268.0,0.973352,-0.229426,-0.004378,15434.0,-3554.0,-956.0,8.0,0.0,-6.0
2843.0,2815.0,2907.0,3167.0,3055.0,0.705322,-0.153259,-0.692017,0.00946,0.0,0.0,-1.0,7721.0,-1807.0,-487.0,-252.0,71.0,-447.0,441.0,-79.0,-259.0,0.97329,-0.229288,-0.004806,15528.0,-3592.0,-918.0,1.0,3.0,-9.0
2871.0,2811.0,2899.0,3155.0,3063.0,0.705078,-0.153259,-0.692322,0.009399,0.0,0.0,-1.0,7718.0,-1812.0,-484.0,-256.0,65.0,-438.0,431.0,-84.0,-261.0,0.973401,-0.229134,-0.005574,15390.0,-3676.0,-948.0,1.0,5.0,-8.0
2867.0,2823.0,2911.0,3153.0,3039.0,0.704956,-0.153259,-0.692444,0.009399,0.0,0.0,-1.0,7713.0,-1822.0,-489.0,-261.0,54.0,-440.0,430.0,-96.0,-263.0,0.973404,-0.229099,-0.005916,15408.0,-3696.0,-1058.0,11.0,6.0,-10.0
2864.0,2814.0,2899.0,3159.0,3062.0,0.704651,-0.153076,-0.692749,0.009399,0.0,-1.0,-1.0,7705.0,-1795.0,-499.0,-269.0,78.0,-444.0,439.0,-76.0,-276.0,0.973415,-0.228753,-0.006712,15406.0,-3472.0,-1036.0,20.0,-5.0,-9.0
2875.0,2826.0,2896.0,3151.0,3057.0,0.704529,-0.153015,-0.692932,0.00946,0.0,-1.0,-1.0,7704.0,-1778.0,-505.0,-270.0,95.0,-446.0,444.0,-60.0,-281.0,0.973486,-0.228718,-0.007118,15436.0,-3454.0,-1026.0,16.0,-7.0,-5.0
2871.0,2822.0,2911.0,3167.0,3051.0,0.704163,-0.152954,-0.693298,0.00946,0.0,-1.0,0.0,7722.0,-1764.0,-523.0,-252.0,108.0,-456.0,458.0,-46.0,-266.0,0.973495,-0.228527,-0.008123,15502.0,-3556.0,-1168.0,7.0,-7.0,4.0
2863.0,2827.0,2887.0,3147.0,3047.0,0.703979,-0.152954,-0.693481,0.009521,0.0,-1.0,0.0,7729.0,-1778.0,-527.0,-245.0,94.0,-456.0,455.0,-57.0,-256.0,0.973481,-0.228559,-0.008634,15478.0,-3646.0,-1074.0,13.0,0.0,4.0
2867.0,2819.0,2898.0,3159.0,3031.0,0.703735,-0.152832,-0.693787,0.009766,1.0,-1.0,-1.0,7709.0,-1809.0,-528.0,-265.0,64.0,-451.0,444.0,-89.0,-268.0,0.973499,-0.228657,-0.009359,15320.0,-3672.0,-1046.0,36.0,-2.0,-1.0
2871.0,2827.0,2903.0,3133.0,3035.0,0.703552,-0.152771,-0.69397,0.009888,1.0,-1.0,-1.0,7712.0,-1801.0,-523.0,-262.0,72.0,-442.0,437.0,-79.0,-267.0,0.973467,-0.228688,-0.009849,15496.0,-3526.0,-990.0,38.0,-9.0,-2.0
2871.0,2826.0,2907.0,3156.0,3055.0,0.703247,-0.152649,-0.694275,0.009949,-1.0,-1.0,0.0,7730.0,-1731.0,-492.0,-244.0,140.0,-404.0,414.0,-2.0,-265.0,0.973456,-0.228514,-0.010664,15558.0,-3270.0,-898.0,-10.0,-10.0,5.0
2863.0,2815.0,2899.0,3153.0,3055.0,0.703064,-0.15271,-0.694458,0.009827,-2.0,-1.0,0.0,7748.0,-1730.0,-485.0,-226.0,140.0,-393.0,404.0,3.0,-247.0,0.973496,-0.228378,-0.011197,15604.0,-3544.0,-928.0,-34.0,-6.0,5.0
2862.0,2815.0,2890.0,3155.0,3055.0,0.70282,-0.153015,-0.694641,0.009644,-1.0,0.0,0.0,7730.0,-1777.0,-500.0,-244.0,94.0,-402.0,403.0,-46.0,-254.0,0.973464,-0.228482,-0.011891,15340.0,-3600.0,-1026.0,-12.0,6.0,4.0
2869.0,2819.0,2915.0,3157.0,3039.0,0.702637,-0.153076,-0.694824,0.009644,-1.0,-1.0,0.0,7713.0,-1773.0,-497.0,-261.0,98.0,-395.0,397.0,-45.0,-271.0,0.973466,-0.228515,-0.012422,15376.0,-3548.0,-970.0,-7.0,-6.0,2.0
2875.0,2822.0,2899.0,3162.0,3054.0,0.702271,-0.153198,-0.69519,0.009583,-1.0,-1.0,0.0,7710.0,-1779.0,-489.0,-264.0,92.0,-378.0,379.0,-48.0,-272.0,0.973487,-0.228497,-0.013484,15456.0,-3556.0,-950.0,-8.0,-19.0,6.0
2861.0,2815.0,2899.0,3151.0,3051.0,0.702087,-0.153259,-0.695374,0.009644,-1.0,-1.0,0.0,7721.0,-1788.0,-479.0,-253.0,84.0,-364.0,364.0,-50.0,-260.0,0.97347,-0.228615,-0.014013,15514.0,-3618.0,-908.0,-3.0,-21.0,4.0
2863.0,2822.0,2919.0,3143.0,3043.0,0.701721,-0.153198,-0.695679,0.009644,0.0,-1.0,-1.0,7750.0,-1800.0,-497.0,-224.0,71.0,-374.0,373.0,-58.0,-228.0,0.97339,-0.228423,-0.014933,15560.0,-3576.0,-1054.0,13.0,0.0,-11.0
2864.0,2821.0,2897.0,3151.0,3055.0,0.70166,-0.153137,-0.695801,0.009644,0.0,0.0,-1.0,7736.0,-1788.0,-501.0,-238.0,82.0,-376.0,377.0,-51.0,-244.0,0.973478,-0.228321,-0.01517,15352.0,-3460.0,-1016.0,19.0,7.0,-13.0
2862.0,2823.0,2896.0,3155.0,3037.0,0.701355,-0.153015,-0.696106,0.009521,-1.0,-1.0,-1.0,7722.0,-1737.0,-514.0,-253.0,129.0,-383.0,393.0,-11.0,-269.0,0.973521,-0.227892,-0.015988,15442.0,-3400.0,-1082.0,-13.0,-2.0,-3.0
2866.0,2821.0,2899.0,3153.0,3056.0,0.701233,-0.153137,-0.696228,0.009399,-1.0,-1.0,0.0,7713.0,-1749.0,-510.0,-262.0,117.0,-375.0,382.0,-23.0,-275.0,0.973557,-0.227858,-0.016369,15412.0,-3620.0,-956.0,-21.0,-2.0,8.0
2835.0,2823.0,2902.0,3143.0,3051.0,0.700928,-0.15332,-0.696533,0.009521,0.0,-1.0,0.0,7716.0,-1797.0,-520.0,-259.0,72.0,-378.0,376.0,-66.0,-262.0,0.973519,-0.228197,-0.017275,15476.0,-3724.0,-1156.0,7.0,-1.0,11.0
2863.0,2823.0,2919.0,3143.0,3043.0,0.700806,-0.153381,-0.696655,0.009583,0.0,-1.0,0.0,7724.0,-1807.0,-510.0,-250.0,63.0,-365.0,362.0,-70.0,-251.0,0.9735,-0.228332,-0.017634,15494.0,-3654.0,-932.0,17.0,0.0,8.0
2869.0,2827.0,2913.0,3150.0,3051.0,0.700562,-0.15332,-0.696899,0.009705,0.0,-1.0,-1.0,7722.0,-1783.0,-490.0,-252.0,87.0,-340.0,343.0,-42.0,-258.0,0.973466,-0.228347,-0.018295,15500.0,-3556.0,-942.0,9.0,-8.0,-2.0
2864.0,2815.0,2901.0,3163.0,3043.0,0.700439,-0.153259,-0.697021,0.009705,0.0,-1.0,-1.0,7733.0,-1794.0,-485.0,-241.0,75.0,-332.0,333.0,-50.0,-245.0,0.973468,-0.228226,-0.018618,15518.0,-3666.0,-946.0,8.0,-5.0,-6.0
2875.0,2831.0,2896.0,3147.0,3047.0,0.700195,-0.153137,-0.697266,0.009766,0.0,-1.0,-1.0,7736.0,-1778.0,-501.0,-238.0,90.0,-343.0,347.0,-37.0,-245.0,0.973453,-0.22807,-0.019262,15520.0,-3514.0,-1066.0,17.0,-6.0,-9.0
2864.0,2822.0,2896.0,3135.0,3056.0,0.700073,-0.153076,-0.697449,0.009766,0.0,-1.0,-1.0,7740.0,-1772.0,-512.0,-235.0,95.0,-350.0,355.0,-33.0,-243.0,0.973541,-0.227951,-0.019669,15486.0,-3496.0,-1122.0,19.0,-4.0,-7.0
2855.0,2827.0,2907.0,3152.0,3059.0,0.699768,-0.152954,-0.697754,0.009827,0.0,-1.0,0.0,7714.0,-1739.0,-540.0,-261.0,126.0,-372.0,382.0,-13.0,-275.0,0.973526,-0.227778,-0.020484,15352.0,-3416.0,-1162.0,10.0,-8.0,7.0
2864.0,2823.0,2910.0,3151.0,3039.0,0.699585,-0.152954,-0.697937,0.009888,0.0,-1.0,0.0,7716.0,-1744.0,-544.0,-258.0,122.0,-372.0,382.0,-16.0,-271.0,0.973508,-0.227811,-0.020994,15468.0,-3544.0,-1094.0,9.0,-7.0,9.0
2873.0,2821.0,2911.0,3147.0,3059.0,0.699341,-0.153015,-0.698181,0.009949,-1.0,0.0,0.0,7707.0,-1734.0,-550.0,-267.0,133.0,-372.0,384.0,-8.0,-282.0,0.973489,-0.227912,-0.021694,15338.0,-3430.0,-1154.0,-5.0,1.0,12.0
2864.0,2813.0,2906.0,3159.0,3058.0,0.699158,-0.153137,-0.698303,0.009949,-1.0,-1.0,0.0,7704.0,-1740.0,-552.0,-270.0,128.0,-370.0,381.0,-13.0,-283.0,0.973401,-0.228029,-0.022158,15396.0,-3528.0,-1104.0,-14.0,-3.0,13.0
2871.0,2829.0,2907.0,3157.0,3039.0,0.698914,-0.153381,-0.698486,0.009949,-1.0,0.0,0.0,7716.0,-1801.0,-541.0,-257.0,69.0,-353.0,353.0,-63.0,-257.0,0.973311,-0.228299,-0.02283,15444.0,-3828.0,-1026.0,-6.0,3.0,11.0
2870.0,2831.0,2909.0,3153.0,3043.0,0.698853,-0.153442,-0.698547,0.01001,0.0,0.0,0.0,7712.0,-1819.0,-535.0,-261.0,52.0,-346.0,343.0,-79.0,-257.0,0.973291,-0.228452,-0.023018,15394.0,-3730.0,-1026.0,9.0,7.0,5.0
2867.0,2815.0,2909.0,3139.0,3055.0,0.69873,-0.153381,-0.69873,0.010132,0.0,0.0,-1.0,7711.0,-1821.0,-509.0,-262.0,50.0,-317.0,314.0,-75.0,-259.0,0.97334,-0.228503,-0.023423,15466.0,-3608.0,-956.0,22.0,8.0,-3.0
2863.0,2831.0,2911.0,3157.0,3043.0,0.698669,-0.153259,-0.698792,0.010193,0.0,0.0,-1.0,7712.0,-1816.0,-505.0,-261.0,55.0,-312.0,310.0,-69.0,-259.0,0.973324,-0.228401,-0.023555,15414.0,-3568.0,-966.0,21.0,7.0,-4.0
2867.0,2826.0,2905.0,3153.0,3062.0,0.698486,-0.153198,-0.698914,0.010193,-1.0,0.0,0.0,7729.0,-1777.0,-484.0,-243.0,92.0,-287.0,293.0,-25.0,-250.0,0.97324,-0.228262,-0.023963,15530.0,-3498.0,-932.0,-2.0,5.0,0.0
2864.0,2814.0,2907.0,3142.0,3039.0,0.698425,-0.153259,-0.699036,0.010132,-1.0,0.0,-1.0,7727.0,-1791.0,-490.0,-246.0,78.0,-291.0,295.0,-40.0,-250.0,0.973343,-0.228245,-0.024239,15418.0,-3716.0,-1016.0,-10.0,6.0,-1.0
2845.0,2829.0,2899.0,3153.0,3059.0,0.698242,-0.153259,-0.699219,0.010193,0.0,-1.0,-1.0,7709.0,-1815.0,-473.0,-264.0,55.0,-270.0,269.0,-61.0,-262.0,0.973324,-0.228278,-0.024749,15378.0,-3620.0,-894.0,9.0,-7.0,-3.0
2864.0,2823.0,2902.0,3155.0,3055.0,0.69812,-0.153259,-0.699341,0.010193,0.0,-1.0,-1.0,7711.0,-1797.0,-464.0,-262.0,72.0,-258.0,261.0,-42.0,-264.0,0.973323,-0.228243,-0.02509,15454.0,-3458.0,-862.0,5.0,-15.0,-3.0
2864.0,2822.0,2914.0,3151.0,3051.0,0.697754,-0.15332,-0.699646,0.010071,-1.0,-1.0,-1.0,7713.0,-1780.0,-483.0,-260.0,88.0,-269.0,275.0,-29.0,-266.0,0.973273,-0.228052,-0.02605,15442.0,-3628.0,-1092.0,-17.0,-21.0,-1.0
2861.0,2823.0,2913.0,3151.0,3043.0,0.697571,-0.153381,-0.699829,0.010071,-1.0,-1.0,-1.0,7710.0,-1793.0,-500.0,-263.0,75.0,-282.0,285.0,-45.0,-265.0,0.973271,-0.228084,-0.02658,15400.0,-3638.0,-1138.0,-13.0,-21.0,-3.0
2871.0,2822.0,2897.0,3149.0,3051.0,0.697144,-0.153442,-0.700256,0.009949,-1.0,-1.0,-1.0,7722.0,-1779.0,-516.0,-251.0,87.0,-288.0,294.0,-32.0,-256.0,0.973305,-0.227876,-0.027795,15508.0,-3494.0,-1042.0,-11.0,-16.0,-5.0
2864.0,2822.0,2911.0,3151.0,3047.0,0.697021,-0.153503,-0.700378,0.009888,-1.0,-1.0,-1.0,7723.0,-1776.0,-520.0,-250.0,90.0,-289.0,296.0,-29.0,-255.0,0.973322,-0.227841,-0.028157,15462.0,-3582.0,-1044.0,-16.0,-9.0,-6.0
2867.0,2823.0,2897.0,3155.0,3055.0,0.696716,-0.153564,-0.700623,0.009705,-1.0,-1.0,-1.0,7729.0,-1792.0,-541.0,-244.0,72.0,-303.0,306.0,-47.0,-245.0,0.97329,-0.22758,-0.028946,15468.0,-3654.0,-1168.0,-9.0,-3.0,-8.0
2863.0,2819.0,2898.0,3155.0,3027.0,0.696594,-0.153564,-0.700745,0.009705,-1.0,-1.0,-1.0,7722.0,-1796.0,-556.0,-251.0,68.0,-316.0,318.0,-55.0,-250.0,0.973289,-0.227545,-0.029287,15384.0,-3614.0,-1222.0,0.0,0.0,-11.0
2873.0,2823.0,2906.0,3143.0,3039.0,0.69635,-0.153503,-0.70105,0.009644,0.0,-1.0,-1.0,7687.0,-1789.0,-575.0,-287.0,73.0,-328.0,331.0,-61.0,-286.0,0.973392,-0.227305,-0.030038,15328.0,-3486.0,-1188.0,10.0,-9.0,-11.0
2867.0,2823.0,2898.0,3159.0,3039.0,0.696228,-0.153442,-0.701172,0.009644,0.0,-1.0,-1.0,7687.0,-1761.0,-574.0,-287.0,100.0,-325.0,333.0,-35.0,-292.0,0.973392,-0.227185,-0.03036,15380.0,-3330.0,-1164.0,12.0,-9.0,-4.0
2863.0,2823.0,2899.0,3155.0,3047.0,0.695923,-0.153503,-0.701477,0.009583,-1.0,-1.0,0.0,7708.0,-1710.0,-562.0,-266.0,150.0,-306.0,325.0,20.0,-283.0,0.973406,-0.227097,-0.031233,15466.0,-3374.0,-1046.0,-11.0,-6.0,13.0
2867.0,2823.0,2901.0,3154.0,3039.0,0.695801,-0.153564,-0.701599,0.009583,-1.0,0.0,0.0,7713.0,-1709.0,-563.0,-261.0,151.0,-304.0,324.0,23.0,-278.0,0.973403,-0.227147,-0.031593,15458.0,-3420.0,-1120.0,-13.0,1.0,19.0
2863.0,2819.0,2895.0,3153.0,3049.0,0.695618,-0.153809,-0.70166,0.009583,-1.0,0.0,0.0,7725.0,-1715.0,-556.0,-247.0,148.0,-293.0,313.0,25.0,-264.0,0.973227,-0.227431,-0.032008,15442.0,-3406.0,-1134.0,-9.0,14.0,19.0
2866.0,2821.0,2911.0,3155.0,3047.0,0.695557,-0.15387,-0.701721,0.009521,-1.0,0.0,0.0,7721.0,-1711.0,-550.0,-251.0,151.0,-286.0,306.0,28.0,-269.0,0.973244,-0.227413,-0.032199,15398.0,-3392.0,-1090.0,-15.0,13.0,18.0
2869.0,2821.0,2902.0,3157.0,3051.0,0.695435,-0.154114,-0.701782,0.00946,-1.0,0.0,0.0,7721.0,-1753.0,-549.0,-251.0,111.0,-282.0,294.0,-8.0,-260.0,0.973171,-0.22763,-0.032531,15342.0,-3668.0,-1104.0,-5.0,15.0,11.0
2863.0,2818.0,2903.0,3153.0,3047.0,0.695435,-0.154175,-0.701843,0.009521,0.0,0.0,0.0,7714.0,-1771.0,-544.0,-258.0,95.0,-276.0,285.0,-24.0,-263.0,0.973236,-0.227802,-0.032634,15394.0,-3622.0,-1072.0,11.0,11.0,10.0
2861.0,2822.0,2911.0,3151.0,3035.0,0.695374,-0.154114,-0.701904,0.009705,0.0,0.0,0.0,7734.0,-1764.0,-515.0,-238.0,103.0,-246.0,258.0,-5.0,-247.0,0.97318,-0.227957,-0.032782,15502.0,-3428.0,-940.0,18.0,17.0,6.0
2865.0,2827.0,2911.0,3158.0,3043.0,0.695374,-0.154053,-0.701904,0.009705,0.0,0.0,0.0,7729.0,-1743.0,-512.0,-243.0,123.0,-243.0,259.0,12.0,-256.0,0.973181,-0.227872,-0.032763,15392.0,-3368.0,-1024.0,4.0,20.0,9.0
2862.0,2823.0,2911.0,3143.0,3051.0,0.695312,-0.154297,-0.701904,0.009705,-1.0,0.0,0.0,7706.0,-1767.0,-506.0,-265.0,102.0,-236.0,247.0,-11.0,-273.0,0.973091,-0.228192,-0.032924,15354.0,-3658.0,-1006.0,-11.0,8.0,20.0
2865.0,2823.0,2899.0,3151.0,3039.0,0.695251,-0.154419,-0.701965,0.009766,-1.0,0.0,0.0,7708.0,-1783.0,-500.0,-263.0,88.0,-228.0,237.0,-22.0,-268.0,0.973069,-0.22843,-0.033131,15434.0,-3650.0,-972.0,0.0,11.0,20.0
2869.0,2822.0,2906.0,3151.0,3043.0,0.69519,-0.15448,-0.701965,0.009827,0.0,0.0,0.0,7718.0,-1778.0,-497.0,-252.0,94.0,-224.0,234.0,-13.0,-259.0,0.972963,-0.228582,-0.033233,15498.0,-3532.0,-960.0,3.0,12.0,9.0
2864.0,2822.0,2909.0,3152.0,3043.0,0.695129,-0.154541,-0.702026,0.009888,-1.0,0.0,0.0,7727.0,-1779.0,-494.0,-243.0,94.0,-220.0,231.0,-10.0,-250.0,0.972942,-0.228735,-0.033421,15494.0,-3562.0,-940.0,-1.0,14.0,11.0
2865.0,2823.0,2908.0,3153.0,3035.0,0.695129,-0.154663,-0.702026,0.009827,-1.0,0.0,0.0,7719.0,-1787.0,-492.0,-251.0,87.0,-217.0,226.0,-18.0,-256.0,0.972959,-0.228819,-0.03346,15368.0,-3684.0,-1026.0,-12.0,18.0,10.0
2867.0,2819.0,2903.0,3151.0,3045.0,0.695068,-0.154785,-0.702026,0.009827,-1.0,0.0,0.0,7703.0,-1803.0,-499.0,-266.0,72.0,-223.0,229.0,-37.0,-267.0,0.972871,-0.22897,-0.033583,15310.0,-3672.0,-1062.0,-7.0,15.0,12.0
2863.0,2825.0,2895.0,3147.0,3047.0,0.695007,-0.154907,-0.702087,0.009888,0.0,0.0,0.0,7712.0,-1817.0,-505.0,-257.0,60.0,-228.0,231.0,-48.0,-256.0,0.972848,-0.229207,-0.03379,15476.0,-3640.0,-1072.0,4.0,12.0,8.0
2863.0,2828.0,2905.0,3157.0,3055.0,0.694946,-0.154907,-0.702087,0.009949,0.0,0.0,0.0,7721.0,-1814.0,-505.0,-247.0,64.0,-227.0,231.0,-41.0,-247.0,0.972744,-0.229274,-0.033874,15510.0,-3614.0,-972.0,5.0,15.0,4.0
2866.0,2829.0,2915.0,3153.0,3051.0,0.694946,-0.154968,-0.702148,0.009888,-1.0,0.0,0.0,7717.0,-1803.0,-490.0,-252.0,75.0,-211.0,218.0,-29.0,-255.0,0.972846,-0.229274,-0.033979,15446.0,-3614.0,-898.0,-6.0,12.0,4.0
2863.0,2815.0,2896.0,3151.0,3047.0,0.694885,-0.155029,-0.702148,0.009888,-1.0,0.0,0.0,7726.0,-1805.0,-476.0,-242.0,73.0,-196.0,203.0,-26.0,-245.0,0.972759,-0.22934,-0.034083,15512.0,-3604.0,-834.0,-2.0,10.0,5.0
2865.0,2819.0,2911.0,3155.0,3043.0,0.694885,-0.155029,-0.702148,0.009888,0.0,0.0,0.0,7720.0,-1795.0,-453.0,-248.0,83.0,-173.0,182.0,-13.0,-254.0,0.972759,-0.22934,-0.034083,15408.0,-3518.0,-860.0,4.0,10.0,4.0
2864.0,2826.0,2897.0,3159.0,3051.0,0.694824,-0.155029,-0.702209,0.009888,-1.0,0.0,0.0,7724.0,-1778.0,-447.0,-244.0,100.0,-166.0,179.0,5.0,-254.0,0.972759,-0.229323,-0.034254,15516.0,-3472.0,-864.0,-4.0,5.0,3.0
2871.0,2819.0,2913.0,3149.0,3067.0,0.694824,-0.15509,-0.702209,0.009766,-1.0,0.0,0.0,7722.0,-1788.0,-450.0,-247.0,89.0,-169.0,180.0,-6.0,-254.0,0.972795,-0.229236,-0.034275,15326.0,-3668.0,-968.0,-5.0,13.0,6.0
35.0,-289.0,0.967925,-0.136552,0.210922,15246.0,-2062.0,3320.0,40.0,-14.0,3.0,,,,,,,,,,,,,,,,,,,
2867.0,2819.0,2907.0,3155.0,3047.0,0.777832,-0.102417,-0.619812,-0.018494,1.0,-1.0,0.0,7638.0,-1024.0,1686.0,-291.0,93.0,-40.0,-14.0,55.0,-302.0,0.968007,-0.136401,0.210709,15250.0,-1920.0,3356.0,33.0,-20.0,8.0
2870.0,2827.0,2913.0,3139.0,3047.0,0.77771,-0.102356,-0.619934,-0.01825,0.0,-1.0,1.0,7656.0,-1031.0,1677.0,-273.0,87.0,-46.0,-5.0,49.0,-285.0,0.967994,-0.13658,0.210371,15324.0,-2086.0,3254.0,17.0,-17.0,23.0
2864.0,2815.0,2901.0,3152.0,3043.0,0.777649,-0.102356,-0.619995,-0.018066,0.0,-1.0,1.0,7658.0,-1023.0,1678.0,-271.0,97.0,-43.0,-6.0,60.0,-284.0,0.967975,-0.136792,0.210194,15332.0,-1974.0,3368.0,5.0,-14.0,27.0
2864.0,2821.0,2903.0,3151.0,3039.0,0.777588,-0.102661,-0.620056,-0.017944,-1.0,-1.0,1.0,7636.0,-1031.0,1645.0,-293.0,94.0,-74.0,18.0,49.0,-312.0,0.967981,-0.137403,0.209956,15144.0,-2158.0,3140.0,-20.0,-6.0,32.0
2867.0,2827.0,2907.0,3151.0,3047.0,0.777527,-0.102783,-0.620117,-0.017883,-1.0,-1.0,1.0,7621.0,-1050.0,1626.0,-308.0,77.0,-92.0,29.0,27.0,-328.0,0.967992,-0.137654,0.209758,15138.0,-2220.0,3136.0,-15.0,-9.0,29.0
2864.0,2822.0,2907.0,3151.0,3047.0,0.777405,-0.103027,-0.620239,-0.017761,-1.0,-1.0,0.0,7596.0,-1051.0,1603.0,-333.0,80.0,-112.0,43.0,24.0,-356.0,0.968014,-0.138155,0.209362,15150.0,-2060.0,3170.0,-7.0,-11.0,15.0
2866.0,2819.0,2907.0,3147.0,3043.0,0.777405,-0.103088,-0.6203,-0.017761,-1.0,-1.0,0.0,7607.0,-1044.0,1606.0,-323.0,88.0,-108.0,43.0,34.0,-347.0,0.968111,-0.138248,0.209274,15292.0,-2044.0,3218.0,-9.0,-10.0,19.0
2867.0,2819.0,2903.0,3151.0,3035.0,0.777344,-0.103271,-0.620239,-0.0177,-1.0,0.0,0.0,7627.0,-1085.0,1611.0,-302.0,50.0,-102.0,36.0,0.0,-320.0,0.967934,-0.138598,0.209215,15244.0,-2322.0,3172.0,-5.0,8.0,8.0
2867.0,2823.0,2911.0,3151.0,3039.0,0.777344,-0.103333,-0.620239,-0.017639,0.0,0.0,0.0,7629.0,-1097.0,1617.0,-300.0,39.0,-96.0,29.0,-9.0,-315.0,0.967924,-0.138769,0.2092,15278.0,-2194.0,3272.0,1.0,4.0,8.0
2867.0,2818.0,2903.0,3131.0,3045.0,0.777405,-0.103455,-0.620178,-0.017639,-1.0,0.0,0.0,7662.0,-1076.0,1660.0,-267.0,62.0,-54.0,0.0,23.0,-278.0,0.967909,-0.138973,0.209345,15458.0,-2138.0,3528.0,-20.0,4.0,12.0
2864.0,2820.0,2901.0,3151.0,3043.0,0.777405,-0.103516,-0.620178,-0.0177,-1.0,0.0,0.0,7655.0,-1085.0,1662.0,-274.0,53.0,-52.0,-4.0,14.0,-283.0,0.967924,-0.138993,0.209335,15282.0,-2286.0,3442.0,-20.0,8.0,12.0
2863.0,2815.0,2899.0,3153.0,3039.0,0.777466,-0.103699,-0.620056,-0.017639,-1.0,0.0,0.0,7641.0,-1075.0,1666.0,-287.0,66.0,-50.0,-7.0,26.0,-297.0,0.967803,-0.13937,0.209541,15382.0,-2040.0,3360.0,-9.0,1.0,8.0
2870.0,2822.0,2911.0,3151.0,3047.0,0.777466,-0.10376,-0.620056,-0.0177,-1.0,0.0,0.0,7653.0,-1065.0,1660.0,-275.0,76.0,-56.0,2.0,36.0,-288.0,0.967818,-0.139389,0.209531,15368.0,-2124.0,3290.0,-20.0,6.0,9.0
2865.0,2821.0,2909.0,3153.0,3047.0,0.777466,-0.104004,-0.619995,-0.017883,-1.0,0.0,-1.0,7642.0,-1091.0,1651.0,-285.0,52.0,-65.0,4.0,10.0,-296.0,0.96777,-0.139544,0.209562,15250.0,-2354.0,3250.0,-22.0,8.0,-3.0
2864.0,2817.0,2899.0,3143.0,3039.0,0.777527,-0.104004,-0.619995,-0.017883,-1.0,0.0,-1.0,7639.0,-1127.0,1649.0,-289.0,16.0,-68.0,1.0,-26.0,-296.0,0.967846,-0.139557,0.209657,15274.0,-2418.0,3292.0,0.0,8.0,-9.0
2866.0,2819.0,2898.0,3151.0,3043.0,0.777527,-0.103882,-0.619934,-0.017944,-1.0,-1.0,-1.0,7618.0,-1068.0,1648.0,-309.0,73.0,-70.0,7.0,27.0,-323.0,0.967759,-0.139293,0.20976,15206.0,-1976.0,3304.0,-4.0,-2.0,-1.0
2864.0,2823.0,2907.0,3153.0,3051.0,0.777466,-0.103943,-0.619995,-0.018005,-1.0,-1.0,0.0,7625.0,-1051.0,1655.0,-303.0,90.0,-61.0,2.0,46.0,-318.0,0.967793,-0.139298,0.209579,15330.0,-2020.0,3362.0,-20.0,-10.0,7.0
2866.0,2823.0,2909.0,3151.0,3047.0,0.777466,-0.104187,-0.619995,-0.018127,-2.0,-1.0,0.0,7649.0,-1036.0,1669.0,-279.0,106.0,-47.0,-2.0,66.0,-294.0,0.967827,-0.139526,0.209533,15346.0,-2078.0,3394.0,-32.0,0.0,3.0
2865.0,2817.0,2903.0,3155.0,3047.0,0.777466,-0.104248,-0.619995,-0.018311,-2.0,0.0,-1.0,7646.0,-1048.0,1683.0,-282.0,93.0,-33.0,-18.0,56.0,-292.0,0.967868,-0.139394,0.209527,15248.0,-2192.0,3472.0,-30.0,5.0,-7.0
2867.0,2817.0,2897.0,3151.0,3043.0,0.777405,-0.10437,-0.619995,-0.018433,-1.0,-1.0,-1.0,7641.0,-1084.0,1685.0,-287.0,58.0,-30.0,-28.0,22.0,-292.0,0.967822,-0.139419,0.209411,15358.0,-2188.0,3424.0,-5.0,-15.0,-8.0
2865.0,2823.0,2905.0,3154.0,3051.0,0.777405,-0.104309,-0.620056,-0.018494,0.0,-1.0,-1.0,7665.0,-1083.0,1704.0,-264.0,57.0,-10.0,-42.0,27.0,-265.0,0.967927,-0.139247,0.20935,15486.0,-2144.0,3528.0,2.0,-12.0,-13.0
2864.0,2827.0,2907.0,3151.0,3043.0,0.777405,-0.104126,-0.620056,-0.018616,-1.0,-1.0,-1.0,7655.0,-1076.0,1721.0,-274.0,61.0,5.0,-58.0,33.0,-272.0,0.967946,-0.13881,0.209393,15176.0,-2134.0,3480.0,0.0,-10.0,-12.0
2865.0,2821.0,2903.0,3149.0,3043.0,0.777344,-0.104126,-0.620117,-0.018677,-1.0,-2.0,-1.0,7641.0,-1069.0,1721.0,-288.0,67.0,7.0,-62.0,37.0,-286.0,0.967978,-0.13872,0.209225,15250.0,-2126.0,3394.0,-7.0,-28.0,-8.0
2866.0,2821.0,2907.0,3151.0,3063.0,0.7771,-0.104126,-0.620361,-0.018677,0.0,-2.0,-1.0,7666.0,-1096.0,1676.0,-264.0,39.0,-32.0,-23.0,5.0,-267.0,0.968055,-0.13866,0.208542,15428.0,-2302.0,3230.0,3.0,-28.0,-4.0
2867.0,2823.0,2911.0,3155.0,3051.0,0.777039,-0.104065,-0.620483,-0.018677,0.0,-1.0,-1.0,7665.0,-1100.0,1662.0,-266.0,34.0,-44.0,-13.0,-1.0,-271.0,0.968166,-0.138548,0.208309,15338.0,-2198.0,3256.0,7.0,-22.0,-9.0
2867.0,2818.0,2906.0,3152.0,3046.0,0.776917,-0.104004,-0.620667,-0.018738,-1.0,-1.0,-1.0,7660.0,-1093.0,1618.0,-272.0,40.0,-85.0,25.0,-3.0,-286.0,0.96831,-0.138345,0.207907,15248.0,-2154.0,3094.0,-4.0,-10.0,-11.0
2865.0,2821.0,2910.0,3152.0,3046.0,0.776855,-0.104004,-0.620728,-0.018799,-1.0,-1.0,-1.0,7647.0,-1087.0,1594.0,-285.0,45.0,-107.0,44.0,-4.0,-304.0,0.968341,-0.138254,0.207738,15188.0,-2118.0,3036.0,-2.0,-9.0,-8.0
2864.0,2823.0,2903.0,3155.0,3047.0,0.776733,-0.103943,-0.620911,-0.01886,-1.0,-1.0,-1.0,7628.0,-1057.0,1583.0,-305.0,73.0,-115.0,52.0,19.0,-329.0,0.968485,-0.138051,0.207336,15274.0,-2006.0,3172.0,-8.0,-9.0,-3.0
2864.0,2829.0,2911.0,3153.0,3047.0,0.776672,-0.104004,-0.620911,-0.018921,-1.0,-1.0,0.0,7632.0,-1059.0,1580.0,-301.0,71.0,-117.0,54.0,17.0,-325.0,0.968424,-0.138058,0.207231,15292.0,-2134.0,3132.0,-6.0,-6.0,2.0
2863.0,2822.0,2903.0,3153.0,3047.0,0.776672,-0.103943,-0.620972,-0.018921,0.0,0.0,-1.0,7637.0,-1076.0,1567.0,-297.0,54.0,-130.0,65.0,0.0,-322.0,0.968516,-0.13796,0.207168,15246.0,-2222.0,3104.0,9.0,5.0,-3.0
2866.0,2823.0,2903.0,3154.0,3047.0,0.776672,-0.103943,-0.620972,-0.01886,0.0,-1.0,0.0,7622.0,-1064.0,1570.0,-311.0,66.0,-127.0,61.0,10.0,-336.0,0.968504,-0.138036,0.207166,15164.0,-2012.0,3178.0,10.0,0.0,3.0
2864.0,2822.0,2903.0,3151.0,3039.0,0.77655,-0.104004,-0.621094,-0.01886,-1.0,-1.0,0.0,7641.0,-1070.0,1590.0,-293.0,61.0,-104.0,42.0,11.0,-313.0,0.968544,-0.138101,0.206812,15356.0,-2274.0,3228.0,-11.0,-9.0,9.0
2867.0,2821.0,2907.0,3153.0,3047.0,0.77655,-0.104004,-0.621094,-0.01886,-1.0,-1.0,0.0,7654.0,-1093.0,1595.0,-280.0,38.0,-99.0,37.0,-9.0,-296.0,0.968544,-0.138101,0.206812,15384.0,-2316.0,3232.0,0.0,-5.0,0.0
2866.0,2827.0,2907.0,3155.0,3047.0,0.77655,-0.103943,-0.621094,-0.01886,0.0,0.0,-1.0,7672.0,-1079.0,1621.0,-262.0,51.0,-73.0,18.0,10.0,-275.0,0.968542,-0.138006,0.206825,15322.0,-2026.0,3330.0,6.0,8.0,-7.0
2865.0,2819.0,2903.0,3152.0,3046.0,0.776611,-0.103882,-0.621094,-0.018921,-1.0,0.0,-1.0,7662.0,-1068.0,1630.0,-273.0,61.0,-65.0,9.0,20.0,-286.0,0.968628,-0.137848,0.206934,15256.0,-2082.0,3294.0,-3.0,9.0,-3.0
2865.0,2818.0,2901.0,3151.0,3043.0,0.776672,-0.103882,-0.621033,-0.018982,-1.0,-1.0,-1.0,7645.0,-1071.0,1647.0,-289.0,57.0,-49.0,-9.0,17.0,-297.0,0.968622,-0.137787,0.207107,15278.0,-2194.0,3324.0,-3.0,0.0,-2.0
2869.0,2823.0,2906.0,3153.0,3047.0,0.776672,-0.103882,-0.621033,-0.018982,0.0,0.0,-1.0,7643.0,-1081.0,1645.0,-291.0,47.0,-51.0,-9.0,7.0,-298.0,0.968622,-0.137787,0.207107,15290.0,-2210.0,3266.0,9.0,1.0,-9.0
2867.0,2823.0,2909.0,3155.0,3051.0,0.776733,-0.103516,-0.620972,-0.018921,1.0,0.0,-1.0,7650.0,-1070.0,1641.0,-284.0,54.0,-57.0,-1.0,14.0,-294.0,0.968576,-0.137309,0.207351,15258.0,-1996.0,3312.0,35.0,13.0,-21.0
2867.0,2823.0,2903.0,3149.0,3043.0,0.776733,-0.103333,-0.620972,-0.018982,0.0,0.0,-1.0,7633.0,-1021.0,1647.0,-301.0,100.0,-51.0,-3.0,58.0,-315.0,0.968582,-0.136949,0.207392,15160.0,-1754.0,3338.0,18.0,6.0,-14.0
2864.0,2822.0,2909.0,3151.0,3047.0,0.776733,-0.10321,-0.620972,-0.019104,-1.0,-1.0,0.0,7627.0,-1011.0,1647.0,-307.0,108.0,-52.0,-2.0,65.0,-322.0,0.968602,-0.136608,0.207421,15238.0,-2112.0,3258.0,-4.0,-1.0,2.0
2867.0,2828.0,2906.0,3158.0,3047.0,0.776733,-0.10321,-0.620972,-0.019104,0.0,-1.0,0.0,7629.0,-1027.0,1648.0,-305.0,92.0,-51.0,-6.0,50.0,-318.0,0.968602,-0.136608,0.207421,15278.0,-2152.0,3306.0,8.0,-2.0,1.0
2871.0,2827.0,2903.0,3151.0,3046.0,0.776794,-0.103027,-0.620972,-0.018982,0.0,0.0,0.0,7645.0,-1025.0,1657.0,-290.0,93.0,-43.0,-10.0,54.0,-302.0,0.968646,-0.136488,0.207549,15288.0,-1950.0,3332.0,21.0,6.0,3.0
2866.0,2819.0,2903.0,3152.0,3047.0,0.776855,-0.102966,-0.620911,-0.018921,0.0,0.0,0.0,7659.0,-1009.0,1663.0,-275.0,109.0,-38.0,-9.0,72.0,-289.0,0.968612,-0.136484,0.20773,15428.0,-1922.0,3334.0,5.0,2.0,8.0
2864.0,2819.0,2903.0,3151.0,3047.0,0.776978,-0.103027,-0.620789,-0.018982,-1.0,1.0,0.0,7718.0,-1033.0,1680.0,-216.0,85.0,-24.0,-12.0,57.0,-225.0,0.968589,-0.136532,0.208061,15442.0,-2132.0,3446.0,-8.0,36.0,16.0
2871.0,2823.0,2911.0,3155.0,3047.0,0.7771,-0.103088,-0.620605,-0.018982,-1.0,1.0,0.0,7637.0,-1007.0,1682.0,-296.0,112.0,-25.0,-26.0,75.0,-307.0,0.968458,-0.136659,0.208466,14738.0,-1874.0,3406.0,-16.0,29.0,9.0
2865.0,2823.0,2909.0,3154.0,3047.0,0.777039,-0.103271,-0.620605,-0.019043,-1.0,-2.0,-1.0,7606.0,-1091.0,1699.0,-327.0,30.0,-7.0,-63.0,-4.0,-322.0,0.968402,-0.136856,0.208335,15270.0,-2370.0,3430.0,-1.0,-27.0,-4.0
2864.0,2819.0,2899.0,3151.0,3046.0,0.776978,-0.10321,-0.620728,-0.019043,0.0,-2.0,-1.0,7615.0,-1086.0,1701.0,-319.0,34.0,-3.0,-64.0,1.0,-314.0,0.968514,-0.136743,0.208102,15318.0,-2128.0,3450.0,15.0,-30.0,-12.0
2867.0,2821.0,2903.0,3151.0,3039.0,0.776794,-0.102966,-0.620972,-0.019104,0.0,-2.0,-1.0,7634.0,-1055.0,1707.0,-301.0,61.0,6.0,-64.0,31.0,-298.0,0.968669,-0.136241,0.207567,15250.0,-2036.0,3392.0,1.0,-35.0,-12.0
2866.0,2826.0,2909.0,3153.0,3047.0,0.776672,-0.102966,-0.621155,-0.019165,-1.0,-3.0,-1.0,7624.0,-1046.0,1702.0,-312.0,69.0,5.0,-64.0,37.0,-310.0,0.968814,-0.136133,0.207152,15178.0,-2026.0,3380.0,-8.0,-48.0,-5.0
2865.0,2822.0,2903.0,3153.0,3047.0,0.776245,-0.103149,-0.621582,-0.019165,-2.0,-3.0,0.0,7607.0,-1008.0,1698.0,-330.0,108.0,11.0,-68.0,75.0,-332.0,0.968954,-0.136313,0.20592,15246.0,-1830.0,3404.0,-25.0,-68.0,20.0
2865.0,2819.0,2899.0,3151.0,3045.0,0.776062,-0.103333,-0.621887,-0.019165,-2.0,-4.0,1.0,7631.0,-983.0,1695.0,-308.0,135.0,13.0,-60.0,103.0,-314.0,0.969207,-0.136548,0.205218,15422.0,-1814.0,3392.0,-35.0,-71.0,28.0
2866.0,2822.0,2901.0,3152.0,3043.0,0.775513,-0.103943,-0.622375,-0.019287,-4.0,-4.0,2.0,7640.0,-927.0,1669.0,-300.0,197.0,0.0,-35.0,162.0,-317.0,0.96933,-0.13721,0.203637,15392.0,-1806.0,3290.0,-85.0,-78.0,53.0
2863.0,2823.0,2907.0,3151.0,3046.0,0.775208,-0.104492,-0.622681,-0.019348,-4.0,-4.0,2.0,7672.0,-970.0,1645.0,-269.0,159.0,-15.0,-20.0,125.0,-285.0,0.969457,-0.137911,0.202671,15544.0,-2294.0,3152.0,-90.0,-73.0,53.0
2865.0,2823.0,2911.0,3155.0,3047.0,0.77478,-0.105164,-0.623108,-0.019226,-1.0,-2.0,0.0,7721.0,-1083.0,1589.0,-221.0,55.0,-60.0,17.0,20.0,-234.0,0.969587,-0.138997,0.201331,15516.0,-2448.0,3010.0,-15.0,-42.0,19.0
2865.0,2822.0,2901.0,3155.0,3047.0,0.774658,-0.105164,-0.623291,-0.019165,0.0,-2.0,-1.0,7719.0,-1114.0,1571.0,-224.0,25.0,-74.0,25.0,-12.0,-235.0,0.969706,-0.139041,0.200912,15414.0,-2440.0,3044.0,16.0,-31.0,-1.0
2864.0,2821.0,2911.0,3151.0,3047.0,0.774475,-0.104797,-0.623596,-0.018921,2.0,-2.0,-1.0,7688.0,-1104.0,1551.0,-257.0,32.0,-89.0,33.0,-11.0,-271.0,0.969885,-0.138728,0.200315,15272.0,-1976.0,3130.0,49.0,-28.0,-20.0
2865.0,2823.0,2908.0,3151.0,3043.0,0.774414,-0.104614,-0.623718,-0.01886,1.0,-2.0,-1.0,7675.0,-1049.0,1553.0,-271.0,85.0,-86.0,36.0,39.0,-291.0,0.969978,-0.138503,0.200104,15272.0,-1754.0,3094.0,27.0,-28.0,-6.0
2869.0,2821.0,2905.0,3151.0,3043.0,0.77417,-0.104675,-0.623962,-0.01886,-2.0,-1.0,1.0,7665.0,-1010.0,1529.0,-281.0,124.0,-104.0,57.0,73.0,-310.0,0.970054,-0.138537,0.199409,15252.0,-1974.0,2934.0,-25.0,-21.0,23.0
2863.0,2820.0,2907.0,3152.0,3047.0,0.774048,-0.104858,-0.624084,-0.018921,-2.0,-1.0,1.0,7655.0,-1017.0,1520.0,-292.0,119.0,-110.0,60.0,66.0,-321.0,0.970111,-0.138714,0.199031,15262.0,-2118.0,2992.0,-43.0,-17.0,25.0
2867.0,2823.0,2909.0,3151.0,3043.0,0.773926,-0.105469,-0.624146,-0.019043,-2.0,0.0,0.0,7661.0,-1088.0,1491.0,-286.0,54.0,-136.0,76.0,-1.0,-311.0,0.970101,-0.139479,0.198642,15340.0,-2400.0,2916.0,-42.0,5.0,20.0
2867.0,2805.0,2903.0,3152.0,3047.0,0.773926,-0.105652,-0.624084,-0.019043,-2.0,0.0,0.0,7651.0,-1115.0,1481.0,-295.0,29.0,-146.0,80.0,-29.0,-319.0,0.970014,-0.139765,0.19868,15218.0,-2380.0,2894.0,-27.0,15.0,12.0
2867.0,2827.0,2909.0,3153.0,3051.0,0.773987,-0.105835,-0.624023,-0.019043,0.0,1.0,-1.0,7629.0,-1176.0,1475.0,-317.0,-28.0,-153.0,72.0,-88.0,-333.0,0.970003,-0.140063,0.198812,15160.0,-2490.0,2974.0,9.0,23.0,-4.0
2866.0,2818.0,2901.0,3151.0,3047.0,0.774048,-0.105774,-0.623901,-0.018982,0.0,0.0,-1.0,7631.0,-1164.0,1495.0,-314.0,-16.0,-135.0,57.0,-73.0,-329.0,0.969875,-0.140062,0.199069,15314.0,-2144.0,3112.0,21.0,22.0,-6.0
2869.0,2823.0,2899.0,3151.0,3047.0,0.774231,-0.105774,-0.623718,-0.019043,-1.0,1.0,0.0,7659.0,-1098.0,1517.0,-285.0,49.0,-117.0,57.0,-3.0,-306.0,0.969832,-0.140032,0.199584,15328.0,-2096.0,3058.0,-20.0,34.0,10.0
2863.0,2818.0,2915.0,3153.0,3047.0,0.774353,-0.105896,-0.623535,-0.019104,-2.0,1.0,0.0,7646.0,-1087.0,1528.0,-297.0,61.0,-110.0,49.0,8.0,-318.0,0.969719,-0.140178,0.199978,15180.0,-2124.0,3130.0,-31.0,36.0,18.0
2866.0,2821.0,2903.0,3151.0,3053.0,0.774475,-0.106262,-0.623291,-0.019226,-2.0,0.0,0.0,7623.0,-1106.0,1541.0,-319.0,46.0,-100.0,32.0,-6.0,-335.0,0.969533,-0.140628,0.200398,15266.0,-2334.0,3122.0,-25.0,21.0,8.0
2866.0,2821.0,2901.0,3151.0,3043.0,0.774536,-0.106323,-0.62323,-0.019287,0.0,1.0,-1.0,7629.0,-1128.0,1546.0,-313.0,24.0,-96.0,26.0,-26.0,-326.0,0.96953,-0.140662,0.200558,15306.0,-2394.0,3114.0,3.0,25.0,-9.0
2865.0,2821.0,2910.0,3151.0,3047.0,0.77478,-0.105835,-0.623047,-0.019165,2.0,1.0,-2.0,7645.0,-1129.0,1581.0,-297.0,18.0,-67.0,1.0,-25.0,-303.0,0.969506,-0.140116,0.201263,15398.0,-2118.0,3320.0,61.0,24.0,-32.0
2869.0,2823.0,2911.0,3157.0,3053.0,0.774902,-0.105408,-0.622925,-0.019104,2.0,1.0,-2.0,7662.0,-1078.0,1620.0,-279.0,65.0,-32.0,-21.0,29.0,-285.0,0.969439,-0.139561,0.201693,15416.0,-1788.0,3494.0,60.0,25.0,-30.0
2865.0,2823.0,2906.0,3153.0,3043.0,0.775146,-0.10498,-0.622742,-0.019287,-1.0,0.0,-1.0,7690.0,-997.0,1685.0,-251.0,139.0,26.0,-58.0,115.0,-257.0,0.969482,-0.138729,0.202396,15432.0,-1832.0,3524.0,-7.0,15.0,-5.0
2864.0,2819.0,2903.0,3143.0,3050.0,0.775208,-0.105042,-0.62262,-0.019409,-2.0,0.0,0.0,7687.0,-983.0,1705.0,-254.0,153.0,45.0,-75.0,132.0,-258.0,0.969396,-0.138689,0.202635,15384.0,-1954.0,3524.0,-34.0,3.0,6.0
2865.0,2821.0,2903.0,3151.0,3047.0,0.775208,-0.105347,-0.622559,-0.019653,-2.0,0.0,-1.0,7699.0,-1062.0,1705.0,-242.0,75.0,44.0,-84.0,57.0,-236.0,0.969365,-0.13886,0.202656,15414.0,-2448.0,3390.0,-24.0,1.0,-2.0
2865.0,2823.0,2906.0,3153.0,3043.0,0.775208,-0.105347,-0.622559,-0.019653,0.0,-1.0,-1.0,7683.0,-1090.0,1697.0,-258.0,47.0,36.0,-84.0,26.0,-249.0,0.969365,-0.13886,0.202656,15268.0,-2292.0,3358.0,4.0,-2.0,-11.0
2866.0,2823.0,2907.0,3151.0,3051.0,0.775208,-0.105103,-0.622559,-0.019653,0.0,-1.0,-1.0,7651.0,-1093.0,1681.0,-289.0,41.0,20.0,-77.0,14.0,-281.0,0.969355,-0.138482,0.202707,15180.0,-2168.0,3302.0,20.0,-18.0,-14.0
2871.0,2821.0,2906.0,3152.0,3039.0,0.775146,-0.10498,-0.622681,-0.019653,0.0,-2.0,-1.0,7636.0,-1094.0,1671.0,-305.0,38.0,12.0,-73.0,8.0,-298.0,0.969464,-0.138275,0.202486,15226.0,-2206.0,3258.0,17.0,-30.0,-13.0
2864.0,2819.0,2908.0,3151.0,3051.0,0.774963,-0.104736,-0.622986,-0.019592,1.0,-2.0,-1.0,7651.0,-1091.0,1657.0,-292.0,38.0,3.0,-61.0,8.0,-287.0,0.969686,-0.137922,0.201871,15326.0,-2142.0,3266.0,28.0,-31.0,-19.0
2866.0,2827.0,2907.0,3153.0,3053.0,0.774902,-0.104553,-0.623047,-0.019592,1.0,-2.0,-1.0,7649.0,-1069.0,1650.0,-294.0,58.0,-2.0,-54.0,26.0,-293.0,0.969698,-0.137623,0.201739,15270.0,-1996.0,3254.0,24.0,-27.0,-14.0
2867.0,2826.0,2906.0,3153.0,3063.0,0.774658,-0.104492,-0.623352,-0.019531,-1.0,-2.0,0.0,7642.0,-1042.0,1633.0,-303.0,84.0,-13.0,-41.0,49.0,-308.0,0.969851,-0.137542,0.20099,15264.0,-2102.0,3242.0,-14.0,-42.0,13.0
2865.0,2819.0,2871.0,3151.0,3051.0,0.774536,-0.104614,-0.623535,-0.019531,-1.0,-3.0,0.0,7643.0,-1064.0,1628.0,-303.0,64.0,-14.0,-43.0,29.0,-305.0,0.969988,-0.137698,0.200547,15324.0,-2290.0,3236.0,-18.0,-46.0,15.0
2866.0,2825.0,2903.0,3152.0,3045.0,0.774292,-0.104675,-0.62384,-0.01947,0.0,-2.0,-1.0,7684.0,-1104.0,1617.0,-263.0,24.0,-19.0,-35.0,-6.0,-262.0,0.970145,-0.137806,0.199773,15498.0,-2240.0,3214.0,7.0,-34.0,-9.0
2869.0,2827.0,2903.0,3154.0,3047.0,0.77417,-0.104614,-0.623962,-0.01947,0.0,-2.0,-1.0,7692.0,-1082.0,1615.0,-255.0,45.0,-18.0,-31.0,15.0,-257.0,0.97018,-0.137681,0.199445,15386.0,-2010.0,3224.0,6.0,-23.0,-18.0
2864.0,2821.0,2903.0,3155.0,3047.0,0.774048,-0.104492,-0.624146,-0.019714,-1.0,-1.0,-1.0,7686.0,-1075.0,1595.0,-263.0,48.0,-35.0,-16.0,14.0,-268.0,0.970357,-0.137155,0.199062,15364.0,-2190.0,3116.0,-7.0,-21.0,-18.0
2869.0,2823.0,2903.0,3149.0,3051.0,0.773987,-0.104431,-0.624207,-0.019775,0.0,-1.0,-1.0,7675.0,-1076.0,1576.0,-274.0,46.0,-53.0,-1.0,7.0,-282.0,0.970386,-0.136969,0.198907,15290.0,-2146.0,3032.0,6.0,-17.0,-17.0
2869.0,2822.0,2907.0,3151.0,3047.0,0.773865,-0.104187,-0.62439,-0.019775,0.0,-1.0,-1.0,7662.0,-1041.0,1552.0,-288.0,77.0,-74.0,20.0,32.0,-304.0,0.970507,-0.136558,0.19854,15204.0,-1862.0,3070.0,19.0,-7.0,-12.0
2867.0,2827.0,2911.0,3159.0,3051.0,0.773804,-0.104065,-0.624512,-0.019836,-1.0,-1.0,-1.0,7639.0,-1000.0,1545.0,-312.0,116.0,-79.0,26.0,67.0,-334.0,0.970628,-0.136276,0.198321,15202.0,-1794.0,3098.0,-6.0,-19.0,-6.0
2866.0,2826.0,2907.0,3151.0,3054.0,0.773621,-0.104248,-0.624695,-0.02002,-2.0,-1.0,0.0,7653.0,-1003.0,1523.0,-299.0,113.0,-97.0,46.0,62.0,-324.0,0.970728,-0.136285,0.197778,15324.0,-2042.0,2976.0,-27.0,-18.0,7.0
2866.0,2821.0,2903.0,3151.0,3047.0,0.773499,-0.10437,-0.624817,-0.020081,-2.0,-1.0,0.0,7661.0,-1018.0,1502.0,-291.0,99.0,-115.0,63.0,46.0,-318.0,0.970782,-0.136367,0.197414,15404.0,-2146.0,2902.0,-24.0,-12.0,2.0
2868.0,2825.0,2902.0,3153.0,3047.0,0.773499,-0.104309,-0.624817,-0.020203,0.0,1.0,-1.0,7675.0,-1053.0,1471.0,-277.0,62.0,-146.0,90.0,5.0,-306.0,0.970805,-0.13612,0.197432,15272.0,-2104.0,2914.0,10.0,23.0,-20.0
2869.0,2827.0,2907.0,3153.0,3047.0,0.77356,-0.104187,-0.624756,-0.020325,0.0,0.0,-2.0,7643.0,-1049.0,1474.0,-309.0,63.0,-145.0,82.0,4.0,-337.0,0.970807,-0.135794,0.197633,15104.0,-2088.0,2964.0,10.0,21.0,-26.0
2867.0,2823.0,2911.0,3153.0,3047.0,0.773621,-0.104004,-0.624756,-0.020386,0.0,0.0,-1.0,7632.0,-1032.0,1495.0,-321.0,77.0,-125.0,62.0,20.0,-346.0,0.970888,-0.135447,0.197768,15312.0,-1992.0,3026.0,2.0,3.0,-5.0
2871.0,2823.0,2902.0,3151.0,3071.0,0.773621,-0.104004,-0.624756,-0.020447,-1.0,0.0,-1.0,7654.0,-1022.0,1502.0,-299.0,86.0,-118.0,62.0,32.0,-325.0,0.970901,-0.135371,0.19777,15438.0,-2012.0,3058.0,-4.0,3.0,-1.0
2866.0,2825.0,2907.0,3151.0,3047.0,0.773621,-0.103943,-0.624695,-0.020508,0.0,0.0,-1.0,7671.0,-1049.0,1523.0,-281.0,58.0,-97.0,41.0,11.0,-299.0,0.970817,-0.135202,0.197862,15312.0,-2150.0,3104.0,10.0,14.0,-8.0
2864.0,2823.0,2913.0,3152.0,3043.0,0.773682,-0.103882,-0.624634,-0.020508,0.0,0.0,-1.0,7668.0,-1043.0,1537.0,-284.0,63.0,-85.0,29.0,17.0,-301.0,0.970796,-0.135123,0.198045,15324.0,-2032.0,3186.0,15.0,12.0,-11.0
2870.0,2823.0,2902.0,3153.0,3047.0,0.773804,-0.103638,-0.624573,-0.020508,0.0,0.0,-1.0,7678.0,-1023.0,1566.0,-275.0,81.0,-58.0,8.0,41.0,-289.0,0.970844,-0.134773,0.198361,15390.0,-1996.0,3208.0,14.0,16.0,-8.0
2866.0,2823.0,2903.0,3151.0,3051.0,0.773865,-0.103516,-0.624451,-0.020508,0.0,0.0,-1.0,7666.0,-1010.0,1582.0,-286.0,92.0,-45.0,-4.0,53.0,-298.0,0.970726,-0.134602,0.198633,15210.0,-1910.0,3226.0,12.0,15.0,-2.0
2869.0,2823.0,2896.0,3150.0,3039.0,0.773926,-0.103516,-0.624451,-0.020569,-1.0,-1.0,0.0,7635.0,-971.0,1613.0,-317.0,131.0,-14.0,-34.0,94.0,-328.0,0.970815,-0.134538,0.19873,15276.0,-1892.0,3234.0,-22.0,-12.0,12.0
2865.0,2820.0,2894.0,3151.0,3039.0,0.773865,-0.103699,-0.624451,-0.02063,-2.0,-1.0,0.0,7659.0,-989.0,1618.0,-293.0,114.0,-8.0,-38.0,81.0,-301.0,0.970759,-0.134733,0.1986,15496.0,-2146.0,3282.0,-31.0,-15.0,11.0
2867.0,2828.0,2907.0,3155.0,3053.0,0.773865,-0.103821,-0.624451,-0.020691,-1.0,-1.0,-1.0,7665.0,-1035.0,1634.0,-287.0,69.0,7.0,-58.0,40.0,-286.0,0.970777,-0.134846,0.198577,15290.0,-2108.0,3292.0,-5.0,-2.0,-2.0
2866.0,2821.0,2911.0,3149.0,3045.0,0.773865,-0.103821,-0.624451,-0.020752,-1.0,-1.0,-1.0,7668.0,-1046.0,1641.0,-284.0,58.0,14.0,-66.0,31.0,-280.0,0.97079,-0.134769,0.19858,15412.0,-2176.0,3340.0,-3.0,-10.0,-8.0
2871.0,2823.0,2903.0,3151.0,3047.0,0.773865,-0.103699,-0.624451,-0.020813,0.0,0.0,-1.0,7690.0,-1072.0,1631.0,-262.0,29.0,4.0,-56.0,3.0,-257.0,0.970797,-0.134504,0.198608,15334.0,-2156.0,3226.0,7.0,3.0,-15.0
2870.0,2823.0,2897.0,3155.0,3031.0,0.773865,-0.103638,-0.624451,-0.020874,0.0,-1.0,-1.0,7675.0,-1073.0,1630.0,-277.0,27.0,2.0,-58.0,0.0,-272.0,0.970807,-0.134334,0.198623,15252.0,-2160.0,3254.0,2.0,-4.0,-20.0
2865.0,2825.0,2899.0,3152.0,3039.0,0.773865,-0.103577,-0.624512,-0.020996,-1.0,-1.0,-1.0,7667.0,-1080.0,1634.0,-286.0,18.0,7.0,-66.0,-8.0,-278.0,0.970925,-0.134084,0.198564,15358.0,-2148.0,3282.0,-6.0,-14.0,-14.0
2863.0,2823.0,2903.0,3143.0,3055.0,0.773804,-0.103577,-0.624512,-0.021057,0.0,-1.0,-1.0,7665.0,-1093.0,1626.0,-288.0,4.0,0.0,-62.0,-23.0,-280.0,0.970861,-0.133995,0.198473,15294.0,-2244.0,3188.0,1.0,-12.0,-16.0
2866.0,2825.0,2900.0,3159.0,3043.0,0.773743,-0.103394,-0.624634,-0.021118,0.0,-1.0,-1.0,7682.0,-1078.0,1611.0,-272.0,16.0,-13.0,-44.0,-13.0,-268.0,0.970979,-0.133618,0.198266,15456.0,-2042.0,3194.0,10.0,-11.0,-21.0
2867.0,2822.0,2907.0,3153.0,3055.0,0.773743,-0.103271,-0.624695,-0.021179,-1.0,-1.0,-1.0,7682.0,-1043.0,1600.0,-273.0,49.0,-23.0,-29.0,17.0,-276.0,0.97108,-0.13335,0.198218,15346.0,-1880.0,3166.0,0.0,-7.0,-17.0
2871.0,2829.0,2909.0,3152.0,3039.0,0.773682,-0.10321,-0.624756,-0.021423,-1.0,-1.0,-1.0,7670.0,-1053.0,1577.0,-285.0,36.0,-45.0,-13.0,0.0,-290.0,0.971147,-0.132935,0.19807,15318.0,-2232.0,3066.0,-8.0,-6.0,-19.0
2871.0,2815.0,2901.0,3152.0,3039.0,0.773621,-0.103149,-0.624817,-0.021484,0.0,-1.0,-1.0,7666.0,-1055.0,1566.0,-289.0,32.0,-55.0,-4.0,-6.0,-295.0,0.971175,-0.132749,0.197915,15318.0,-2102.0,3110.0,3.0,-2.0,-18.0
2869.0,2822.0,2909.0,3149.0,3054.0,0.773621,-0.102966,-0.624878,-0.021606,-1.0,-1.0,-1.0,7653.0,-1036.0,1559.0,-303.0,47.0,-62.0,1.0,5.0,-312.0,0.971286,-0.132311,0.197881,15358.0,-2012.0,3132.0,0.0,-9.0,-17.0
2868.0,2817.0,2911.0,3159.0,3047.0,0.77356,-0.102905,-0.624939,-0.021667,-1.0,-1.0,-1.0,7662.0,-1023.0,1543.0,-295.0,59.0,-76.0,18.0,15.0,-309.0,0.971314,-0.132125,0.197726,15404.0,-1974.0,3018.0,0.0,-8.0,-12.0
2871.0,2827.0,2903.0,3155.0,3051.0,0.773499,-0.102783,-0.625061,-0.021912,-1.0,-1.0,-1.0,7665.0,-980.0,1528.0,-293.0,98.0,-90.0,38.0,51.0,-315.0,0.971472,-0.131613,0.197514,15350.0,-1864.0,3048.0,-9.0,-7.0,-22.0
2865.0,2821.0,2906.0,3158.0,3047.0,0.773438,-0.102722,-0.625061,-0.022034,-1.0,-1.0,-1.0,7663.0,-974.0,1522.0,-294.0,102.0,-95.0,44.0,54.0,-317.0,0.971418,-0.131354,0.197438,15284.0,-1904.0,3002.0,-8.0,0.0,-18.0
2865.0,2823.0,2915.0,3151.0,3046.0,0.773376,-0.102661,-0.625183,-0.022217,-1.0,-1.0,0.0,7647.0,-934.0,1504.0,-312.0,139.0,-111.0,61.0,85.0,-343.0,0.971565,-0.131012,0.197212,15292.0,-1782.0,2972.0,-15.0,-6.0,4.0
2867.0,2815.0,2949.0,3153.0,3039.0,0.773315,-0.102722,-0.625244,-0.022278,-1.0,-1.0,0.0,7649.0,-928.0,1500.0,-310.0,145.0,-114.0,66.0,91.0,-342.0,0.971599,-0.131015,0.197031,15320.0,-1838.0,2950.0,-18.0,-7.0,12.0
2871.0,2823.0,2907.0,3151.0,3051.0,0.773315,-0.102905,-0.625244,-0.022339,-1.0,0.0,0.0,7676.0,-948.0,1499.0,-283.0,126.0,-114.0,68.0,75.0,-313.0,0.971619,-0.131222,0.196996,15372.0,-1978.0,2964.0,-13.0,14.0,10.0
2869.0,2823.0,2911.0,3155.0,3047.0,0.773315,-0.102966,-0.625183,-0.022339,-1.0,0.0,0.0,7671.0,-968.0,1498.0,-287.0,107.0,-116.0,66.0,55.0,-315.0,0.971528,-0.131319,0.19706,15302.0,-2082.0,2976.0,-8.0,16.0,7.0
2866.0,2822.0,2903.0,3151.0,3051.0,0.773438,-0.102844,-0.625061,-0.022278,1.0,0.0,-1.0,7666.0,-989.0,1525.0,-292.0,86.0,-92.0,39.0,39.0,-313.0,0.971474,-0.131237,0.197424,15326.0,-1854.0,3120.0,30.0,21.0,-4.0
2867.0,2819.0,2905.0,3151.0,3047.0,0.77356,-0.102661,-0.625,-0.022278,0.0,1.0,-1.0,7676.0,-956.0,1543.0,-282.0,117.0,-76.0,30.0,73.0,-304.0,0.971524,-0.130982,0.197726,15466.0,-1742.0,3246.0,15.0,23.0,-8.0
2867.0,2815.0,2907.0,3149.0,3046.0,0.773804,-0.102661,-0.624634,-0.0224,-1.0,2.0,0.0,7768.0,-964.0,1570.0,-188.0,108.0,-56.0,30.0,77.0,-207.0,0.971287,-0.130896,0.198567,15730.0,-1974.0,3192.0,-9.0,65.0,16.0
2866.0,2821.0,2907.0,3151.0,3047.0,0.774109,-0.102722,-0.624268,-0.0224,-1.0,3.0,0.0,7728.0,-977.0,1570.0,-227.0,96.0,-64.0,27.0,60.0,-245.0,0.971104,-0.131069,0.199484,15126.0,-2020.0,3186.0,-12.0,80.0,19.0
2864.0,2827.0,2905.0,3152.0,3039.0,0.774414,-0.102966,-0.623901,-0.0224,-2.0,0.0,0.0,7597.0,-1032.0,1603.0,-356.0,45.0,-38.0,-34.0,3.0,-359.0,0.970929,-0.131526,0.200364,15170.0,-2428.0,3422.0,-25.0,1.0,13.0
2866.0,2819.0,2903.0,3158.0,3035.0,0.774414,-0.103088,-0.62384,-0.022339,-1.0,0.0,0.0,7622.0,-1075.0,1591.0,-331.0,4.0,-50.0,-24.0,-36.0,-331.0,0.970827,-0.131794,0.200412,15422.0,-2356.0,3002.0,-1.0,5.0,7.0
2865.0,2819.0,2910.0,3150.0,3051.0,0.774475,-0.103027,-0.623718,-0.022217,0.0,0.0,-1.0,7645.0,-1079.0,1606.0,-306.0,1.0,-37.0,-31.0,-34.0,-304.0,0.970686,-0.13187,0.200666,15350.0,-2166.0,3318.0,13.0,6.0,-5.0
2864.0,2821.0,2907.0,3152.0,3047.0,0.774536,-0.102966,-0.623718,-0.022217,0.0,0.0,-1.0,7650.0,-1080.0,1606.0,-302.0,0.0,-38.0,-30.0,-35.0,-300.0,0.97076,-0.131788,0.200773,15314.0,-2146.0,3212.0,14.0,7.0,-13.0
2865.0,2823.0,2903.0,3153.0,3047.0,0.774536,-0.102783,-0.623718,-0.022217,0.0,-1.0,-1.0,7627.0,-1056.0,1620.0,-325.0,21.0,-25.0,-44.0,-14.0,-323.0,0.970752,-0.131505,0.200811,15266.0,-2012.0,3344.0,10.0,-15.0,-11.0
2862.0,2823.0,2910.0,3151.0,3051.0,0.774475,-0.102722,-0.623779,-0.022217,0.0,-1.0,-1.0,7648.0,-1049.0,1620.0,-304.0,27.0,-23.0,-40.0,-6.0,-303.0,0.970767,-0.131395,0.200653,15440.0,-2068.0,3260.0,8.0,-17.0,-12.0
2865.0,2819.0,2910.0,3143.0,3047.0,0.774536,-0.102539,-0.623779,-0.022278,0.0,0.0,-1.0,7664.0,-999.0,1621.0,-289.0,74.0,-23.0,-29.0,41.0,-294.0,0.970848,-0.131048,0.200788,15240.0,-1802.0,3238.0,2.0,2.0,-5.0
2871.0,2826.0,2903.0,3154.0,3055.0,0.774536,-0.102539,-0.623779,-0.022339,-1.0,-1.0,0.0,7655.0,-996.0,1619.0,-298.0,76.0,-25.0,-29.0,41.0,-304.0,0.97086,-0.130971,0.20079,15320.0,-2052.0,3208.0,-17.0,-6.0,3.0
2864.0,2827.0,2901.0,3157.0,3047.0,0.774475,-0.102661,-0.62384,-0.022339,0.0,-1.0,0.0,7642.0,-1027.0,1606.0,-311.0,47.0,-37.0,-25.0,9.0,-315.0,0.970884,-0.131145,0.200595,15234.0,-2032.0,3148.0,9.0,-12.0,5.0
2871.0,2823.0,2903.0,3141.0,3053.0,0.774414,-0.1026,-0.623901,-0.022278,0.0,-1.0,-1.0,7641.0,-1010.0,1604.0,-312.0,64.0,-37.0,-22.0,26.0,-318.0,0.970887,-0.131112,0.200434,15292.0,-1894.0,3200.0,15.0,-14.0,-2.0
2865.0,2818.0,2902.0,3151.0,3051.0,0.774353,-0.102478,-0.624023,-0.022339,-1.0,-1.0,-1.0,7660.0,-988.0,1591.0,-294.0,83.0,-49.0,-4.0,44.0,-306.0,0.971007,-0.130828,0.200215,15418.0,-1970.0,3150.0,-7.0,-14.0,-1.0
2866.0,2825.0,2903.0,3151.0,3055.0,0.774292,-0.102478,-0.624084,-0.022339,-1.0,-1.0,-1.0,7680.0,-998.0,1583.0,-274.0,73.0,-55.0,4.0,35.0,-286.0,0.971026,-0.130813,0.200044,15480.0,-2082.0,3118.0,-10.0,-5.0,-4.0
2877.0,2823.0,2906.0,3152.0,3047.0,0.774292,-0.102478,-0.624084,-0.022461,0.0,0.0,-1.0,7675.0,-1012.0,1576.0,-279.0,58.0,-62.0,7.0,19.0,-290.0,0.971051,-0.130661,0.200049,15252.0,-2010.0,3142.0,1.0,5.0,-9.0
2870.0,2815.0,2907.0,3153.0,3045.0,0.774353,-0.102417,-0.624023,-0.022461,0.0,0.0,-1.0,7669.0,-1016.0,1567.0,-285.0,53.0,-73.0,16.0,11.0,-298.0,0.97103,-0.130582,0.200233,15296.0,-2048.0,3054.0,5.0,7.0,-9.0
2870.0,2823.0,2901.0,3154.0,3051.0,0.774353,-0.102234,-0.624023,-0.022522,0.0,-1.0,-1.0,7650.0,-1005.0,1564.0,-304.0,61.0,-76.0,16.0,17.0,-318.0,0.971034,-0.130222,0.200273,15242.0,-1966.0,3088.0,11.0,0.0,-9.0
2865.0,2822.0,2903.0,3151.0,3047.0,0.774353,-0.102173,-0.624084,-0.022522,0.0,-1.0,-1.0,7649.0,-1001.0,1563.0,-306.0,64.0,-77.0,17.0,19.0,-320.0,0.971126,-0.130124,0.200209,15318.0,-1976.0,3132.0,17.0,-1.0,-8.0
2869.0,2823.0,2909.0,3153.0,3046.0,0.774353,-0.101868,-0.624023,-0.022583,0.0,0.0,-1.0,7661.0,-958.0,1585.0,-293.0,103.0,-56.0,6.0,63.0,-309.0,0.97103,-0.129578,0.20035,15332.0,-1782.0,3234.0,6.0,5.0,-7.0
2865.0,2815.0,2901.0,3151.0,3047.0,0.774353,-0.101929,-0.624023,-0.022644,-1.0,-1.0,0.0,7651.0,-946.0,1586.0,-303.0,115.0,-55.0,4.0,74.0,-320.0,0.971045,-0.129597,0.200341,15240.0,-1850.0,3184.0,-19.0,-4.0,5.0
2863.0,2817.0,2901.0,3151.0,3019.0,0.774292,-0.102234,-0.624084,-0.022705,-2.0,-1.0,0.0,7657.0,-981.0,1584.0,-298.0,83.0,-55.0,0.0,43.0,-311.0,0.97109,-0.129978,0.20011,15418.0,-2126.0,3144.0,-25.0,-12.0,18.0
2866.0,2826.0,2913.0,3154.0,3045.0,0.774292,-0.102356,-0.624146,-0.022644,-1.0,-1.0,0.0,7674.0,-998.0,1586.0,-281.0,68.0,-52.0,0.0,30.0,-292.0,0.971177,-0.13024,0.200006,15456.0,-2076.0,3204.0,-8.0,-2.0,12.0
2863.0,2823.0,2907.0,3152.0,3047.0,0.774353,-0.102295,-0.624023,-0.022705,0.0,0.0,-1.0,7690.0,-979.0,1582.0,-265.0,86.0,-58.0,11.0,48.0,-280.0,0.971074,-0.130088,0.200269,15380.0,-1934.0,3152.0,5.0,20.0,-3.0
2865.0,2819.0,2907.0,3155.0,3051.0,0.774414,-0.102234,-0.623962,-0.022705,0.0,0.0,-1.0,7681.0,-992.0,1580.0,-273.0,73.0,-62.0,11.0,34.0,-287.0,0.971053,-0.130008,0.200452,15320.0,-2074.0,3154.0,11.0,17.0,-4.0
2869.0,2822.0,2903.0,3151.0,3047.0,0.774536,-0.101929,-0.62384,-0.022644,1.0,0.0,-1.0,7667.0,-982.0,1596.0,-287.0,80.0,-49.0,-3.0,42.0,-298.0,0.97099,-0.129642,0.200853,15268.0,-1930.0,3248.0,25.0,10.0,-11.0
2867.0,2822.0,2907.0,3153.0,3043.0,0.774597,-0.101807,-0.62384,-0.022644,0.0,0.0,-1.0,7664.0,-981.0,1605.0,-290.0,79.0,-41.0,-11.0,42.0,-300.0,0.971061,-0.129466,0.200972,15358.0,-1938.0,3272.0,21.0,3.0,-7.0
2867.0,2823.0,2906.0,3155.0,3051.0,0.774597,-0.101685,-0.623779,-0.022583,-1.0,-1.0,0.0,7660.0,-942.0,1619.0,-294.0,117.0,-28.0,-19.0,82.0,-306.0,0.970948,-0.129356,0.20107,15334.0,-1764.0,3266.0,-8.0,-7.0,11.0
2865.0,2819.0,2903.0,3153.0,3045.0,0.774597,-0.101746,-0.62384,-0.022644,-1.0,-1.0,0.0,7667.0,-950.0,1620.0,-287.0,109.0,-26.0,-20.0,75.0,-298.0,0.971058,-0.129371,0.200985,15394.0,-2026.0,3220.0,-22.0,-10.0,16.0
2867.0,2819.0,2907.0,3149.0,3053.0,0.774536,-0.101868,-0.62384,-0.022522,0.0,-1.0,0.0,7661.0,-998.0,1605.0,-293.0,64.0,-40.0,-15.0,28.0,-300.0,0.970962,-0.1297,0.20086,15296.0,-2130.0,3218.0,8.0,-4.0,4.0
2865.0,2823.0,2901.0,3151.0,3047.0,0.774536,-0.101807,-0.62384,-0.022461,0.0,-1.0,-1.0,7662.0,-1027.0,1608.0,-291.0,35.0,-37.0,-22.0,0.0,-294.0,0.970947,-0.129682,0.200869,15344.0,-2238.0,3234.0,19.0,-4.0,-3.0
2866.0,2821.0,2903.0,3155.0,3047.0,0.774536,-0.101562,-0.623901,-0.022278,1.0,-1.0,-1.0,7656.0,-1021.0,1607.0,-298.0,40.0,-38.0,-22.0,4.0,-302.0,0.970994,-0.129529,0.200835,15326.0,-1920.0,3246.0,34.0,-10.0,-14.0
2867.0,2823.0,2901.0,3153.0,3045.0,0.774536,-0.101379,-0.623962,-0.022278,0.0,-1.0,-1.0,7666.0,-990.0,1610.0,-289.0,68.0,-34.0,-20.0,33.0,-296.0,0.97108,-0.129243,0.200796,15404.0,-1778.0,3226.0,18.0,-12.0,-9.0
2866.0,2819.0,2902.0,3153.0,3045.0,0.774475,-0.10144,-0.624023,-0.0224,-2.0,-1.0,0.0,7673.0,-973.0,1609.0,-282.0,85.0,-34.0,-15.0,50.0,-291.0,0.971126,-0.12917,0.200618,15312.0,-2096.0,3174.0,-26.0,-10.0,9.0
2867.0,2822.0,2909.0,3153.0,3051.0,0.774414,-0.101562,-0.624084,-0.0224,-1.0,-1.0,0.0,7656.0,-1007.0,1600.0,-299.0,52.0,-41.0,-17.0,15.0,-305.0,0.97115,-0.129344,0.200423,15176.0,-2202.0,3128.0,-14.0,-5.0,9.0
2870.0,2827.0,2909.0,3154.0,3043.0,0.774353,-0.101624,-0.624146,-0.022278,0.0,-1.0,0.0,7647.0,-1039.0,1574.0,-308.0,22.0,-66.0,0.0,-19.0,-315.0,0.971146,-0.129576,0.200234,15392.0,-2112.0,3062.0,14.0,-13.0,0.0
2867.0,2823.0,2903.0,3154.0,3043.0,0.774292,-0.101562,-0.624207,-0.022217,1.0,0.0,-1.0,7670.0,-1041.0,1568.0,-285.0,20.0,-70.0,7.0,-19.0,-293.0,0.971149,-0.129542,0.200073,15432.0,-2056.0,3098.0,24.0,1.0,-6.0
2864.0,2823.0,2907.0,3152.0,3043.0,0.774353,-0.101318,-0.624207,-0.022217,0.0,-1.0,-1.0,7656.0,-1020.0,1579.0,-300.0,38.0,-61.0,-1.0,-1.0,-308.0,0.971214,-0.129177,0.200217,15220.0,-1988.0,3288.0,10.0,0.0,-13.0
2864.0,2821.0,2906.0,3155.0,3045.0,0.774353,-0.101257,-0.624207,-0.022217,-1.0,-1.0,-1.0,7641.0,-1017.0,1586.0,-315.0,40.0,-54.0,-10.0,0.0,-321.0,0.971212,-0.129082,0.200229,15224.0,-2046.0,3206.0,-4.0,-11.0,-9.0
2865.0,2823.0,2903.0,3151.0,3045.0,0.774231,-0.101257,-0.62439,-0.022339,-1.0,-1.0,-1.0,7663.0,-1004.0,1600.0,-294.0,51.0,-36.0,-21.0,16.0,-299.0,0.971368,-0.128897,0.199817,15456.0,-1978.0,3296.0,-8.0,-17.0,-11.0
2870.0,2818.0,2907.0,3151.0,3046.0,0.77417,-0.101196,-0.62439,-0.022461,-1.0,-1.0,-1.0,7674.0,-994.0,1601.0,-282.0,59.0,-35.0,-18.0,25.0,-288.0,0.971313,-0.128637,0.19974,15388.0,-1914.0,3180.0,-8.0,-8.0,-12.0
2864.0,2822.0,2909.0,3153.0,3043.0,0.77417,-0.101074,-0.624451,-0.022583,0.0,-1.0,-1.0,7668.0,-1007.0,1588.0,-289.0,43.0,-47.0,-11.0,7.0,-295.0,0.971427,-0.128293,0.199694,15274.0,-2056.0,3130.0,11.0,-1.0,-21.0
2867.0,2826.0,2909.0,3149.0,3043.0,0.77417,-0.100952,-0.624451,-0.022583,0.0,-1.0,-1.0,7662.0,-998.0,1595.0,-295.0,51.0,-41.0,-16.0,15.0,-301.0,0.971421,-0.128104,0.199719,15306.0,-1926.0,3250.0,20.0,-6.0,-21.0
2865.0,2823.0,2903.0,3155.0,3043.0,0.77417,-0.100708,-0.624512,-0.022644,0.0,-1.0,-1.0,7666.0,-973.0,1598.0,-292.0,72.0,-37.0,-16.0,37.0,-300.0,0.971517,-0.127647,0.199695,15360.0,-1950.0,3240.0,4.0,-10.0,-9.0
2865.0,2822.0,2900.0,3155.0,3043.0,0.774109,-0.100647,-0.624573,-0.022705,0.0,-1.0,-1.0,7671.0,-985.0,1596.0,-287.0,59.0,-38.0,-16.0,24.0,-293.0,0.971545,-0.127461,0.199539,15362.0,-2046.0,3156.0,8.0,-4.0,-5.0
2864.0,2827.0,2909.0,3143.0,3043.0,0.774109,-0.100464,-0.624634,-0.022705,0.0,-1.0,-1.0,7663.0,-971.0,1596.0,-296.0,70.0,-38.0,-16.0,34.0,-304.0,0.971631,-0.127175,0.1995,15350.0,-1946.0,3234.0,6.0,-7.0,-14.0
2867.0,2823.0,2911.0,3159.0,3043.0,0.774109,-0.100403,-0.624634,-0.022766,0.0,-1.0,-1.0,7655.0,-964.0,1598.0,-304.0,76.0,-36.0,-19.0,40.0,-312.0,0.971641,-0.127004,0.199515,15250.0,-1884.0,3132.0,5.0,-8.0,-13.0
2869.0,2825.0,2902.0,3153.0,3047.0,0.774048,-0.100281,-0.624695,-0.022827,0.0,-1.0,-1.0,7675.0,-966.0,1595.0,-284.0,72.0,-38.0,-13.0,37.0,-292.0,0.971666,-0.126724,0.199371,15416.0,-1948.0,3178.0,8.0,-7.0,-4.0
2867.0,2818.0,2911.0,3153.0,3035.0,0.774048,-0.100159,-0.624695,-0.022827,0.0,-1.0,-1.0,7674.0,-959.0,1595.0,-285.0,77.0,-38.0,-13.0,42.0,-294.0,0.97166,-0.126535,0.199396,15290.0,-1844.0,3162.0,14.0,0.0,-10.0
2865.0,2821.0,2896.0,3143.0,3055.0,0.774048,-0.099976,-0.624817,-0.022827,0.0,-1.0,-1.0,7664.0,-951.0,1593.0,-297.0,83.0,-39.0,-13.0,47.0,-306.0,0.971841,-0.126246,0.19928,15390.0,-1918.0,3194.0,11.0,-15.0,-8.0
2871.0,2821.0,2911.0,3152.0,3046.0,0.773987,-0.099854,-0.624878,-0.022827,0.0,-1.0,-1.0,7670.0,-949.0,1579.0,-291.0,83.0,-52.0,0.0,45.0,-303.0,0.971853,-0.126042,0.199134,15364.0,-1880.0,3070.0,18.0,-9.0,-14.0
2865.0,2820.0,2911.0,3155.0,3049.0,0.773987,-0.099426,-0.624939,-0.022827,1.0,-1.0,-2.0,7673.0,-967.0,1580.0,-289.0,60.0,-51.0,-4.0,23.0,-298.0,0.971928,-0.125378,0.199142,15312.0,-1986.0,3136.0,38.0,-1.0,-25.0
2871.0,2822.0,2911.0,3157.0,3039.0,0.773987,-0.099182,-0.624939,-0.022766,2.0,-1.0,-2.0,7667.0,-971.0,1587.0,-294.0,53.0,-44.0,-13.0,17.0,-301.0,0.971905,-0.125076,0.199188,15308.0,-1944.0,3240.0,48.0,0.0,-30.0
2871.0,2815.0,2899.0,3142.0,3031.0,0.774048,-0.098633,-0.625,-0.022766,0.0,-1.0,-1.0,7650.0,-913.0,1605.0,-313.0,104.0,-27.0,-25.0,69.0,-322.0,0.972051,-0.124235,0.199315,15250.0,-1606.0,3310.0,22.0,-15.0,-13.0
2867.0,2827.0,2902.0,3152.0,3047.0,0.773987,-0.098511,-0.625061,-0.022827,0.0,-1.0,-1.0,7655.0,-898.0,1613.0,-308.0,117.0,-18.0,-31.0,84.0,-317.0,0.972075,-0.123955,0.199171,15366.0,-1762.0,3252.0,1.0,-20.0,-2.0
2869.0,2827.0,2909.0,3146.0,3051.0,0.773926,-0.098511,-0.625183,-0.022766,0.0,-1.0,0.0,7676.0,-931.0,1600.0,-288.0,84.0,-29.0,-21.0,51.0,-296.0,0.972176,-0.124014,0.198921,15372.0,-1974.0,3148.0,8.0,-11.0,4.0
2861.0,2819.0,2903.0,3159.0,3043.0,0.773865,-0.09845,-0.625244,-0.022705,0.0,-1.0,0.0,7676.0,-945.0,1603.0,-288.0,70.0,-25.0,-27.0,38.0,-293.0,0.972179,-0.123981,0.19876,15340.0,-1948.0,3244.0,17.0,-10.0,2.0
2867.0,2814.0,2908.0,3152.0,3047.0,0.773865,-0.098206,-0.625305,-0.022583,1.0,-1.0,-1.0,7672.0,-953.0,1592.0,-292.0,60.0,-35.0,-20.0,26.0,-298.0,0.972239,-0.123753,0.198726,15318.0,-1842.0,3130.0,24.0,-11.0,-8.0
2867.0,2825.0,2906.0,3147.0,3043.0,0.773804,-0.098145,-0.625366,-0.022583,0.0,-1.0,-1.0,7674.0,-934.0,1602.0,-290.0,78.0,-24.0,-27.0,46.0,-296.0,0.972254,-0.123644,0.198567,15376.0,-1766.0,3254.0,11.0,-15.0,-10.0
2864.0,2822.0,2907.0,3151.0,3051.0,0.773743,-0.098083,-0.625427,-0.022705,-1.0,-1.0,-1.0,7683.0,-941.0,1598.0,-282.0,69.0,-27.0,-24.0,38.0,-288.0,0.972293,-0.123382,0.198414,15368.0,-1986.0,3076.0,-13.0,-12.0,-4.0
2839.0,2818.0,2910.0,3149.0,3051.0,0.773743,-0.098083,-0.625488,-0.022766,-1.0,-1.0,-1.0,7678.0,-964.0,1581.0,-287.0,46.0,-43.0,-13.0,12.0,-293.0,0.9724,-0.123303,0.19834,15314.0,-2054.0,3012.0,-5.0,-9.0,-9.0
2865.0,2815.0,2898.0,3151.0,3051.0,0.773621,-0.097961,-0.62561,-0.022766,0.0,-1.0,-1.0,7647.0,-983.0,1555.0,-319.0,25.0,-67.0,0.0,-15.0,-326.0,0.972431,-0.123085,0.198022,15266.0,-2024.0,3100.0,17.0,-19.0,-15.0
2866.0,2825.0,2909.0,3151.0,3043.0,0.77356,-0.097839,-0.625732,-0.022705,1.0,-1.0,-1.0,7652.0,-974.0,1547.0,-314.0,33.0,-73.0,7.0,-8.0,-323.0,0.972525,-0.122955,0.197796,15314.0,-1854.0,3030.0,26.0,-18.0,-13.0
2867.0,2823.0,2903.0,3152.0,3025.0,0.773438,-0.097534,-0.625916,-0.022705,0.0,-1.0,-1.0,7682.0,-929.0,1556.0,-285.0,74.0,-61.0,9.0,36.0,-298.0,0.972642,-0.12245,0.197438,15438.0,-1688.0,3096.0,11.0,-11.0,-10.0
2867.0,2815.0,2905.0,3151.0,3053.0,0.773438,-0.097534,-0.625916,-0.022827,-1.0,-1.0,-1.0,7684.0,-896.0,1560.0,-284.0,105.0,-57.0,10.0,68.0,-300.0,0.972666,-0.122297,0.197444,15350.0,-1644.0,3172.0,-15.0,-6.0,-3.0
2863.0,2815.0,2910.0,3157.0,3043.0,0.773376,-0.097717,-0.625977,-0.02301,-2.0,-1.0,0.0,7678.0,-924.0,1551.0,-290.0,78.0,-64.0,11.0,39.0,-304.0,0.972728,-0.122337,0.197245,15306.0,-1964.0,3042.0,-26.0,-3.0,6.0
2867.0,2823.0,2911.0,3153.0,3053.0,0.773315,-0.097839,-0.625977,-0.02301,-1.0,-1.0,0.0,7666.0,-938.0,1547.0,-302.0,65.0,-67.0,9.0,25.0,-314.0,0.972657,-0.122514,0.197127,15268.0,-1934.0,3094.0,-15.0,-1.0,2.0
2867.0,2823.0,2907.0,3149.0,3051.0,0.773315,-0.097839,-0.625977,-0.023071,0.0,0.0,-1.0,7669.0,-958.0,1539.0,-299.0,45.0,-75.0,15.0,4.0,-311.0,0.972669,-0.122437,0.19713,15362.0,-1980.0,3074.0,7.0,5.0,-9.0
2865.0,2823.0,2897.0,3157.0,3047.0,0.773376,-0.097717,-0.625977,-0.023071,0.0,0.0,-1.0,7666.0,-958.0,1540.0,-302.0,43.0,-75.0,14.0,2.0,-313.0,0.97274,-0.12226,0.197248,15300.0,-1886.0,3086.0,18.0,5.0,-13.0
2867.0,2820.0,2896.0,3157.0,3053.0,0.773376,-0.097473,-0.625977,-0.023132,0.0,-1.0,-1.0,7669.0,-935.0,1551.0,-299.0,62.0,-65.0,8.0,23.0,-311.0,0.972741,-0.121806,0.197299,15342.0,-1802.0,3086.0,14.0,0.0,-14.0
2868.0,2827.0,2909.0,3153.0,3055.0,0.773376,-0.097351,-0.625977,-0.023132,0.0,-1.0,-1.0,7665.0,-930.0,1554.0,-303.0,66.0,-62.0,4.0,27.0,-314.0,0.972735,-0.121617,0.197322,15310.0,-1834.0,3104.0,10.0,-2.0,-8.0
2867.0,2821.0,2903.0,3149.0,3051.0,0.773376,-0.097229,-0.625977,-0.023193,0.0,0.0,-1.0,7679.0,-917.0,1561.0,-289.0,77.0,-55.0,2.0,40.0,-301.0,0.972741,-0.121352,0.197349,15376.0,-1854.0,3164.0,4.0,8.0,-10.0
2864.0,2821.0,2900.0,3151.0,3045.0,0.773438,-0.097168,-0.625977,-0.023254,0.0,0.0,-1.0,7670.0,-917.0,1558.0,-299.0,75.0,-59.0,4.0,37.0,-311.0,0.972827,-0.121193,0.197458,15268.0,-1834.0,3106.0,9.0,8.0,-9.0
2870.0,2821.0,2901.0,3155.0,3045.0,0.773438,-0.096985,-0.625977,-0.023315,0.0,-1.0,-1.0,7658.0,-886.0,1567.0,-311.0,103.0,-50.0,-2.0,65.0,-324.0,0.97283,-0.120834,0.197496,15306.0,-1626.0,3166.0,3.0,-6.0,-8.0
2867.0,2823.0,2901.0,3155.0,3046.0,0.773438,-0.096924,-0.625977,-0.023376,-1.0,-1.0,0.0,7670.0,-881.0,1579.0,-299.0,107.0,-39.0,-9.0,72.0,-311.0,0.972839,-0.120663,0.197511,15446.0,-1772.0,3244.0,-9.0,-11.0,0.0
2864.0,2821.0,2911.0,3151.0,3023.0,0.773376,-0.096924,-0.626038,-0.023376,0.0,-1.0,-1.0,7681.0,-911.0,1599.0,-288.0,77.0,-17.0,-33.0,47.0,-292.0,0.972857,-0.120648,0.19734,15376.0,-1892.0,3250.0,4.0,-14.0,-1.0
2866.0,2821.0,2909.0,3152.0,3047.0,0.773376,-0.096863,-0.626099,-0.023315,0.0,-1.0,-1.0,7693.0,-923.0,1604.0,-277.0,65.0,-12.0,-37.0,37.0,-279.0,0.972937,-0.120627,0.197273,15466.0,-1904.0,3256.0,16.0,-11.0,-6.0
2865.0,2815.0,2903.0,3151.0,3039.0,0.773315,-0.096619,-0.62616,-0.023254,0.0,-1.0,-1.0,7695.0,-913.0,1607.0,-275.0,72.0,-8.0,-40.0,45.0,-277.0,0.972932,-0.120311,0.197146,15440.0,-1814.0,3230.0,15.0,-18.0,-6.0
2865.0,2823.0,2910.0,3155.0,3047.0,0.773254,-0.096558,-0.626282,-0.023254,0.0,-1.0,-1.0,7699.0,-917.0,1594.0,-272.0,67.0,-19.0,-29.0,39.0,-276.0,0.973041,-0.1202,0.196911,15424.0,-1902.0,3080.0,11.0,-18.0,-12.0
2867.0,2822.0,2909.0,3151.0,3047.0,0.773193,-0.096313,-0.626404,-0.023254,0.0,-1.0,-1.0,7686.0,-934.0,1576.0,-285.0,47.0,-35.0,-19.0,15.0,-289.0,0.973142,-0.119805,0.196711,15274.0,-1822.0,3118.0,15.0,-15.0,-14.0
2865.0,2821.0,2907.0,3152.0,3043.0,0.773132,-0.096252,-0.626465,-0.023315,0.0,-1.0,-1.0,7673.0,-928.0,1574.0,-299.0,51.0,-36.0,-21.0,18.0,-304.0,0.973169,-0.119619,0.196554,15278.0,-1822.0,3140.0,5.0,-17.0,-13.0
2870.0,2821.0,2903.0,3153.0,3047.0,0.77301,-0.096252,-0.626587,-0.023376,-1.0,-1.0,-1.0,7678.0,-943.0,1552.0,-294.0,36.0,-55.0,-4.0,0.0,-301.0,0.973216,-0.119513,0.196216,15346.0,-1908.0,2990.0,-3.0,-10.0,-6.0
2867.0,2827.0,2909.0,3153.0,3043.0,0.772949,-0.096252,-0.626648,-0.023376,-1.0,-1.0,-1.0,7669.0,-941.0,1540.0,-303.0,37.0,-65.0,3.0,0.0,-312.0,0.973234,-0.119499,0.196045,15286.0,-1868.0,3028.0,-5.0,-10.0,-6.0
2869.0,2827.0,2907.0,3151.0,3051.0,0.772888,-0.096313,-0.62677,-0.023499,-1.0,-1.0,-1.0,7671.0,-955.0,1535.0,-302.0,23.0,-68.0,4.0,-15.0,-310.0,0.973373,-0.119423,0.195791,15374.0,-1998.0,3026.0,-13.0,-7.0,-7.0
2865.0,2819.0,2901.0,3149.0,3043.0,0.772827,-0.096313,-0.62677,-0.02356,-1.0,-1.0,-1.0,7677.0,-973.0,1527.0,-296.0,4.0,-76.0,10.0,-34.0,-303.0,0.973308,-0.119334,0.1957,15412.0,-2060.0,3018.0,-5.0,-5.0,-12.0
2864.0,2819.0,2898.0,3152.0,3039.0,0.772888,-0.09613,-0.62677,-0.023621,1.0,0.0,-2.0,7684.0,-1009.0,1511.0,-289.0,-34.0,-93.0,22.0,-74.0,-295.0,0.973388,-0.118987,0.195832,15264.0,-2038.0,2958.0,24.0,17.0,-33.0
2867.0,2825.0,2907.0,3153.0,3047.0,0.772949,-0.095886,-0.626709,-0.023682,1.0,0.0,-2.0,7672.0,-1000.0,1509.0,-301.0,-28.0,-97.0,24.0,-69.0,-308.0,0.97337,-0.118547,0.196053,15274.0,-1928.0,3008.0,24.0,15.0,-38.0
2867.0,2807.0,2910.0,3138.0,3051.0,0.773071,-0.09552,-0.626648,-0.023926,0.0,0.0,-2.0,7650.0,-973.0,1502.0,-324.0,-8.0,-106.0,31.0,-53.0,-335.0,0.973458,-0.117701,0.1964,15152.0,-1770.0,2986.0,10.0,20.0,-41.0
2867.0,2819.0,2905.0,3150.0,3046.0,0.773071,-0.095398,-0.626648,-0.024109,-1.0,0.0,-2.0,7632.0,-948.0,1503.0,-342.0,12.0,-106.0,31.0,-35.0,-355.0,0.973487,-0.117283,0.196432,15202.0,-1766.0,2990.0,-10.0,8.0,-38.0
2864.0,2815.0,2905.0,3149.0,3051.0,0.773071,-0.095337,-0.626648,-0.024597,-2.0,0.0,-2.0,7648.0,-906.0,1502.0,-327.0,48.0,-107.0,40.0,1.0,-344.0,0.973577,-0.116577,0.196467,15334.0,-1718.0,3024.0,-27.0,14.0,-34.0
2864.0,2826.0,2911.0,3155.0,3051.0,0.773071,-0.095337,-0.626587,-0.024841,-2.0,0.0,-2.0,7660.0,-900.0,1501.0,-315.0,52.0,-109.0,46.0,5.0,-334.0,0.973529,-0.116274,0.196556,15400.0,-1776.0,3012.0,-29.0,15.0,-34.0
2867.0,2823.0,2907.0,3155.0,3047.0,0.773193,-0.095215,-0.626526,-0.02533,-1.0,0.0,-2.0,7664.0,-887.0,1525.0,-312.0,59.0,-87.0,26.0,17.0,-327.0,0.973675,-0.1155,0.196869,15352.0,-1724.0,3154.0,-12.0,19.0,-38.0
2864.0,2822.0,2902.0,3152.0,3043.0,0.773254,-0.095093,-0.626404,-0.025513,-1.0,0.0,-2.0,7667.0,-870.0,1541.0,-308.0,72.0,-74.0,16.0,32.0,-322.0,0.973591,-0.115099,0.197149,15360.0,-1620.0,3228.0,-1.0,22.0,-42.0
2864.0,2826.0,2907.0,3151.0,3047.0,0.773376,-0.094666,-0.626282,-0.02594,0.0,0.0,-2.0,7673.0,-800.0,1579.0,-302.0,133.0,-39.0,-5.0,99.0,-316.0,0.973614,-0.113933,0.197594,15368.0,-1362.0,3310.0,1.0,14.0,-30.0
2865.0,2826.0,2907.0,3157.0,3051.0,0.773438,-0.094543,-0.626221,-0.026123,-1.0,0.0,-1.0,7686.0,-761.0,1598.0,-289.0,169.0,-22.0,-13.0,139.0,-304.0,0.973625,-0.113529,0.197797,15432.0,-1292.0,3276.0,-8.0,9.0,-20.0
2869.0,2819.0,2907.0,3151.0,3047.0,0.773499,-0.094482,-0.62616,-0.026428,-2.0,-1.0,0.0,7709.0,-695.0,1646.0,-267.0,231.0,24.0,-43.0,210.0,-281.0,0.973661,-0.113067,0.197996,15508.0,-1306.0,3456.0,-30.0,-1.0,9.0
2866.0,2819.0,2903.0,3153.0,3047.0,0.77356,-0.094543,-0.626099,-0.02655,-2.0,-1.0,0.0,7712.0,-691.0,1655.0,-264.0,234.0,31.0,-49.0,214.0,-277.0,0.973669,-0.113024,0.198161,15432.0,-1396.0,3332.0,-24.0,0.0,19.0
2867.0,2819.0,2903.0,3151.0,3045.0,0.77356,-0.094604,-0.626099,-0.02655,0.0,-1.0,0.0,7731.0,-716.0,1651.0,-245.0,210.0,27.0,-45.0,191.0,-256.0,0.973673,-0.113118,0.19815,15558.0,-1590.0,3316.0,2.0,-7.0,14.0
2867.0,2822.0,2879.0,3155.0,3047.0,0.77356,-0.094543,-0.626099,-0.026489,0.0,-1.0,0.0,7736.0,-731.0,1648.0,-240.0,195.0,24.0,-43.0,176.0,-250.0,0.973658,-0.1131,0.198158,15480.0,-1530.0,3282.0,12.0,-8.0,15.0
2855.0,2826.0,2911.0,3154.0,3051.0,0.773499,-0.094482,-0.62616,-0.026367,0.0,-1.0,0.0,7715.0,-738.0,1638.0,-261.0,188.0,16.0,-41.0,167.0,-272.0,0.97365,-0.113144,0.197992,15318.0,-1500.0,3214.0,5.0,-15.0,18.0
2864.0,2818.0,2905.0,3151.0,3043.0,0.773438,-0.094543,-0.626221,-0.026306,-1.0,-2.0,1.0,7698.0,-750.0,1625.0,-278.0,178.0,4.0,-35.0,153.0,-290.0,0.973659,-0.1133,0.197807,15300.0,-1568.0,3130.0,-1.0,-27.0,24.0
2867.0,2821.0,2903.0,3199.0,3047.0,0.773254,-0.094727,-0.626404,-0.026123,-1.0,-2.0,1.0,7700.0,-783.0,1611.0,-276.0,148.0,-4.0,-31.0,122.0,-286.0,0.973688,-0.113768,0.19725,15432.0,-1692.0,3064.0,-10.0,-30.0,38.0
2896.0,2827.0,2903.0,3151.0,3039.0,0.773193,-0.09491,-0.626526,-0.026001,-1.0,-1.0,1.0,7696.0,-808.0,1586.0,-281.0,127.0,-27.0,-13.0,97.0,-293.0,0.973787,-0.114186,0.196961,15346.0,-1768.0,3032.0,-11.0,-20.0,42.0
2869.0,2827.0,2911.0,3153.0,3047.0,0.773071,-0.095215,-0.626648,-0.025696,0.0,-1.0,1.0,7681.0,-886.0,1553.0,-296.0,56.0,-57.0,0.0,21.0,-305.0,0.97378,-0.115011,0.196546,15352.0,-2044.0,3060.0,2.0,-17.0,32.0
2866.0,2821.0,2903.0,3151.0,3047.0,0.77301,-0.095276,-0.626709,-0.025513,0.0,-1.0,1.0,7673.0,-922.0,1539.0,-304.0,22.0,-69.0,5.0,-15.0,-312.0,0.973766,-0.11532,0.196354,15276.0,-2042.0,3010.0,16.0,-12.0,23.0
2864.0,2821.0,2906.0,3152.0,3043.0,0.772949,-0.095337,-0.62677,-0.025208,0.0,-1.0,0.0,7657.0,-929.0,1526.0,-319.0,19.0,-80.0,12.0,-21.0,-328.0,0.973729,-0.115783,0.196156,15324.0,-1818.0,3062.0,9.0,-11.0,11.0
2867.0,2823.0,2907.0,3151.0,3047.0,0.772888,-0.095337,-0.626831,-0.025146,-1.0,-1.0,0.0,7661.0,-942.0,1524.0,-315.0,6.0,-81.0,11.0,-34.0,-323.0,0.973735,-0.115844,0.195982,15344.0,-2000.0,3022.0,-2.0,-7.0,11.0
2867.0,2822.0,2911.0,3151.0,3047.0,0.772827,-0.095581,-0.626892,-0.025085,-1.0,-1.0,0.0,7640.0,-959.0,1531.0,-336.0,-6.0,-72.0,-3.0,-46.0,-340.0,0.973754,-0.116284,0.195762,15244.0,-1996.0,3088.0,-15.0,-16.0,11.0
2866.0,2819.0,2906.0,3153.0,3045.0,0.772766,-0.095703,-0.626953,-0.025024,-1.0,-1.0,0.0,7656.0,-976.0,1536.0,-321.0,-21.0,-66.0,-7.0,-58.0,-323.0,0.973766,-0.116534,0.195564,15454.0,-2046.0,3094.0,-9.0,-14.0,4.0
2866.0,2823.0,2901.0,3151.0,3047.0,0.772766,-0.095703,-0.626953,-0.025024,-1.0,0.0,-1.0,7677.0,-955.0,1547.0,-300.0,0.0,-55.0,-10.0,-34.0,-302.0,0.973766,-0.116534,0.195564,15342.0,-1774.0,3126.0,-2.0,5.0,-5.0
2867.0,2823.0,2903.0,3155.0,3047.0,0.772766,-0.095703,-0.626892,-0.025146,-1.0,0.0,-1.0,7671.0,-926.0,1550.0,-305.0,27.0,-52.0,-10.0,-7.0,-310.0,0.973695,-0.116384,0.195647,15298.0,-1694.0,3118.0,-17.0,1.0,-1.0
2869.0,2823.0,2907.0,3154.0,3047.0,0.772766,-0.095886,-0.626953,-0.02533,-2.0,-1.0,-1.0,7676.0,-924.0,1551.0,-301.0,29.0,-50.0,-11.0,-4.0,-306.0,0.973834,-0.116434,0.195545,15388.0,-1922.0,3038.0,-23.0,-5.0,-1.0
2867.0,2823.0,2906.0,3151.0,3043.0,0.772705,-0.096008,-0.626953,-0.02533,-1.0,-1.0,-1.0,7691.0,-923.0,1553.0,-286.0,32.0,-47.0,-10.0,0.0,-291.0,0.973763,-0.116611,0.195427,15502.0,-1810.0,3124.0,-12.0,-2.0,-2.0
2866.0,2819.0,2909.0,3151.0,3045.0,0.772766,-0.096008,-0.626892,-0.025513,-1.0,0.0,-1.0,7699.0,-884.0,1549.0,-278.0,69.0,-53.0,2.0,35.0,-289.0,0.973781,-0.116397,0.195607,15384.0,-1628.0,3076.0,-21.0,10.0,-5.0
2867.0,2825.0,2907.0,3155.0,3051.0,0.772766,-0.096069,-0.626892,-0.025635,-2.0,0.0,0.0,7680.0,-870.0,1535.0,-297.0,83.0,-67.0,14.0,45.0,-311.0,0.973807,-0.116338,0.195602,15230.0,-1674.0,2986.0,-30.0,3.0,1.0
2868.0,2822.0,2907.0,3153.0,3047.0,0.772644,-0.096313,-0.626953,-0.025818,-1.0,-1.0,0.0,7664.0,-874.0,1533.0,-313.0,80.0,-66.0,9.0,41.0,-327.0,0.973796,-0.116459,0.195299,15268.0,-1716.0,3066.0,-12.0,-9.0,6.0
2867.0,2819.0,2902.0,3153.0,3047.0,0.772644,-0.096313,-0.626953,-0.025818,-1.0,-1.0,0.0,7662.0,-850.0,1528.0,-315.0,104.0,-71.0,18.0,63.0,-332.0,0.973796,-0.116459,0.195299,15344.0,-1532.0,3002.0,-6.0,-14.0,7.0
2867.0,2819.0,2903.0,3151.0,3045.0,0.772522,-0.096436,-0.627075,-0.025879,-1.0,-1.0,0.0,7684.0,-828.0,1515.0,-293.0,126.0,-81.0,36.0,85.0,-315.0,0.97385,-0.116541,0.194937,15352.0,-1640.0,2952.0,-21.0,-5.0,17.0
2867.0,2823.0,2907.0,3152.0,3051.0,0.772461,-0.096619,-0.627136,-0.025879,-2.0,-1.0,1.0,7683.0,-828.0,1509.0,-295.0,128.0,-86.0,40.0,85.0,-318.0,0.973877,-0.116809,0.194731,15386.0,-1676.0,2924.0,-32.0,-6.0,24.0
2867.0,2823.0,2911.0,3153.0,3051.0,0.772461,-0.096924,-0.627075,-0.02594,-1.0,0.0,0.0,7707.0,-891.0,1509.0,-270.0,69.0,-86.0,36.0,29.0,-287.0,0.973811,-0.117207,0.194751,15406.0,-1944.0,3048.0,-15.0,18.0,14.0
2868.0,2821.0,2907.0,3151.0,3047.0,0.772522,-0.097046,-0.627014,-0.02594,-1.0,0.0,0.0,7685.0,-899.0,1516.0,-292.0,62.0,-80.0,25.0,22.0,-307.0,0.973799,-0.117411,0.194898,15212.0,-1800.0,3042.0,-6.0,21.0,8.0
2866.0,2819.0,2903.0,3147.0,3045.0,0.772583,-0.097107,-0.626892,-0.02594,-1.0,0.0,0.0,7671.0,-896.0,1525.0,-305.0,66.0,-73.0,16.0,26.0,-318.0,0.97369,-0.117523,0.195134,15378.0,-1754.0,3060.0,-11.0,9.0,10.0
2869.0,2823.0,2909.0,3153.0,3047.0,0.772644,-0.097229,-0.626831,-0.02594,-1.0,0.0,0.0,7680.0,-910.0,1522.0,-296.0,54.0,-77.0,19.0,14.0,-309.0,0.973679,-0.117727,0.195281,15392.0,-1914.0,3028.0,-13.0,12.0,10.0
2865.0,2826.0,2911.0,3153.0,3050.0,0.772705,-0.09729,-0.626709,-0.025879,0.0,0.0,0.0,7671.0,-957.0,1524.0,-304.0,8.0,-77.0,10.0,-31.0,-311.0,0.973558,-0.117916,0.195513,15296.0,-2034.0,3098.0,14.0,13.0,3.0
2866.0,2821.0,2906.0,3151.0,3043.0,0.772766,-0.097229,-0.626709,-0.025757,1.0,0.0,0.0,7657.0,-952.0,1530.0,-318.0,14.0,-72.0,3.0,-25.0,-325.0,0.973608,-0.117986,0.195613,15246.0,-1818.0,3136.0,23.0,7.0,1.0
2866.0,2821.0,2906.0,3151.0,3043.0,0.772766,-0.097168,-0.626648,-0.025818,-2.0,0.0,0.0,7682.0,-886.0,1547.0,-293.0,79.0,-56.0,4.0,43.0,-305.0,0.973522,-0.117819,0.195705,15506.0,-1726.0,3080.0,-23.0,6.0,3.0
2867.0,2823.0,2909.0,3153.0,3051.0,0.772827,-0.09729,-0.626587,-0.02594,-2.0,0.0,0.0,7700.0,-904.0,1541.0,-275.0,61.0,-63.0,11.0,25.0,-287.0,0.973534,-0.11787,0.195858,15446.0,-1932.0,3042.0,-31.0,19.0,5.0
2867.0,2827.0,2911.0,3153.0,3055.0,0.772949,-0.097473,-0.626404,-0.026062,-1.0,0.0,-1.0,7674.0,-916.0,1555.0,-300.0,50.0,-52.0,-5.0,14.0,-308.0,0.973437,-0.118033,0.196247,15246.0,-1790.0,3150.0,-15.0,21.0,-3.0
2865.0,2819.0,2901.0,3151.0,3047.0,0.77301,-0.097473,-0.626282,-0.026123,-1.0,0.0,-1.0,7668.0,-911.0,1572.0,-305.0,55.0,-37.0,-20.0,22.0,-310.0,0.973337,-0.117975,0.196497,15290.0,-1810.0,3260.0,-16.0,17.0,-2.0
2867.0,2819.0,2907.0,3151.0,3051.0,0.773132,-0.097595,-0.62616,-0.026245,-1.0,0.0,0.0,7676.0,-900.0,1592.0,-297.0,66.0,-20.0,-33.0,36.0,-300.0,0.973331,-0.118041,0.196822,15428.0,-1788.0,3236.0,-15.0,7.0,4.0
2871.0,2823.0,2910.0,3155.0,3051.0,0.773132,-0.097656,-0.626099,-0.026306,-1.0,0.0,0.0,7685.0,-899.0,1596.0,-287.0,68.0,-16.0,-35.0,40.0,-290.0,0.973252,-0.118062,0.196889,15406.0,-1792.0,3216.0,-12.0,11.0,3.0
2870.0,2827.0,2907.0,3151.0,3047.0,0.773193,-0.097717,-0.626038,-0.026367,-1.0,-1.0,0.0,7684.0,-900.0,1600.0,-288.0,67.0,-14.0,-37.0,39.0,-290.0,0.973249,-0.118095,0.197051,15396.0,-1788.0,3210.0,-7.0,-1.0,0.0
2869.0,2821.0,2903.0,3151.0,3051.0,0.773193,-0.097717,-0.626038,-0.026428,-1.0,-1.0,-1.0,7693.0,-888.0,1609.0,-279.0,78.0,-5.0,-42.0,52.0,-281.0,0.973261,-0.118019,0.197055,15462.0,-1692.0,3286.0,-5.0,-4.0,-3.0
2864.0,2823.0,2907.0,3152.0,3047.0,0.773254,-0.097656,-0.625977,-0.02655,-1.0,0.0,-1.0,7702.0,-889.0,1618.0,-270.0,75.0,2.0,-47.0,51.0,-271.0,0.973264,-0.117787,0.197244,15348.0,-1782.0,3214.0,-7.0,3.0,-2.0
2867.0,2823.0,2907.0,3155.0,3011.0,0.773254,-0.097717,-0.625916,-0.02655,-1.0,-1.0,0.0,7704.0,-895.0,1620.0,-268.0,70.0,3.0,-49.0,47.0,-268.0,0.973173,-0.117884,0.197308,15454.0,-1808.0,3228.0,-5.0,-1.0,0.0
2867.0,2823.0,2909.0,3155.0,3051.0,0.773254,-0.097717,-0.625916,-0.026672,-1.0,-1.0,-1.0,7707.0,-913.0,1620.0,-265.0,51.0,3.0,-51.0,29.0,-263.0,0.973197,-0.117731,0.197315,15386.0,-1954.0,3258.0,-14.0,-1.0,-2.0
2871.0,2826.0,2909.0,3151.0,3047.0,0.773254,-0.097839,-0.625916,-0.026672,-1.0,-1.0,0.0,7694.0,-931.0,1608.0,-278.0,35.0,-8.0,-46.0,10.0,-276.0,0.973203,-0.11792,0.197291,15296.0,-1918.0,3146.0,-13.0,-3.0,1.0
2867.0,2799.0,2903.0,3152.0,3045.0,0.773193,-0.0979,-0.625977,-0.026733,-1.0,-2.0,-1.0,7656.0,-957.0,1591.0,-316.0,9.0,-23.0,-44.0,-21.0,-313.0,0.973236,-0.117923,0.197112,15272.0,-1948.0,3134.0,0.0,-23.0,-11.0
2866.0,2822.0,2909.0,3153.0,3051.0,0.773071,-0.097839,-0.626099,-0.026733,0.0,-2.0,-1.0,7655.0,-952.0,1591.0,-318.0,13.0,-21.0,-45.0,-16.0,-315.0,0.973269,-0.117798,0.196782,15354.0,-1868.0,3190.0,2.0,-31.0,-16.0
2867.0,2825.0,2909.0,3155.0,3047.0,0.772949,-0.097778,-0.626343,-0.026917,-1.0,-1.0,-1.0,7690.0,-939.0,1581.0,-285.0,23.0,-27.0,-31.0,-5.0,-285.0,0.973526,-0.117437,0.196309,15524.0,-1904.0,3168.0,-11.0,-20.0,-16.0
2867.0,2822.0,2907.0,3151.0,3045.0,0.772888,-0.097778,-0.626404,-0.027039,-1.0,-1.0,-1.0,7699.0,-948.0,1569.0,-276.0,12.0,-37.0,-21.0,-17.0,-277.0,0.973568,-0.117269,0.196145,15412.0,-1964.0,3112.0,-14.0,-5.0,-20.0
2865.0,2822.0,2903.0,3151.0,3047.0,0.772827,-0.097717,-0.626465,-0.027222,0.0,-1.0,-2.0,7670.0,-994.0,1547.0,-305.0,-36.0,-58.0,-15.0,-70.0,-304.0,0.973618,-0.11693,0.195996,15288.0,-2144.0,3066.0,3.0,-7.0,-31.0
2867.0,2822.0,2901.0,3153.0,3051.0,0.772827,-0.097595,-0.626526,-0.027283,1.0,-1.0,-2.0,7664.0,-994.0,1534.0,-312.0,-38.0,-71.0,-4.0,-75.0,-313.0,0.973718,-0.116662,0.195947,15284.0,-1916.0,2996.0,23.0,-8.0,-39.0
2866.0,2823.0,2909.0,3152.0,3051.0,0.772766,-0.097107,-0.626648,-0.027466,0.0,-1.0,-2.0,7643.0,-943.0,1546.0,-334.0,4.0,-58.0,-14.0,-33.0,-337.0,0.973839,-0.115659,0.195804,15234.0,-1756.0,3140.0,12.0,-17.0,-38.0
2865.0,2823.0,2903.0,3154.0,3047.0,0.772705,-0.096985,-0.62677,-0.027588,-1.0,-2.0,-2.0,7650.0,-923.0,1562.0,-328.0,21.0,-40.0,-27.0,-12.0,-329.0,0.973968,-0.115299,0.195587,15384.0,-1716.0,3206.0,0.0,-24.0,-28.0
2867.0,2819.0,2903.0,3147.0,3043.0,0.772583,-0.096924,-0.626892,-0.027893,-1.0,-1.0,-2.0,7682.0,-913.0,1574.0,-297.0,27.0,-25.0,-34.0,-1.0,-297.0,0.974059,-0.114792,0.195275,15404.0,-1870.0,3124.0,-22.0,-12.0,-29.0
2846.0,2823.0,2907.0,3159.0,3047.0,0.772522,-0.096924,-0.626953,-0.028076,-1.0,-1.0,-2.0,7681.0,-919.0,1576.0,-298.0,19.0,-22.0,-38.0,-8.0,-296.0,0.974113,-0.114547,0.195114,15336.0,-1834.0,3182.0,-20.0,-13.0,-34.0
2865.0,2827.0,2906.0,3155.0,3047.0,0.7724,-0.096741,-0.627075,-0.028564,-1.0,-1.0,-3.0,7669.0,-919.0,1568.0,-311.0,11.0,-28.0,-37.0,-18.0,-309.0,0.974232,-0.113621,0.194835,15312.0,-1792.0,3026.0,-11.0,-20.0,-50.0
2867.0,2819.0,2901.0,3151.0,3051.0,0.772278,-0.096619,-0.627197,-0.028748,-1.0,-2.0,-3.0,7670.0,-896.0,1566.0,-311.0,31.0,-27.0,-34.0,1.0,-311.0,0.974296,-0.113172,0.194528,15400.0,-1634.0,3122.0,-10.0,-26.0,-47.0
2866.0,2821.0,2896.0,3153.0,3051.0,0.772156,-0.096313,-0.627441,-0.029236,-1.0,-1.0,-2.0,7670.0,-836.0,1558.0,-313.0,81.0,-32.0,-21.0,49.0,-320.0,0.974597,-0.11205,0.19412,15272.0,-1448.0,3110.0,-6.0,-21.0,-39.0
2867.0,2823.0,2910.0,3141.0,3047.0,0.772095,-0.096191,-0.627502,-0.029419,-1.0,-2.0,-2.0,7669.0,-795.0,1550.0,-315.0,119.0,-39.0,-9.0,85.0,-327.0,0.974642,-0.111617,0.193984,15374.0,-1376.0,3046.0,-16.0,-26.0,-34.0
2867.0,2827.0,2906.0,3157.0,3047.0,0.771912,-0.096069,-0.627747,-0.029907,-1.0,-1.0,-2.0,7696.0,-779.0,1538.0,-290.0,128.0,-46.0,4.0,95.0,-305.0,0.974876,-0.110766,0.193447,15384.0,-1574.0,2996.0,-20.0,-16.0,-31.0
2867.0,2822.0,2905.0,3151.0,3047.0,0.771851,-0.095947,-0.627808,-0.030151,-1.0,-1.0,-2.0,7697.0,-770.0,1526.0,-289.0,133.0,-57.0,16.0,98.0,-307.0,0.974933,-0.110255,0.193314,15426.0,-1442.0,2974.0,-12.0,-15.0,-29.0
2865.0,2822.0,2907.0,3152.0,3043.0,0.771667,-0.095825,-0.627991,-0.030457,-1.0,-1.0,-1.0,7704.0,-754.0,1514.0,-283.0,144.0,-65.0,27.0,108.0,-304.0,0.975037,-0.109638,0.192844,15408.0,-1502.0,2992.0,-15.0,-16.0,-20.0
2869.0,2819.0,2906.0,3151.0,3035.0,0.771606,-0.095825,-0.628113,-0.03064,-1.0,-1.0,-1.0,7703.0,-765.0,1514.0,-285.0,131.0,-63.0,23.0,95.0,-304.0,0.975184,-0.109388,0.192607,15382.0,-1612.0,2994.0,-18.0,-17.0,-15.0
2864.0,2823.0,2907.0,3151.0,3043.0,0.771423,-0.095764,-0.628296,-0.030823,-1.0,-1.0,-1.0,7707.0,-800.0,1507.0,-282.0,93.0,-66.0,20.0,58.0,-297.0,0.975268,-0.109018,0.192117,15422.0,-1704.0,3026.0,-4.0,-21.0,-19.0
2869.0,2819.0,2899.0,3152.0,3047.0,0.771362,-0.095703,-0.628418,-0.030884,0.0,-1.0,-1.0,7703.0,-801.0,1500.0,-287.0,90.0,-71.0,23.0,54.0,-303.0,0.975387,-0.108828,0.191885,15376.0,-1572.0,2950.0,5.0,-17.0,-20.0
2864.0,2822.0,2905.0,3147.0,3046.0,0.771179,-0.095459,-0.628601,-0.031067,-1.0,-1.0,-1.0,7688.0,-777.0,1476.0,-302.0,109.0,-92.0,44.0,67.0,-323.0,0.975459,-0.108175,0.191431,15342.0,-1516.0,2896.0,0.0,-18.0,-18.0
2864.0,2827.0,2909.0,3151.0,3055.0,0.771118,-0.095398,-0.628723,-0.031189,-1.0,-1.0,-1.0,7686.0,-771.0,1467.0,-306.0,112.0,-99.0,50.0,69.0,-329.0,0.97559,-0.107908,0.191202,15358.0,-1532.0,2890.0,-3.0,-17.0,-11.0
2862.0,2826.0,2903.0,3155.0,3051.0,0.770996,-0.095337,-0.628906,-0.03125,-1.0,-1.0,0.0,7685.0,-758.0,1473.0,-308.0,124.0,-90.0,43.0,82.0,-331.0,0.975727,-0.107702,0.190799,15346.0,-1462.0,2948.0,-1.0,-16.0,4.0
2864.0,2819.0,2907.0,3155.0,3043.0,0.770935,-0.095337,-0.628967,-0.03125,-1.0,-1.0,0.0,7684.0,-750.0,1476.0,-309.0,132.0,-85.0,40.0,91.0,-331.0,0.975744,-0.107687,0.190628,15376.0,-1462.0,2974.0,-5.0,-16.0,9.0
2868.0,2823.0,2905.0,3155.0,3050.0,0.770874,-0.095459,-0.629028,-0.031311,-1.0,0.0,0.0,7717.0,-751.0,1474.0,-276.0,131.0,-86.0,47.0,92.0,-299.0,0.975781,-0.107783,0.190438,15522.0,-1540.0,2958.0,-13.0,3.0,7.0
2871.0,2823.0,2907.0,3159.0,3055.0,0.770874,-0.095459,-0.629028,-0.031311,-1.0,0.0,0.0,7703.0,-772.0,1477.0,-290.0,110.0,-83.0,38.0,71.0,-310.0,0.975781,-0.107783,0.190438,15258.0,-1668.0,2962.0,-5.0,12.0,7.0
2870.0,2821.0,2911.0,3155.0,3039.0,0.770874,-0.09552,-0.628967,-0.031189,0.0,-1.0,0.0,7684.0,-796.0,1491.0,-308.0,89.0,-69.0,17.0,52.0,-323.0,0.975667,-0.108034,0.190496,15430.0,-1582.0,3124.0,8.0,-2.0,13.0
2871.0,2821.0,2907.0,3153.0,3047.0,0.792603,-0.01825,-0.605286,-0.071228,-2.0,0.0,-1.0,7545.0,508.0,2080.0,-336.0,38.0,-103.0,17.0,56.0,-348.0,0.962102,0.057297,0.266588,15076.0,900.0,4150.0,-36.0,8.0,-8.0
2870.0,2823.0,2909.0,3157.0,3050.0,0.792603,-0.018372,-0.605225,-0.071472,-1.0,0.0,-1.0,7557.0,480.0,2065.0,-323.0,9.0,-119.0,32.0,24.0,-341.0,0.962031,0.057391,0.266693,15118.0,926.0,4094.0,-20.0,21.0,-17.0
2871.0,2821.0,2903.0,3153.0,3043.0,0.792664,-0.018372,-0.605164,-0.071594,-1.0,0.0,-1.0,7548.0,472.0,2066.0,-332.0,0.0,-120.0,29.0,16.0,-351.0,0.962013,0.057527,0.266881,15038.0,902.0,4158.0,-11.0,21.0,-22.0
2864.0,2823.0,2905.0,3152.0,3045.0,0.792786,-0.018188,-0.604919,-0.071899,-1.0,1.0,-2.0,7561.0,508.0,2093.0,-317.0,31.0,-97.0,15.0,48.0,-329.0,0.961758,0.058148,0.26742,15148.0,1236.0,4254.0,-7.0,25.0,-23.0
2871.0,2821.0,2902.0,3151.0,3043.0,0.792908,-0.018127,-0.604797,-0.072083,-2.0,1.0,-1.0,7566.0,531.0,2111.0,-312.0,52.0,-82.0,5.0,70.0,-318.0,0.96171,0.058444,0.26779,15170.0,1156.0,4324.0,-27.0,27.0,-18.0
2871.0,2825.0,2903.0,3155.0,3047.0,0.79303,-0.018372,-0.604614,-0.072449,-3.0,0.0,0.0,7539.0,528.0,2128.0,-338.0,49.0,-69.0,-14.0,71.0,-340.0,0.961616,0.058469,0.268249,15054.0,930.0,4284.0,-48.0,6.0,3.0
2871.0,2823.0,2902.0,3153.0,3045.0,0.79303,-0.018555,-0.604553,-0.072571,-2.0,-1.0,0.0,7552.0,499.0,2127.0,-325.0,21.0,-71.0,-13.0,42.0,-330.0,0.96155,0.058317,0.268334,15176.0,824.0,4230.0,-37.0,0.0,4.0
2873.0,2822.0,2896.0,3154.0,3045.0,0.792969,-0.018738,-0.604614,-0.072693,-1.0,-1.0,-1.0,7553.0,487.0,2124.0,-324.0,10.0,-72.0,-13.0,31.0,-330.0,0.961605,0.058185,0.268174,15198.0,950.0,4292.0,-16.0,-10.0,-3.0
2869.0,2823.0,2903.0,3147.0,3055.0,0.792969,-0.018738,-0.604614,-0.072754,-1.0,-1.0,-1.0,7572.0,481.0,2129.0,-305.0,3.0,-67.0,-14.0,23.0,-311.0,0.961607,0.058259,0.268183,15256.0,930.0,4298.0,-5.0,0.0,-9.0
2873.0,2826.0,2907.0,3151.0,3047.0,0.79303,-0.018616,-0.604492,-0.072937,-1.0,0.0,-1.0,7575.0,514.0,2129.0,-301.0,33.0,-70.0,-6.0,52.0,-306.0,0.961476,0.058654,0.268459,15108.0,1128.0,4274.0,-14.0,13.0,-15.0
2879.0,2822.0,2907.0,3159.0,3047.0,0.79303,-0.018677,-0.604431,-0.07312,-2.0,0.0,-1.0,7568.0,525.0,2127.0,-307.0,43.0,-73.0,-3.0,62.0,-312.0,0.961395,0.05877,0.268557,15126.0,1078.0,4276.0,-35.0,6.0,-7.0
2875.0,2819.0,2907.0,3165.0,3037.0,0.79303,-0.018982,-0.604431,-0.073425,-2.0,-1.0,0.0,7563.0,508.0,2148.0,-313.0,27.0,-52.0,-27.0,49.0,-313.0,0.961451,0.058655,0.26859,15176.0,1014.0,4370.0,-30.0,-13.0,0.0
2871.0,2822.0,2903.0,3159.0,3055.0,0.79303,-0.019043,-0.604431,-0.073547,-1.0,-1.0,-1.0,7582.0,511.0,2162.0,-294.0,30.0,-38.0,-35.0,52.0,-291.0,0.961465,0.058705,0.268606,15300.0,1038.0,4392.0,-21.0,-14.0,-10.0
2871.0,2829.0,2903.0,3152.0,3045.0,0.792969,-0.018982,-0.604492,-0.07373,-1.0,-1.0,-1.0,7589.0,507.0,2167.0,-287.0,23.0,-32.0,-40.0,45.0,-283.0,0.961486,0.059035,0.268465,15172.0,1000.0,4314.0,0.0,-11.0,-16.0
2879.0,2821.0,2901.0,3151.0,3053.0,0.792908,-0.01886,-0.604553,-0.073792,0.0,-1.0,-1.0,7582.0,508.0,2161.0,-294.0,22.0,-36.0,-38.0,45.0,-291.0,0.961493,0.059314,0.268308,15128.0,1024.0,4304.0,9.0,-16.0,-21.0
2875.0,2800.0,2905.0,3155.0,3045.0,0.792786,-0.018494,-0.604736,-0.073914,0.0,-1.0,-2.0,7587.0,572.0,2149.0,-290.0,79.0,-45.0,-20.0,100.0,-286.0,0.961586,0.060073,0.267924,15138.0,1494.0,4234.0,21.0,-20.0,-23.0
2871.0,2826.0,2903.0,3152.0,3051.0,0.792664,-0.018311,-0.604797,-0.074097,-1.0,-1.0,-1.0,7598.0,621.0,2142.0,-278.0,124.0,-50.0,-6.0,143.0,-273.0,0.961515,0.060599,0.267691,15298.0,1486.0,4240.0,-9.0,-22.0,-11.0
2875.0,2823.0,2903.0,3151.0,3055.0,0.792603,-0.018433,-0.604919,-0.074219,-1.0,-1.0,0.0,7599.0,578.0,2098.0,-278.0,81.0,-93.0,28.0,95.0,-287.0,0.961657,0.060573,0.26746,15064.0,964.0,4098.0,-9.0,-5.0,9.0
2871.0,2823.0,2895.0,3155.0,3047.0,0.792542,-0.018433,-0.60498,-0.074158,0.0,-1.0,0.0,7577.0,569.0,2096.0,-301.0,73.0,-93.0,21.0,89.0,-309.0,0.961678,0.060511,0.26728,15054.0,1114.0,4236.0,12.0,-13.0,5.0
2871.0,2822.0,2903.0,3155.0,3047.0,0.79248,-0.018311,-0.605103,-0.074097,0.0,-1.0,0.0,7566.0,597.0,2113.0,-312.0,100.0,-74.0,4.0,119.0,-313.0,0.961777,0.060651,0.267031,15070.0,1296.0,4240.0,4.0,-11.0,14.0
2871.0,2823.0,2911.0,3153.0,3039.0,0.792419,-0.018311,-0.605164,-0.074097,-1.0,-1.0,0.0,7548.0,594.0,2113.0,-331.0,97.0,-73.0,-1.0,118.0,-331.0,0.9618,0.060662,0.266861,15008.0,1098.0,4224.0,-11.0,-16.0,20.0
2869.0,2823.0,2903.0,3153.0,3054.0,0.792358,-0.018555,-0.605225,-0.073914,0.0,-1.0,1.0,7548.0,522.0,2115.0,-331.0,29.0,-69.0,-14.0,51.0,-335.0,0.961852,0.060065,0.266654,15132.0,892.0,4210.0,2.0,-10.0,23.0
2871.0,2819.0,2903.0,3147.0,3047.0,0.792358,-0.018555,-0.605225,-0.073853,0.0,0.0,0.0,7542.0,499.0,2109.0,-337.0,7.0,-75.0,-13.0,29.0,-343.0,0.96185,0.059991,0.266645,15036.0,850.0,4152.0,3.0,2.0,9.0
2869.0,2815.0,2902.0,3143.0,3039.0,0.79248,-0.018616,-0.605164,-0.07373,0.0,0.0,-1.0,7530.0,447.0,2098.0,-349.0,-42.0,-88.0,-11.0,-19.0,-361.0,0.961906,0.059733,0.266892,15008.0,840.0,4142.0,10.0,13.0,-1.0
2874.0,2827.0,2902.0,3153.0,3047.0,0.79248,-0.018555,-0.605103,-0.07373,0.0,0.0,-1.0,7527.0,432.0,2092.0,-352.0,-58.0,-95.0,-7.0,-35.0,-367.0,0.9618,0.059821,0.266968,15054.0,758.0,4120.0,9.0,14.0,-11.0
2874.0,2815.0,2911.0,3154.0,3053.0,0.792603,-0.018372,-0.60498,-0.07373,0.0,0.0,-1.0,7522.0,440.0,2090.0,-356.0,-52.0,-99.0,-4.0,-29.0,-371.0,0.961727,0.060088,0.267316,14976.0,982.0,4220.0,13.0,22.0,-17.0
2868.0,2815.0,2909.0,3151.0,3039.0,0.792664,-0.01825,-0.604858,-0.073792,0.0,1.0,-1.0,7509.0,452.0,2100.0,-368.0,-42.0,-91.0,-13.0,-17.0,-380.0,0.961592,0.060335,0.267574,14938.0,984.0,4274.0,6.0,24.0,-14.0
2874.0,2823.0,2903.0,3149.0,3039.0,0.792786,-0.018188,-0.604675,-0.073853,-1.0,0.0,0.0,7476.0,472.0,2116.0,-400.0,-23.0,-79.0,-30.0,5.0,-407.0,0.961442,0.060474,0.268,14906.0,1014.0,4324.0,-6.0,8.0,3.0
2873.0,2821.0,2910.0,3154.0,3047.0,0.792847,-0.01825,-0.604675,-0.073853,-1.0,0.0,0.0,7479.0,472.0,2122.0,-397.0,-22.0,-74.0,-34.0,7.0,-402.0,0.961525,0.060375,0.268095,14984.0,938.0,4292.0,-11.0,3.0,6.0
2875.0,2815.0,2903.0,3167.0,3047.0,0.792847,-0.018311,-0.604614,-0.073914,-1.0,0.0,0.0,7495.0,468.0,2132.0,-381.0,-26.0,-64.0,-40.0,2.0,-385.0,0.96144,0.060343,0.268175,15096.0,902.0,4360.0,-10.0,7.0,4.0
2869.0,2822.0,2896.0,3150.0,3038.0,0.792969,-0.018311,-0.604431,-0.073975,0.0,0.0,-1.0,7515.0,468.0,2146.0,-359.0,-26.0,-54.0,-44.0,2.0,-361.0,0.961299,0.060386,0.268599,15084.0,972.0,4334.0,6.0,19.0,-17.0
2871.0,2822.0,2901.0,3153.0,3046.0,0.793091,-0.018127,-0.604309,-0.074036,0.0,1.0,-2.0,7513.0,479.0,2157.0,-361.0,-18.0,-46.0,-51.0,11.0,-360.0,0.961228,0.060727,0.268956,15000.0,1100.0,4424.0,12.0,23.0,-25.0
2870.0,2823.0,2910.0,3153.0,3051.0,0.793213,-0.017883,-0.604126,-0.074219,0.0,0.0,-1.0,7510.0,519.0,2166.0,-362.0,16.0,-40.0,-53.0,45.0,-357.0,0.961056,0.061304,0.269407,15080.0,1108.0,4294.0,3.0,16.0,-18.0
2873.0,2819.0,2905.0,3153.0,3043.0,0.793274,-0.017761,-0.604065,-0.07428,-1.0,0.0,-1.0,7514.0,517.0,2164.0,-358.0,12.0,-44.0,-49.0,41.0,-355.0,0.961017,0.061561,0.269591,15030.0,994.0,4332.0,0.0,14.0,-10.0
2870.0,2815.0,2897.0,3153.0,3045.0,0.793335,-0.017761,-0.603943,-0.074341,-1.0,0.0,-1.0,7524.0,504.0,2170.0,-347.0,0.0,-40.0,-51.0,28.0,-344.0,0.960899,0.061614,0.269844,15066.0,970.0,4330.0,-2.0,3.0,-5.0
2871.0,2823.0,2911.0,3151.0,3047.0,0.793335,-0.017761,-0.603943,-0.074402,-1.0,-1.0,-1.0,7536.0,509.0,2169.0,-335.0,3.0,-41.0,-47.0,30.0,-332.0,0.960901,0.061688,0.269854,15188.0,1036.0,4338.0,-14.0,-1.0,-8.0
