flex_1,flex_2,flex_3,flex_4,flex_5,Qw,Qx,Qy,Qz,GYRx,GYRy,GYRz,ACCx,ACCy,ACCz,ACCx_real,ACCy_real,ACCz_real,ACCx_world,ACCy_world,ACCz_world,GRAx,GRAy,GRAz,ACCx_raw,ACCy_raw,ACCz_raw,GYRx_raw,GYRy_raw,GYRz_raw
2908.0,2767.0,2858.0,3099.0,2999.0,1.0,0.0,0.0,0.0,0.0,0.0,0.0,0.0,0.0,0.0,0.0,0.0,0.0,0.0,0.0,0.0,0.0,0.0,0.0,0.0,0.0,0.0,0.0,0.0,0.0
2909.0,2769.0,2847.0,3089.0,2997.0,0.850464,-0.109863,-0.514404,-0.001282,-2.0,-3.0,-1.0,7744.0,-1683.0,486.0,573.0,-162.0,-3172.0,3025.0,-691.0,-885.0,0.875246,-0.185551,0.446609,15422.0,-3474.0,704.0,-40.0,-57.0,-7.0
2899.0,2768.0,2835.0,3071.0,2989.0,0.848572,-0.110657,-0.517395,-0.001526,-2.0,-2.0,-1.0,7727.0,-1669.0,394.0,530.0,-143.0,-3211.0,3047.0,-688.0,-921.0,0.878431,-0.186221,0.440134,15436.0,-3260.0,512.0,-36.0,-39.0,-22.0
2915.0,2775.0,2859.0,3088.0,2999.0,0.847656,-0.111023,-0.51886,-0.001709,-2.0,-2.0,-2.0,7732.0,-1653.0,358.0,522.0,-125.0,-3221.0,3058.0,-675.0,-924.0,0.880009,-0.186445,0.436982,15494.0,-3226.0,528.0,-36.0,-27.0,-25.0
2910.0,2773.0,2847.0,3095.0,2992.0,0.845886,-0.111633,-0.521484,-0.002075,-1.0,-1.0,-2.0,7746.0,-1650.0,321.0,514.0,-120.0,-3210.0,3050.0,-672.0,-907.0,0.882696,-0.186694,0.43112,15526.0,-3298.0,576.0,-12.0,-2.0,-28.0
2907.0,2770.0,2843.0,3095.0,2995.0,0.84436,-0.111938,-0.523926,-0.00238,0.0,0.0,-2.0,7757.0,-1590.0,340.0,504.0,-61.0,-3149.0,3004.0,-605.0,-883.0,0.885297,-0.186539,0.425922,15562.0,-3056.0,784.0,1.0,11.0,-26.0
2915.0,2768.0,2845.0,3091.0,2997.0,0.843628,-0.112061,-0.525085,-0.002502,0.0,0.0,-1.0,7753.0,-1584.0,360.0,490.0,-56.0,-3108.0,2964.0,-594.0,-871.0,0.886514,-0.186447,0.423442,15484.0,-3158.0,822.0,1.0,10.0,-17.0
2903.0,2771.0,2846.0,3071.0,2993.0,0.842163,-0.112366,-0.527405,-0.002502,1.0,-1.0,-1.0,7730.0,-1571.0,390.0,448.0,-42.0,-3038.0,2890.0,-572.0,-865.0,0.888884,-0.186621,0.418463,15372.0,-3130.0,858.0,24.0,-10.0,-5.0
2915.0,2769.0,2841.0,3087.0,2997.0,0.84137,-0.112427,-0.528625,-0.002441,1.0,-2.0,-1.0,7730.0,-1567.0,399.0,438.0,-38.0,-3007.0,2861.0,-563.0,-853.0,0.890088,-0.186604,0.415824,15472.0,-3106.0,818.0,30.0,-24.0,-3.0
2910.0,2779.0,2847.0,3091.0,2973.0,0.839783,-0.11261,-0.531128,-0.002319,0.0,-1.0,0.0,7778.0,-1547.0,404.0,465.0,-17.0,-2958.0,2837.0,-529.0,-795.0,0.892586,-0.186672,0.410462,15730.0,-2946.0,790.0,20.0,-10.0,5.0
2917.0,2769.0,2855.0,3071.0,2995.0,0.83905,-0.112793,-0.532227,-0.002319,0.0,0.0,0.0,7779.0,-1533.0,387.0,458.0,-2.0,-2955.0,2835.0,-515.0,-796.0,0.893653,-0.186809,0.408023,15512.0,-3036.0,628.0,8.0,17.0,7.0
2911.0,2771.0,2847.0,3089.0,2995.0,0.837708,-0.113281,-0.534302,-0.002197,0.0,1.0,0.0,7704.0,-1555.0,325.0,366.0,-19.0,-2980.0,2820.0,-548.0,-870.0,0.895675,-0.187445,0.403448,15206.0,-3090.0,562.0,8.0,25.0,19.0
2907.0,2769.0,2750.0,3089.0,2994.0,0.836975,-0.113525,-0.535278,-0.002075,0.0,0.0,1.0,7700.0,-1545.0,320.0,355.0,-6.0,-2965.0,2806.0,-533.0,-869.0,0.8965,-0.187814,0.401121,15454.0,-3006.0,640.0,11.0,19.0,27.0
2911.0,2771.0,2855.0,3088.0,2994.0,0.835632,-0.114014,-0.537292,-0.00177,0.0,1.0,1.0,7736.0,-1568.0,327.0,376.0,-22.0,-2921.0,2777.0,-538.0,-816.0,0.898362,-0.188645,0.396602,15474.0,-3354.0,698.0,18.0,31.0,40.0
2911.0,2769.0,2844.0,3089.0,2993.0,0.835022,-0.114319,-0.538269,-0.001343,1.0,0.0,3.0,7709.0,-1616.0,324.0,342.0,-63.0,-2907.0,2748.0,-579.0,-827.0,0.89924,-0.189472,0.394461,15290.0,-3442.0,672.0,45.0,14.0,87.0
2899.0,2767.0,2839.0,3071.0,2989.0,0.833679,-0.11499,-0.5401,-0.000183,-1.0,0.0,5.0,7746.0,-1419.0,436.0,368.0,150.0,-2759.0,2656.0,-337.0,-773.0,0.900583,-0.191532,0.39009,15636.0,-2378.0,1178.0,-14.0,12.0,120.0
2911.0,2769.0,2847.0,3088.0,2993.0,0.833069,-0.11554,-0.540955,0.0,-2.0,1.0,3.0,7767.0,-1440.0,453.0,383.0,136.0,-2725.0,2631.0,-344.0,-738.0,0.901305,-0.192505,0.388022,15640.0,-3210.0,962.0,-45.0,25.0,90.0
2913.0,2771.0,2854.0,3093.0,2995.0,0.831848,-0.11615,-0.542664,0.000732,3.0,1.0,2.0,7758.0,-1560.0,446.0,363.0,29.0,-2699.0,2589.0,-444.0,-714.0,0.902657,-0.194033,0.383997,15444.0,-3186.0,888.0,74.0,34.0,54.0
2905.0,2769.0,2850.0,3088.0,2987.0,0.83136,-0.116089,-0.543518,0.00116,3.0,1.0,2.0,7739.0,-1540.0,444.0,337.0,51.0,-2687.0,2573.0,-422.0,-732.0,0.903449,-0.194284,0.382272,15302.0,-2950.0,846.0,91.0,34.0,47.0
2914.0,2775.0,2851.0,3087.0,2997.0,0.830139,-0.116272,-0.545288,0.001831,0.0,0.0,2.0,7685.0,-1539.0,411.0,272.0,58.0,-2687.0,2551.0,-421.0,-781.0,0.904904,-0.195041,0.378276,15262.0,-3262.0,696.0,21.0,10.0,61.0
2913.0,2775.0,2847.0,3118.0,2995.0,0.829468,-0.116577,-0.546204,0.002136,0.0,0.0,2.0,7686.0,-1585.0,403.0,267.0,18.0,-2677.0,2536.0,-459.0,-768.0,0.905619,-0.195728,0.376093,15394.0,-3444.0,772.0,16.0,10.0,64.0
2913.0,2771.0,2851.0,3089.0,2994.0,0.828308,-0.117126,-0.547913,0.002869,1.0,1.0,2.0,7719.0,-1647.0,437.0,288.0,-31.0,-2611.0,2482.0,-490.0,-704.0,0.907009,-0.197177,0.372176,15552.0,-3392.0,1054.0,39.0,36.0,60.0
2911.0,2768.0,2851.0,3071.0,2989.0,0.827759,-0.117371,-0.548645,0.003174,1.0,2.0,2.0,7737.0,-1652.0,475.0,302.0,-31.0,-2559.0,2442.0,-477.0,-667.0,0.907546,-0.197792,0.370407,15598.0,-3332.0,1224.0,38.0,46.0,61.0
2915.0,2770.0,2851.0,3088.0,2993.0,0.826843,-0.117981,-0.549927,0.003845,0.0,2.0,3.0,7733.0,-1688.0,531.0,290.0,-55.0,-2478.0,2363.0,-486.0,-635.0,0.908499,-0.199333,0.367346,15380.0,-3576.0,1182.0,11.0,54.0,72.0
2909.0,2771.0,2846.0,3087.0,2993.0,0.826355,-0.118347,-0.550537,0.004211,0.0,2.0,3.0,7702.0,-1721.0,540.0,256.0,-80.0,-2456.0,2328.0,-511.0,-649.0,0.908881,-0.200231,0.365783,15182.0,-3610.0,1134.0,18.0,47.0,74.0
2911.0,2769.0,2851.0,3091.0,2995.0,0.825256,-0.119141,-0.552002,0.004944,0.0,0.0,2.0,7648.0,-1778.0,540.0,194.0,-122.0,-2426.0,2273.0,-555.0,-677.0,0.909908,-0.202101,0.362172,15358.0,-3672.0,1066.0,10.0,6.0,61.0
2911.0,2769.0,2854.0,3091.0,2999.0,0.824585,-0.119568,-0.552856,0.005188,-1.0,-1.0,2.0,7682.0,-1797.0,537.0,223.0,-134.0,-2412.0,2272.0,-560.0,-638.0,0.910514,-0.202924,0.360021,15584.0,-3678.0,1062.0,-5.0,-2.0,52.0
2910.0,2773.0,2847.0,3071.0,2983.0,0.823242,-0.120422,-0.554688,0.005432,-2.0,-1.0,1.0,7749.0,-1826.0,515.0,278.0,-152.0,-2397.0,2280.0,-568.0,-567.0,0.911976,-0.2043,0.355577,15646.0,-3820.0,952.0,-25.0,-2.0,26.0
2907.0,2774.0,2823.0,3090.0,2997.0,0.822632,-0.120789,-0.555603,0.005493,-1.0,-1.0,0.0,7763.0,-1838.0,504.0,285.0,-160.0,-2391.0,2277.0,-575.0,-552.0,0.912786,-0.204833,0.353469,15602.0,-3690.0,926.0,-10.0,-1.0,10.0
2909.0,2775.0,2854.0,3090.0,2993.0,0.82135,-0.121216,-0.557373,0.005432,-1.0,0.0,-1.0,7775.0,-1818.0,501.0,285.0,-137.0,-2360.0,2254.0,-547.0,-535.0,0.91428,-0.205177,0.349288,15520.0,-3586.0,1004.0,-4.0,6.0,-18.0
2911.0,2771.0,2879.0,3087.0,2989.0,0.82074,-0.121399,-0.558228,0.005371,0.0,0.0,-2.0,7754.0,-1819.0,502.0,258.0,-137.0,-2342.0,2228.0,-548.0,-549.0,0.915015,-0.20527,0.347287,15354.0,-3646.0,1006.0,5.0,9.0,-23.0
2911.0,2749.0,2843.0,3093.0,2998.0,0.819519,-0.121582,-0.559998,0.005188,0.0,-1.0,-2.0,7701.0,-1771.0,513.0,192.0,-90.0,-2298.0,2172.0,-504.0,-594.0,0.916596,-0.205088,0.343259,15348.0,-3366.0,1036.0,1.0,-9.0,-27.0
2911.0,2775.0,2853.0,3091.0,3003.0,0.818909,-0.121704,-0.560913,0.005066,-1.0,-1.0,-2.0,7697.0,-1758.0,523.0,181.0,-78.0,-2272.0,2147.0,-489.0,-593.0,0.91744,-0.205012,0.341202,15390.0,-3420.0,1084.0,-8.0,-12.0,-32.0
2919.0,2778.0,2846.0,3089.0,2995.0,0.817627,-0.121887,-0.562744,0.004761,-1.0,-1.0,-2.0,7681.0,-1725.0,529.0,151.0,-48.0,-2231.0,2104.0,-457.0,-603.0,0.919069,-0.204675,0.336999,15300.0,-3296.0,1058.0,0.0,-19.0,-33.0
2907.0,2768.0,2847.0,3093.0,2997.0,0.816956,-0.121948,-0.56366,0.004578,-1.0,-2.0,-2.0,7687.0,-1706.0,529.0,151.0,-31.0,-2214.0,2092.0,-437.0,-596.0,0.919853,-0.204413,0.334854,15432.0,-3302.0,1084.0,-7.0,-27.0,-27.0
2907.0,2768.0,2845.0,3089.0,2999.0,0.815552,-0.122253,-0.565613,0.004395,-1.0,-2.0,-1.0,7711.0,-1683.0,530.0,162.0,-8.0,-2175.0,2066.0,-407.0,-567.0,0.921499,-0.204379,0.33028,15480.0,-3364.0,1032.0,-11.0,-33.0,-4.0
2918.0,2769.0,2849.0,3089.0,2995.0,0.81488,-0.122498,-0.566528,0.004395,-1.0,-2.0,0.0,7730.0,-1686.0,523.0,175.0,-9.0,-2164.0,2061.0,-404.0,-546.0,0.922229,-0.204621,0.328089,15602.0,-3390.0,1036.0,-8.0,-30.0,4.0
2903.0,2763.0,2861.0,3087.0,2994.0,0.813538,-0.122925,-0.568359,0.004578,0.0,-1.0,0.0,7721.0,-1738.0,484.0,154.0,-56.0,-2167.0,2053.0,-453.0,-547.0,0.923638,-0.205211,0.323721,15354.0,-3602.0,856.0,6.0,-17.0,14.0
2914.0,2773.0,2847.0,3087.0,2991.0,0.812927,-0.123169,-0.569214,0.004639,0.0,-1.0,0.0,7701.0,-1749.0,464.0,129.0,-65.0,-2171.0,2048.0,-467.0,-565.0,0.924316,-0.205536,0.321697,15266.0,-3522.0,818.0,10.0,-15.0,9.0
2918.0,2771.0,2837.0,3095.0,2995.0,0.811584,-0.123474,-0.570984,0.0047,-1.0,-1.0,-1.0,7667.0,-1746.0,418.0,84.0,-60.0,-2182.0,2046.0,-471.0,-602.0,0.925643,-0.205786,0.317423,15304.0,-3500.0,738.0,-1.0,-22.0,-7.0
2923.0,2767.0,2851.0,3099.0,2991.0,0.810913,-0.123657,-0.571899,0.0047,-1.0,-1.0,-1.0,7691.0,-1734.0,409.0,102.0,-47.0,-2173.0,2047.0,-454.0,-580.0,0.926359,-0.205926,0.315242,15564.0,-3336.0,806.0,-7.0,-18.0,-6.0
2919.0,2771.0,2847.0,3095.0,2995.0,0.809753,-0.124084,-0.573486,0.004456,-2.0,0.0,-1.0,7738.0,-1688.0,429.0,138.0,0.0,-2122.0,2020.0,-394.0,-532.0,0.927659,-0.206066,0.311437,15480.0,-3234.0,944.0,-25.0,18.0,-8.0
2909.0,2770.0,2851.0,3095.0,2998.0,0.809265,-0.124329,-0.574158,0.004272,-2.0,0.0,-1.0,7723.0,-1688.0,429.0,118.0,0.0,-2108.0,2001.0,-396.0,-543.0,0.928229,-0.206136,0.309814,15304.0,-3406.0,828.0,-30.0,19.0,-6.0
2911.0,2767.0,2854.0,3090.0,2995.0,0.808105,-0.124817,-0.575623,0.004211,-1.0,-1.0,0.0,7695.0,-1687.0,445.0,82.0,5.0,-2062.0,1948.0,-388.0,-556.0,0.929276,-0.206579,0.306132,15384.0,-3320.0,1012.0,-9.0,-4.0,10.0
2903.0,2771.0,2855.0,3089.0,2999.0,0.807556,-0.125,-0.576355,0.004272,-1.0,-1.0,0.0,7703.0,-1691.0,453.0,85.0,3.0,-2040.0,1930.0,-386.0,-542.0,0.92981,-0.206814,0.304355,15468.0,-3430.0,922.0,-7.0,-8.0,14.0
2910.0,2773.0,2863.0,3093.0,2995.0,0.806396,-0.125366,-0.577942,0.004456,1.0,-1.0,0.0,7691.0,-1715.0,449.0,64.0,-16.0,-2013.0,1897.0,-402.0,-542.0,0.930983,-0.20734,0.300562,15368.0,-3396.0,874.0,23.0,-17.0,7.0
2911.0,2773.0,2847.0,3087.0,2997.0,0.805786,-0.125366,-0.578735,0.004517,1.0,-1.0,0.0,7696.0,-1704.0,451.0,64.0,-6.0,-1995.0,1883.0,-388.0,-534.0,0.931541,-0.207265,0.29866,15436.0,-3306.0,914.0,32.0,-18.0,1.0
2919.0,2767.0,2847.0,3091.0,2995.0,0.804688,-0.125488,-0.580261,0.0047,0.0,-1.0,0.0,7722.0,-1689.0,450.0,81.0,10.0,-1967.0,1867.0,-364.0,-506.0,0.932678,-0.207412,0.295094,15474.0,-3308.0,846.0,12.0,-3.0,11.0
2915.0,2773.0,2851.0,3089.0,2998.0,0.804138,-0.125671,-0.580994,0.004761,0.0,0.0,0.0,7726.0,-1677.0,437.0,81.0,24.0,-1965.0,1868.0,-350.0,-505.0,0.933202,-0.207646,0.293314,15456.0,-3282.0,804.0,3.0,3.0,18.0
2910.0,2773.0,2859.0,3093.0,2999.0,0.803101,-0.126099,-0.582275,0.004822,-1.0,0.0,0.0,7744.0,-1688.0,415.0,92.0,17.0,-1961.0,1868.0,-355.0,-486.0,0.934035,-0.208155,0.290048,15472.0,-3534.0,802.0,-7.0,21.0,15.0
2907.0,2771.0,2849.0,3071.0,2997.0,0.802673,-0.126282,-0.582886,0.004822,-1.0,1.0,0.0,7732.0,-1704.0,412.0,76.0,2.0,-1952.0,1853.0,-371.0,-492.0,0.934516,-0.208347,0.288605,15386.0,-3502.0,836.0,-2.0,27.0,12.0
2909.0,2770.0,2847.0,3087.0,2991.0,0.801758,-0.126648,-0.584045,0.004944,0.0,0.0,0.0,7709.0,-1738.0,447.0,47.0,-27.0,-1893.0,1786.0,-392.0,-491.0,0.935274,-0.208857,0.285691,15374.0,-3574.0,1054.0,5.0,13.0,7.0
2915.0,2773.0,2855.0,3090.0,2999.0,0.80127,-0.126831,-0.584717,0.005005,0.0,0.0,0.0,7698.0,-1753.0,473.0,32.0,-40.0,-1854.0,1744.0,-399.0,-488.0,0.935762,-0.209105,0.284078,15334.0,-3578.0,1106.0,7.0,3.0,4.0
2909.0,2769.0,2849.0,3094.0,2998.0,0.800232,-0.126831,-0.58606,0.005066,1.0,-1.0,-2.0,7697.0,-1743.0,515.0,23.0,-31.0,-1785.0,1679.0,-378.0,-473.0,0.936682,-0.208926,0.280845,15444.0,-3332.0,1140.0,42.0,-21.0,-28.0
2911.0,2770.0,2851.0,3089.0,2995.0,0.799744,-0.126587,-0.586853,0.005066,2.0,-2.0,-2.0,7713.0,-1695.0,533.0,33.0,12.0,-1754.0,1660.0,-327.0,-461.0,0.937381,-0.20842,0.279195,15512.0,-3074.0,1168.0,66.0,-23.0,-40.0
2914.0,2768.0,2849.0,3095.0,2999.0,0.798767,-0.125916,-0.588257,0.005127,2.0,-1.0,-1.0,7748.0,-1539.0,505.0,60.0,158.0,-1757.0,1694.0,-180.0,-461.0,0.938469,-0.207186,0.276154,15580.0,-2578.0,848.0,55.0,-6.0,-2.0
2911.0,2775.0,2854.0,3089.0,2995.0,0.798279,-0.125854,-0.588928,0.005188,0.0,0.0,1.0,7744.0,-1474.0,474.0,52.0,222.0,-1775.0,1718.0,-122.0,-484.0,0.938952,-0.207045,0.2746,15454.0,-2626.0,752.0,9.0,3.0,36.0
2913.0,2775.0,2857.0,3093.0,2997.0,0.797241,-0.126709,-0.590149,0.005432,-2.0,0.0,3.0,7711.0,-1532.0,392.0,13.0,175.0,-1830.0,1753.0,-186.0,-520.0,0.939605,-0.208447,0.271292,15274.0,-3486.0,576.0,-45.0,13.0,80.0
2914.0,2768.0,2852.0,3099.0,2993.0,0.796753,-0.127319,-0.590759,0.005676,-2.0,0.0,3.0,7691.0,-1624.0,374.0,-8.0,92.0,-1834.0,1739.0,-272.0,-521.0,0.939933,-0.209591,0.269641,15258.0,-3828.0,664.0,-29.0,15.0,75.0
2914.0,2771.0,2847.0,3091.0,2995.0,0.795898,-0.127991,-0.591736,0.006348,1.0,1.0,2.0,7691.0,-1768.0,400.0,-11.0,-37.0,-1786.0,1676.0,-388.0,-479.0,0.940298,-0.211248,0.266962,15448.0,-3776.0,986.0,35.0,32.0,49.0
2923.0,2773.0,2853.0,3090.0,2991.0,0.795532,-0.128174,-0.592102,0.006653,1.0,1.0,1.0,7704.0,-1781.0,428.0,0.0,-45.0,-1750.0,1645.0,-386.0,-455.0,0.940367,-0.211811,0.265902,15486.0,-3572.0,1060.0,32.0,40.0,43.0
2915.0,2775.0,2850.0,3091.0,3001.0,0.794922,-0.12854,-0.592896,0.006958,0.0,1.0,1.0,7702.0,-1794.0,471.0,-5.0,-52.0,-1690.0,1587.0,-382.0,-439.0,0.940822,-0.212609,0.263902,15392.0,-3716.0,1028.0,9.0,40.0,29.0
2914.0,2768.0,2855.0,3071.0,2994.0,0.794556,-0.128723,-0.593323,0.007141,0.0,1.0,1.0,7697.0,-1801.0,482.0,-11.0,-55.0,-1670.0,1566.0,-382.0,-437.0,0.941017,-0.213029,0.262768,15372.0,-3612.0,1020.0,18.0,32.0,26.0
2911.0,2769.0,2847.0,3094.0,2995.0,0.793823,-0.128967,-0.594238,0.007385,0.0,0.0,0.0,7709.0,-1764.0,507.0,-4.0,-14.0,-1626.0,1533.0,-332.0,-424.0,0.941535,-0.213532,0.260458,15462.0,-3410.0,1064.0,16.0,18.0,22.0
2919.0,2769.0,2851.0,3087.0,2995.0,0.793457,-0.12915,-0.594727,0.007446,-1.0,0.0,1.0,7726.0,-1747.0,514.0,10.0,4.0,-1609.0,1525.0,-309.0,-408.0,0.941857,-0.213808,0.25925,15558.0,-3396.0,1064.0,0.0,15.0,24.0
2911.0,2771.0,2851.0,3089.0,2999.0,0.792603,-0.1297,-0.595703,0.007446,-2.0,0.0,0.0,7739.0,-1785.0,518.0,19.0,-28.0,-1583.0,1499.0,-335.0,-382.0,0.94238,-0.214472,0.25659,15430.0,-3700.0,996.0,-28.0,20.0,16.0
2915.0,2768.0,2843.0,3071.0,3003.0,0.792236,-0.130005,-0.596191,0.007385,-2.0,0.0,0.0,7732.0,-1799.0,525.0,9.0,-39.0,-1566.0,1479.0,-344.0,-383.0,0.942729,-0.214795,0.255347,15428.0,-3680.0,1112.0,-31.0,16.0,5.0
2911.0,2775.0,2846.0,3071.0,2999.0,0.791382,-0.130554,-0.597168,0.007141,-2.0,0.0,-1.0,7737.0,-1841.0,543.0,9.0,-78.0,-1526.0,1436.0,-376.0,-360.0,0.943311,-0.215165,0.252682,15480.0,-3808.0,1162.0,-28.0,8.0,-21.0
2917.0,2771.0,2847.0,3087.0,2992.0,0.790955,-0.130676,-0.597717,0.007019,-1.0,0.0,-2.0,7734.0,-1851.0,568.0,3.0,-88.0,-1490.0,1399.0,-379.0,-352.0,0.9437,-0.215109,0.251316,15420.0,-3746.0,1292.0,-19.0,1.0,-26.0
2923.0,2771.0,2851.0,3088.0,2992.0,0.790039,-0.13092,-0.598877,0.006714,-1.0,-2.0,-2.0,7715.0,-1837.0,591.0,-22.0,-76.0,-1443.0,1350.0,-363.0,-362.0,0.944514,-0.214906,0.248413,15356.0,-3588.0,1224.0,-12.0,-23.0,-30.0
2911.0,2769.0,2845.0,3071.0,2991.0,0.789551,-0.130981,-0.599548,0.006592,-1.0,-2.0,-2.0,7707.0,-1828.0,580.0,-34.0,-68.0,-1441.0,1347.0,-358.0,-373.0,0.945021,-0.214737,0.24682,15348.0,-3620.0,1052.0,-9.0,-37.0,-37.0
2907.0,2775.0,2855.0,3091.0,2997.0,0.788391,-0.130981,-0.601013,0.006226,-1.0,-2.0,-3.0,7719.0,-1814.0,540.0,-30.0,-60.0,-1452.0,1361.0,-351.0,-368.0,0.946036,-0.214013,0.243226,15452.0,-3568.0,922.0,-1.0,-39.0,-53.0
2923.0,2779.0,2851.0,3088.0,2992.0,0.787842,-0.13092,-0.601746,0.006042,-1.0,-2.0,-3.0,7719.0,-1783.0,517.0,-35.0,-33.0,-1461.0,1373.0,-328.0,-378.0,0.946579,-0.213561,0.241493,15414.0,-3366.0,902.0,-2.0,-31.0,-56.0
2921.0,2771.0,2847.0,3095.0,2999.0,0.786804,-0.13092,-0.603149,0.005432,-2.0,-2.0,-3.0,7714.0,-1710.0,492.0,-49.0,31.0,-1459.0,1378.0,-269.0,-400.0,0.947699,-0.21257,0.238161,15410.0,-3284.0,960.0,-38.0,-27.0,-47.0
2908.0,2771.0,2859.0,3093.0,2993.0,0.786255,-0.131042,-0.603821,0.005127,-2.0,-2.0,-2.0,7708.0,-1707.0,481.0,-59.0,31.0,-1456.0,1373.0,-270.0,-406.0,0.94817,-0.212257,0.236451,15368.0,-3432.0,904.0,-39.0,-24.0,-40.0
2910.0,2771.0,2849.0,3071.0,2995.0,0.785278,-0.131165,-0.605103,0.0047,-1.0,-2.0,-2.0,7699.0,-1678.0,489.0,-76.0,56.0,-1422.0,1341.0,-243.0,-415.0,0.949115,-0.211689,0.233331,15434.0,-3208.0,1062.0,-10.0,-25.0,-29.0
2911.0,2769.0,2842.0,3071.0,2991.0,0.78479,-0.131226,-0.605713,0.004517,-1.0,-2.0,-1.0,7703.0,-1658.0,493.0,-75.0,74.0,-1405.0,1328.0,-222.0,-412.0,0.94953,-0.211441,0.231808,15392.0,-3236.0,1000.0,-17.0,-26.0,-22.0
2911.0,2773.0,2854.0,3071.0,2995.0,0.783691,-0.131592,-0.607056,0.004333,-2.0,-3.0,-1.0,7689.0,-1672.0,474.0,-96.0,60.0,-1396.0,1313.0,-238.0,-422.0,0.950348,-0.211516,0.228358,15364.0,-3412.0,904.0,-26.0,-50.0,-3.0
2917.0,2781.0,2851.0,3091.0,2999.0,0.783081,-0.131775,-0.607788,0.004272,-1.0,-3.0,0.0,7702.0,-1690.0,461.0,-86.0,43.0,-1394.0,1312.0,-253.0,-406.0,0.950769,-0.211574,0.226463,15524.0,-3486.0,854.0,-18.0,-57.0,0.0
2907.0,2771.0,2863.0,3093.0,2990.0,0.781921,-0.132019,-0.609192,0.004211,-1.0,-2.0,-1.0,7752.0,-1694.0,441.0,-43.0,39.0,-1384.0,1314.0,-248.0,-357.0,0.951568,-0.211588,0.222875,15622.0,-3336.0,802.0,-8.0,-39.0,-8.0
2915.0,2769.0,2855.0,3071.0,2995.0,0.781433,-0.132141,-0.609802,0.00415,-1.0,-1.0,-1.0,7758.0,-1690.0,418.0,-40.0,43.0,-1395.0,1327.0,-246.0,-355.0,0.951942,-0.211581,0.221335,15518.0,-3386.0,684.0,-10.0,-22.0,-16.0
2923.0,2768.0,2858.0,3088.0,3003.0,0.780518,-0.132324,-0.611023,0.003967,-1.0,-1.0,-1.0,7722.0,-1686.0,375.0,-83.0,45.0,-1413.0,1335.0,-255.0,-397.0,0.952778,-0.211411,0.218365,15330.0,-3338.0,646.0,-4.0,-7.0,-15.0
2919.0,2773.0,2870.0,3103.0,3005.0,0.780029,-0.132324,-0.611572,0.003906,0.0,-1.0,-1.0,7691.0,-1684.0,360.0,-116.0,46.0,-1417.0,1331.0,-260.0,-427.0,0.953055,-0.211211,0.216931,15180.0,-3360.0,664.0,4.0,-7.0,-15.0
2911.0,2771.0,2855.0,3071.0,2995.0,0.779175,-0.132263,-0.612671,0.003845,0.0,-2.0,-1.0,7670.0,-1667.0,385.0,-143.0,60.0,-1370.0,1283.0,-242.0,-442.0,0.953738,-0.210824,0.214269,15432.0,-3286.0,936.0,19.0,-25.0,-18.0
2915.0,2773.0,2851.0,3091.0,3007.0,0.778748,-0.132263,-0.613281,0.003845,0.0,-2.0,-1.0,7696.0,-1649.0,413.0,-120.0,77.0,-1330.0,1254.0,-213.0,-413.0,0.954165,-0.210716,0.212855,15562.0,-3184.0,990.0,9.0,-24.0,-4.0
2914.0,2771.0,2835.0,3095.0,2995.0,0.777832,-0.132507,-0.61438,0.003845,-1.0,-2.0,0.0,7748.0,-1638.0,471.0,-73.0,89.0,-1249.0,1191.0,-178.0,-350.0,0.95475,-0.210862,0.210017,15650.0,-3334.0,1098.0,-13.0,-33.0,11.0
2911.0,2773.0,2852.0,3094.0,2992.0,0.777344,-0.132568,-0.614929,0.003845,0.0,-2.0,0.0,7767.0,-1655.0,491.0,-56.0,72.0,-1217.0,1162.0,-185.0,-322.0,0.955003,-0.210831,0.208566,15622.0,-3416.0,1054.0,1.0,-35.0,5.0
2915.0,2771.0,2851.0,3095.0,2995.0,0.776428,-0.132507,-0.616089,0.003967,1.0,-2.0,-1.0,7779.0,-1676.0,503.0,-49.0,49.0,-1182.0,1127.0,-198.0,-300.0,0.955646,-0.210653,0.205733,15590.0,-3346.0,978.0,29.0,-42.0,-14.0
2928.0,2769.0,2831.0,3088.0,2997.0,0.77594,-0.132446,-0.616699,0.004028,1.0,-3.0,-1.0,7768.0,-1673.0,484.0,-63.0,51.0,-1189.0,1132.0,-199.0,-313.0,0.955976,-0.210509,0.204239,15430.0,-3328.0,832.0,26.0,-48.0,-16.0
2918.0,2767.0,2846.0,3071.0,2983.0,0.774902,-0.132446,-0.618042,0.003906,-1.0,-2.0,-1.0,7753.0,-1657.0,432.0,-85.0,64.0,-1214.0,1154.0,-196.0,-338.0,0.95681,-0.210094,0.200971,15512.0,-3362.0,690.0,-12.0,-45.0,-19.0
2901.0,2779.0,2858.0,3095.0,3011.0,0.774414,-0.132568,-0.618652,0.003784,-1.0,-2.0,-1.0,7752.0,-1677.0,401.0,-89.0,43.0,-1232.0,1167.0,-220.0,-339.0,0.957183,-0.210008,0.199426,15506.0,-3490.0,644.0,-22.0,-32.0,-18.0
2923.0,2781.0,2849.0,3071.0,3003.0,0.773499,-0.132874,-0.619751,0.003479,-2.0,-1.0,-1.0,7734.0,-1686.0,344.0,-112.0,33.0,-1266.0,1194.0,-241.0,-363.0,0.957828,-0.209867,0.196565,15378.0,-3406.0,530.0,-27.0,-6.0,-22.0
2927.0,2769.0,2849.0,3071.0,2987.0,0.773071,-0.132996,-0.620239,0.003296,-2.0,-1.0,-2.0,7717.0,-1697.0,319.0,-131.0,21.0,-1280.0,1201.0,-259.0,-379.0,0.958102,-0.209719,0.195265,15368.0,-3488.0,526.0,-29.0,-1.0,-23.0
2911.0,2769.0,2863.0,3088.0,3003.0,0.772339,-0.13324,-0.621094,0.002991,-1.0,0.0,-2.0,7717.0,-1702.0,332.0,-135.0,14.0,-1249.0,1170.0,-261.0,-373.0,0.958593,-0.209528,0.193006,15496.0,-3298.0,784.0,-13.0,11.0,-27.0
2914.0,2775.0,2843.0,3101.0,2993.0,0.772034,-0.13324,-0.62146,0.002747,-1.0,0.0,-2.0,7739.0,-1679.0,356.0,-115.0,34.0,-1217.0,1148.0,-232.0,-351.0,0.958844,-0.209145,0.192078,15598.0,-3204.0,826.0,-13.0,21.0,-29.0
2915.0,2771.0,2851.0,3095.0,2999.0,0.771484,-0.133423,-0.62207,0.00238,-2.0,0.0,-1.0,7736.0,-1672.0,403.0,-121.0,38.0,-1156.0,1089.0,-218.0,-344.0,0.9592,-0.208829,0.190421,15350.0,-3346.0,962.0,-23.0,20.0,-18.0
2919.0,2763.0,2844.0,3071.0,3007.0,0.771179,-0.133545,-0.622437,0.002258,-2.0,0.0,-1.0,7705.0,-1666.0,412.0,-154.0,44.0,-1140.0,1067.0,-215.0,-372.0,0.959417,-0.208785,0.189461,15238.0,-3308.0,902.0,-23.0,2.0,-10.0
2927.0,2767.0,2838.0,3094.0,3007.0,0.770386,-0.133789,-0.623352,0.002075,-1.0,-2.0,-1.0,7705.0,-1654.0,445.0,-158.0,55.0,-1087.0,1018.0,-195.0,-366.0,0.959888,-0.208726,0.187031,15540.0,-3298.0,1010.0,-19.0,-28.0,-5.0
2925.0,2768.0,2853.0,3095.0,2982.0,0.77002,-0.133911,-0.623779,0.002014,-1.0,-1.0,-1.0,7732.0,-1648.0,452.0,-133.0,62.0,-1070.0,1009.0,-180.0,-339.0,0.960105,-0.208741,0.185901,15638.0,-3234.0,914.0,-17.0,-21.0,-5.0
2923.0,2774.0,2864.0,3091.0,2975.0,0.769287,-0.134094,-0.624634,0.001709,-1.0,-1.0,-1.0,7735.0,-1630.0,425.0,-134.0,77.0,-1079.0,1020.0,-168.0,-342.0,0.960587,-0.208449,0.183657,15360.0,-3256.0,684.0,-21.0,-3.0,-16.0
2915.0,2771.0,2859.0,3099.0,2994.0,0.768921,-0.134216,-0.625061,0.001587,-1.0,-1.0,-1.0,7721.0,-1636.0,406.0,-150.0,71.0,-1089.0,1026.0,-179.0,-357.0,0.960819,-0.208387,0.182527,15374.0,-3288.0,728.0,-21.0,-6.0,-13.0
2923.0,2775.0,2863.0,3099.0,2997.0,0.768188,-0.13446,-0.625977,0.001343,-2.0,-1.0,-1.0,7712.0,-1631.0,376.0,-163.0,75.0,-1100.0,1035.0,-180.0,-370.0,0.961375,-0.208263,0.180189,15424.0,-3338.0,672.0,-30.0,-6.0,-10.0
2922.0,2774.0,2863.0,3071.0,3003.0,0.767822,-0.134644,-0.626343,0.001221,-1.0,-1.0,-1.0,7718.0,-1652.0,369.0,-158.0,54.0,-1098.0,1031.0,-200.0,-359.0,0.961511,-0.208294,0.179118,15496.0,-3422.0,726.0,-21.0,0.0,-10.0
2918.0,2770.0,2838.0,3089.0,2999.0,0.767212,-0.134827,-0.627075,0.001038,-1.0,-1.0,-1.0,7701.0,-1666.0,368.0,-179.0,39.0,-1083.0,1010.0,-215.0,-372.0,0.961919,-0.208183,0.177214,15368.0,-3342.0,780.0,-6.0,0.0,-13.0
2905.0,2769.0,2853.0,3093.0,2983.0,0.766846,-0.134888,-0.627502,0.000977,-1.0,-1.0,-1.0,7715.0,-1674.0,387.0,-166.0,30.0,-1055.0,985.0,-216.0,-351.0,0.962132,-0.208102,0.176099,15536.0,-3388.0,894.0,-8.0,-7.0,-10.0
2915.0,2773.0,2851.0,3102.0,2983.0,0.766235,-0.135132,-0.628235,0.000793,-2.0,-1.0,-1.0,7758.0,-1669.0,421.0,-127.0,35.0,-1005.0,946.0,-195.0,-304.0,0.962537,-0.208083,0.174178,15632.0,-3408.0,874.0,-29.0,0.0,-6.0
2917.0,2762.0,2834.0,3091.0,2993.0,0.76593,-0.135315,-0.62854,0.000732,-1.0,0.0,-1.0,7758.0,-1689.0,427.0,-127.0,16.0,-992.0,931.0,-211.0,-297.0,0.962637,-0.208204,0.173277,15464.0,-3490.0,868.0,-21.0,1.0,-4.0
2910.0,2767.0,2863.0,3095.0,2992.0,0.765259,-0.135559,-0.629333,0.00061,-1.0,-2.0,-1.0,7714.0,-1670.0,424.0,-175.0,35.0,-978.0,911.0,-198.0,-343.0,0.96304,-0.208244,0.171184,15358.0,-3274.0,798.0,-17.0,-23.0,-2.0
2929.0,2774.0,2834.0,3088.0,2993.0,0.764832,-0.135742,-0.629761,0.000549,-2.0,-2.0,0.0,7724.0,-1662.0,422.0,-166.0,44.0,-970.0,907.0,-186.0,-333.0,0.963173,-0.208332,0.169943,15564.0,-3274.0,838.0,-26.0,-25.0,1.0
2925.0,2769.0,2857.0,3093.0,2992.0,0.76416,-0.136108,-0.630493,0.000305,-2.0,0.0,-1.0,7749.0,-1666.0,396.0,-144.0,41.0,-979.0,920.0,-188.0,-311.0,0.963512,-0.208402,0.167894,15460.0,-3376.0,612.0,-33.0,8.0,-3.0
2919.0,2769.0,2833.0,3099.0,2992.0,0.763855,-0.136292,-0.630798,0.000183,-2.0,0.0,-1.0,7724.0,-1680.0,364.0,-170.0,27.0,-1004.0,937.0,-212.0,-337.0,0.963627,-0.208445,0.166993,15294.0,-3454.0,516.0,-26.0,7.0,-8.0
2903.0,2771.0,2858.0,3087.0,2999.0,0.763245,-0.136536,-0.631531,-6.1e-05,-2.0,0.0,-1.0,7719.0,-1646.0,344.0,-178.0,60.0,-1008.0,946.0,-183.0,-350.0,0.964042,-0.208343,0.165069,15530.0,-3198.0,670.0,-23.0,1.0,-20.0
2899.0,2771.0,2842.0,3089.0,2995.0,0.762939,-0.136597,-0.631897,-0.000244,-2.0,0.0,-1.0,7737.0,-1632.0,351.0,-162.0,72.0,-993.0,937.0,-165.0,-334.0,0.964265,-0.208121,0.164124,15606.0,-3164.0,756.0,-30.0,7.0,-20.0
2917.0,2775.0,2851.0,3089.0,2975.0,0.76239,-0.136841,-0.632507,-0.000732,-2.0,0.0,-1.0,7761.0,-1602.0,363.0,-141.0,99.0,-967.0,921.0,-131.0,-313.0,0.964635,-0.207726,0.162448,15568.0,-3110.0,806.0,-37.0,12.0,-13.0
2910.0,2771.0,2867.0,3060.0,2998.0,0.762146,-0.136963,-0.632751,-0.000916,-2.0,0.0,-1.0,7764.0,-1602.0,372.0,-139.0,98.0,-952.0,907.0,-129.0,-308.0,0.964749,-0.207613,0.161734,15528.0,-3242.0,812.0,-33.0,13.0,-11.0
2914.0,2768.0,2843.0,3091.0,2981.0,0.761658,-0.137085,-0.633301,-0.001038,0.0,0.0,-1.0,7743.0,-1602.0,397.0,-162.0,97.0,-915.0,867.0,-126.0,-323.0,0.965001,-0.207509,0.160261,15388.0,-3086.0,886.0,7.0,14.0,-8.0
2907.0,2782.0,2859.0,3087.0,2993.0,0.761475,-0.137085,-0.633545,-0.001099,0.0,0.0,-1.0,7728.0,-1586.0,417.0,-178.0,112.0,-891.0,843.0,-110.0,-337.0,0.965158,-0.207381,0.159673,15364.0,-3068.0,944.0,8.0,3.0,-6.0
2911.0,2773.0,2854.0,3091.0,3005.0,0.760925,-0.137146,-0.634216,-0.00116,-1.0,-1.0,0.0,7726.0,-1579.0,446.0,-183.0,118.0,-848.0,803.0,-96.0,-335.0,0.965501,-0.207245,0.157969,15432.0,-3182.0,940.0,-8.0,-17.0,11.0
2907.0,2775.0,2855.0,3089.0,2993.0,0.760559,-0.137268,-0.634583,-0.001099,-1.0,-2.0,0.0,7721.0,-1585.0,446.0,-189.0,114.0,-839.0,792.0,-99.0,-337.0,0.965577,-0.207407,0.156914,15434.0,-3218.0,856.0,-10.0,-29.0,12.0
2919.0,2775.0,2855.0,3088.0,2991.0,0.759827,-0.137451,-0.635437,-0.001038,0.0,-2.0,0.0,7731.0,-1626.0,447.0,-181.0,74.0,-820.0,769.0,-132.0,-317.0,0.965929,-0.207559,0.154665,15516.0,-3378.0,898.0,3.0,-43.0,4.0
2911.0,2778.0,2852.0,3071.0,2999.0,0.759399,-0.137512,-0.635925,-0.000977,0.0,-2.0,0.0,7748.0,-1635.0,447.0,-166.0,65.0,-809.0,760.0,-136.0,-297.0,0.966111,-0.207611,0.153378,15598.0,-3236.0,922.0,6.0,-41.0,3.0
2907.0,2763.0,2853.0,3103.0,2981.0,0.758667,-0.137695,-0.63678,-0.000977,-2.0,-2.0,-1.0,7735.0,-1637.0,415.0,-182.0,64.0,-823.0,771.0,-143.0,-313.0,0.966477,-0.207686,0.151128,15380.0,-3332.0,760.0,-23.0,-34.0,-4.0
2915.0,2777.0,2863.0,3091.0,2991.0,0.758301,-0.137817,-0.637207,-0.001099,-2.0,-2.0,-1.0,7723.0,-1648.0,397.0,-196.0,52.0,-831.0,775.0,-158.0,-324.0,0.966692,-0.207614,0.149995,15406.0,-3348.0,692.0,-32.0,-37.0,-7.0
2911.0,2771.0,2864.0,3093.0,2993.0,0.757507,-0.138184,-0.638062,-0.001404,-2.0,-1.0,-1.0,7740.0,-1666.0,380.0,-182.0,34.0,-829.0,773.0,-174.0,-305.0,0.967061,-0.207559,0.147602,15550.0,-3368.0,730.0,-35.0,-22.0,-16.0
2909.0,2774.0,2845.0,3071.0,2991.0,0.757202,-0.138306,-0.638367,-0.001526,-1.0,-1.0,-1.0,7741.0,-1675.0,365.0,-182.0,24.0,-836.0,778.0,-185.0,-303.0,0.967167,-0.207503,0.146717,15468.0,-3384.0,624.0,-22.0,-9.0,-21.0
2899.0,2771.0,2859.0,3091.0,2983.0,0.756592,-0.138367,-0.639099,-0.00177,-1.0,-1.0,-2.0,7729.0,-1653.0,337.0,-197.0,43.0,-849.0,792.0,-172.0,-322.0,0.967564,-0.207112,0.144841,15494.0,-3214.0,634.0,-4.0,-8.0,-25.0
2919.0,2769.0,2842.0,3095.0,2995.0,0.756287,-0.138367,-0.639404,-0.001892,-1.0,-1.0,-1.0,7735.0,-1637.0,330.0,-192.0,57.0,-849.0,795.0,-158.0,-319.0,0.967669,-0.20687,0.14399,15508.0,-3190.0,648.0,-6.0,-5.0,-17.0
2914.0,2771.0,2854.0,3095.0,2995.0,0.755798,-0.138428,-0.640015,-0.002014,-1.0,-1.0,0.0,7727.0,-1583.0,335.0,-202.0,110.0,-831.0,786.0,-105.0,-336.0,0.968002,-0.206669,0.142454,15366.0,-2938.0,670.0,-15.0,-3.0,4.0
2911.0,2767.0,2841.0,3089.0,2987.0,0.755493,-0.138611,-0.64032,-0.002136,-2.0,-1.0,0.0,7728.0,-1556.0,347.0,-202.0,137.0,-812.0,773.0,-75.0,-338.0,0.968107,-0.206703,0.141552,15474.0,-2996.0,740.0,-33.0,-9.0,11.0
2899.0,2775.0,2843.0,3071.0,2999.0,0.754944,-0.138977,-0.640869,-0.002258,-2.0,-1.0,1.0,7760.0,-1570.0,353.0,-172.0,125.0,-793.0,758.0,-78.0,-303.0,0.968268,-0.206945,0.139917,15608.0,-3230.0,674.0,-24.0,-5.0,23.0
2911.0,2773.0,2864.0,3071.0,2998.0,0.754639,-0.13916,-0.641174,-0.002197,-1.0,-1.0,1.0,7757.0,-1571.0,350.0,-175.0,126.0,-788.0,753.0,-77.0,-305.0,0.968321,-0.207214,0.139014,15470.0,-3160.0,696.0,-14.0,-7.0,26.0
2911.0,2768.0,2833.0,3091.0,2999.0,0.754089,-0.139404,-0.641785,-0.002075,0.0,-1.0,0.0,7748.0,-1590.0,329.0,-185.0,110.0,-796.0,757.0,-96.0,-311.0,0.968505,-0.207583,0.137334,15506.0,-3272.0,602.0,12.0,-12.0,16.0
2914.0,2769.0,2839.0,3088.0,2991.0,0.753845,-0.139404,-0.64209,-0.001953,1.0,-1.0,0.0,7754.0,-1603.0,330.0,-180.0,98.0,-788.0,748.0,-105.0,-302.0,0.968617,-0.20767,0.136573,15552.0,-3276.0,664.0,25.0,-8.0,10.0
2917.0,2771.0,2865.0,3093.0,2979.0,0.753479,-0.139282,-0.642578,-0.001648,1.0,0.0,0.0,7739.0,-1622.0,323.0,-197.0,80.0,-786.0,740.0,-124.0,-313.0,0.968797,-0.207775,0.135427,15346.0,-3228.0,642.0,37.0,10.0,6.0
2917.0,2771.0,2854.0,3093.0,2995.0,0.753235,-0.139221,-0.642822,-0.001526,1.0,0.0,0.0,7717.0,-1633.0,322.0,-219.0,69.0,-781.0,730.0,-137.0,-331.0,0.968817,-0.207771,0.134762,15296.0,-3376.0,616.0,27.0,2.0,8.0
2901.0,2767.0,2850.0,3094.0,2997.0,0.752747,-0.139221,-0.643433,-0.001221,0.0,-1.0,0.0,7714.0,-1639.0,341.0,-224.0,65.0,-750.0,699.0,-135.0,-330.0,0.969023,-0.208026,0.133241,15532.0,-3266.0,788.0,21.0,-22.0,10.0
2911.0,2779.0,2843.0,3089.0,2999.0,0.752502,-0.139221,-0.643738,-0.00116,0.0,-1.0,0.0,7735.0,-1651.0,350.0,-204.0,53.0,-735.0,686.0,-140.0,-306.0,0.969151,-0.208036,0.13248,15600.0,-3416.0,734.0,13.0,-19.0,6.0
2902.0,2767.0,2853.0,3067.0,2987.0,0.751953,-0.139282,-0.644287,-0.000977,0.0,-1.0,0.0,7743.0,-1669.0,363.0,-196.0,36.0,-709.0,660.0,-149.0,-290.0,0.969219,-0.208209,0.130929,15414.0,-3346.0,746.0,12.0,-13.0,6.0
2914.0,2773.0,2847.0,3088.0,2995.0,0.751709,-0.139343,-0.644592,-0.000916,0.0,-1.0,0.0,7726.0,-1669.0,364.0,-214.0,37.0,-702.0,650.0,-150.0,-306.0,0.969347,-0.208311,0.130151,15336.0,-3336.0,712.0,11.0,-20.0,4.0
2911.0,2775.0,2851.0,3089.0,2999.0,0.751099,-0.139526,-0.645325,-0.000732,-1.0,-2.0,0.0,7705.0,-1667.0,344.0,-238.0,42.0,-706.0,652.0,-150.0,-330.0,0.969609,-0.208651,0.128238,15356.0,-3320.0,596.0,-6.0,-32.0,18.0
2906.0,2767.0,2855.0,3089.0,2991.0,0.750732,-0.139648,-0.64563,-0.000732,-1.0,-2.0,0.0,7733.0,-1649.0,344.0,-209.0,60.0,-698.0,652.0,-126.0,-303.0,0.969595,-0.208731,0.12726,15706.0,-3168.0,708.0,-18.0,-27.0,21.0
2917.0,2769.0,2853.0,3093.0,2997.0,0.750366,-0.140076,-0.645996,-0.000793,-2.0,1.0,0.0,7780.0,-1678.0,320.0,-163.0,35.0,-713.0,670.0,-146.0,-255.0,0.96969,-0.209191,0.126118,15588.0,-3482.0,530.0,-28.0,35.0,16.0
2915.0,2775.0,2846.0,3071.0,2999.0,0.750244,-0.14032,-0.646118,-0.000854,-1.0,2.0,0.0,7768.0,-1682.0,312.0,-176.0,33.0,-717.0,671.0,-151.0,-267.0,0.969733,-0.209444,0.125709,15424.0,-3350.0,594.0,-16.0,46.0,11.0
2917.0,2771.0,2843.0,3071.0,3002.0,0.750122,-0.140381,-0.646179,-0.000916,0.0,1.0,-1.0,7732.0,-1665.0,328.0,-211.0,50.0,-699.0,651.0,-138.0,-302.0,0.969684,-0.209422,0.12543,15380.0,-3226.0,774.0,13.0,44.0,-7.0
2907.0,2767.0,2839.0,3091.0,2995.0,0.750122,-0.14032,-0.646301,-0.000916,0.0,1.0,-1.0,7715.0,-1632.0,364.0,-230.0,82.0,-662.0,618.0,-102.0,-323.0,0.969867,-0.209331,0.125289,15336.0,-3040.0,972.0,13.0,27.0,-7.0
2911.0,2768.0,2845.0,3071.0,2992.0,0.749817,-0.14032,-0.646606,-0.001038,-1.0,-1.0,0.0,7719.0,-1561.0,443.0,-226.0,151.0,-576.0,548.0,-17.0,-322.0,0.969964,-0.209087,0.124437,15462.0,-2982.0,1050.0,-12.0,-10.0,15.0
2914.0,2771.0,2847.0,3095.0,2999.0,0.749573,-0.140442,-0.646851,-0.001038,-1.0,-2.0,1.0,7726.0,-1547.0,459.0,-220.0,166.0,-554.0,531.0,2.0,-316.0,0.970015,-0.209201,0.123721,15534.0,-3030.0,994.0,-16.0,-32.0,28.0
2907.0,2767.0,2842.0,3071.0,2997.0,0.748901,-0.140808,-0.647522,-0.000916,-1.0,-3.0,1.0,7757.0,-1564.0,464.0,-190.0,154.0,-533.0,514.0,0.0,-281.0,0.970118,-0.209717,0.121742,15552.0,-3290.0,820.0,-22.0,-49.0,34.0
2911.0,2770.0,2855.0,3071.0,2995.0,0.748596,-0.140991,-0.647888,-0.000793,-1.0,-3.0,1.0,7761.0,-1581.0,439.0,-187.0,139.0,-550.0,528.0,-17.0,-277.0,0.970237,-0.210063,0.120759,15524.0,-3256.0,698.0,-14.0,-46.0,38.0
2910.0,2751.0,2842.0,3071.0,2993.0,0.747864,-0.141541,-0.648621,-0.000549,-1.0,-2.0,1.0,7724.0,-1646.0,367.0,-224.0,82.0,-604.0,565.0,-90.0,-306.0,0.970315,-0.210993,0.118558,15356.0,-3540.0,518.0,-21.0,-41.0,34.0
2911.0,2773.0,2854.0,3107.0,2994.0,0.747498,-0.141785,-0.648926,-0.000427,-1.0,-2.0,1.0,7724.0,-1687.0,340.0,-224.0,44.0,-622.0,576.0,-131.0,-299.0,0.970262,-0.211413,0.117545,15468.0,-3590.0,530.0,-5.0,-35.0,29.0
2917.0,2775.0,2853.0,3093.0,2991.0,0.746948,-0.141907,-0.649536,-6.1e-05,1.0,-1.0,0.0,7715.0,-1726.0,308.0,-234.0,10.0,-641.0,587.0,-169.0,-303.0,0.970357,-0.211915,0.115897,15372.0,-3502.0,576.0,30.0,-18.0,4.0
2915.0,2773.0,2854.0,3071.0,2999.0,0.746704,-0.141785,-0.649841,6.1e-05,1.0,-2.0,-1.0,7712.0,-1728.0,308.0,-238.0,7.0,-635.0,580.0,-171.0,-305.0,0.970461,-0.211822,0.11517,15438.0,-3464.0,644.0,39.0,-26.0,-2.0
2911.0,2769.0,2855.0,3090.0,2993.0,0.746216,-0.141602,-0.650452,0.000366,1.0,-2.0,0.0,7751.0,-1686.0,343.0,-200.0,49.0,-588.0,549.0,-113.0,-271.0,0.970651,-0.211807,0.1137,15662.0,-3204.0,796.0,28.0,-23.0,3.0
2919.0,2769.0,2850.0,3091.0,2992.0,0.746033,-0.141541,-0.650696,0.000427,0.0,-1.0,0.0,7758.0,-1667.0,340.0,-194.0,67.0,-586.0,551.0,-94.0,-268.0,0.97076,-0.211744,0.113126,15474.0,-3240.0,620.0,11.0,-19.0,6.0
2911.0,2772.0,2853.0,3071.0,2993.0,0.745422,-0.141663,-0.651367,0.000488,-1.0,-2.0,0.0,7742.0,-1660.0,325.0,-212.0,75.0,-586.0,550.0,-90.0,-286.0,0.970949,-0.211833,0.111307,15448.0,-3352.0,582.0,-13.0,-32.0,7.0
2909.0,2772.0,2843.0,3071.0,2998.0,0.745117,-0.141785,-0.651672,0.000427,-1.0,-2.0,0.0,7745.0,-1685.0,306.0,-209.0,50.0,-598.0,558.0,-116.0,-279.0,0.971023,-0.211849,0.11042,15534.0,-3558.0,516.0,-15.0,-24.0,4.0
2915.0,2771.0,2846.0,3071.0,2992.0,0.74469,-0.141907,-0.6521,0.000488,0.0,0.0,-1.0,7739.0,-1704.0,267.0,-216.0,32.0,-627.0,582.0,-141.0,-285.0,0.971085,-0.21199,0.109192,15414.0,-3398.0,420.0,7.0,6.0,-5.0
2906.0,2769.0,2844.0,3071.0,2991.0,0.744568,-0.141907,-0.652344,0.000488,0.0,0.0,-1.0,7728.0,-1710.0,253.0,-228.0,26.0,-637.0,589.0,-151.0,-296.0,0.97129,-0.211955,0.108692,15394.0,-3470.0,468.0,11.0,12.0,-12.0
2911.0,2771.0,2850.0,3071.0,2995.0,0.744324,-0.141785,-0.652588,0.000488,0.0,0.0,-1.0,7715.0,-1691.0,273.0,-242.0,43.0,-612.0,566.0,-132.0,-310.0,0.971335,-0.211705,0.108044,15400.0,-3280.0,654.0,18.0,19.0,-18.0
2903.0,2769.0,2859.0,3095.0,2991.0,0.744202,-0.141663,-0.652771,0.000427,0.0,0.0,-1.0,7718.0,-1667.0,289.0,-240.0,64.0,-592.0,551.0,-107.0,-310.0,0.971465,-0.211409,0.107658,15462.0,-3182.0,700.0,12.0,16.0,-15.0
2907.0,2769.0,2859.0,3071.0,2995.0,0.743958,-0.141724,-0.653015,0.000305,-1.0,-1.0,0.0,7717.0,-1634.0,338.0,-241.0,96.0,-538.0,505.0,-65.0,-311.0,0.971545,-0.211271,0.106959,15398.0,-3210.0,814.0,-10.0,0.0,8.0
2914.0,2768.0,2847.0,3091.0,2998.0,0.743774,-0.141785,-0.653198,0.000305,-1.0,-1.0,0.0,7720.0,-1625.0,346.0,-239.0,106.0,-525.0,494.0,-53.0,-310.0,0.971578,-0.21131,0.10643,15484.0,-3222.0,746.0,-8.0,-15.0,11.0
2903.0,2771.0,2847.0,3071.0,2997.0,0.743347,-0.141846,-0.653687,0.000488,1.0,-1.0,0.0,7744.0,-1641.0,341.0,-216.0,91.0,-520.0,490.0,-62.0,-283.0,0.971694,-0.21152,0.105139,15564.0,-3230.0,686.0,23.0,-18.0,6.0
2915.0,2771.0,2846.0,3071.0,2995.0,0.743164,-0.141785,-0.653931,0.000549,0.0,-1.0,0.0,7769.0,-1603.0,350.0,-191.0,129.0,-506.0,488.0,-18.0,-265.0,0.9718,-0.211457,0.104565,15700.0,-2946.0,768.0,13.0,-9.0,5.0
2911.0,2771.0,2843.0,3071.0,2987.0,0.742859,-0.142029,-0.654175,0.000305,-2.0,0.0,0.0,7769.0,-1630.0,316.0,-192.0,101.0,-533.0,509.0,-51.0,-263.0,0.971832,-0.211414,0.103723,15422.0,-3562.0,424.0,-38.0,20.0,15.0
2931.0,2775.0,2851.0,3091.0,2999.0,0.742737,-0.142273,-0.654297,0.000305,-2.0,1.0,0.0,7743.0,-1665.0,288.0,-218.0,69.0,-558.0,523.0,-92.0,-284.0,0.971854,-0.211742,0.103312,15316.0,-3508.0,428.0,-25.0,23.0,14.0
2909.0,2767.0,2851.0,3091.0,3015.0,0.742554,-0.142517,-0.65448,0.000244,0.0,0.0,-1.0,7700.0,-1711.0,290.0,-261.0,25.0,-551.0,502.0,-141.0,-315.0,0.971904,-0.211973,0.102731,15282.0,-3550.0,678.0,1.0,21.0,-1.0
2911.0,2768.0,2857.0,3088.0,2992.0,0.742432,-0.142517,-0.654602,0.000305,0.0,0.0,0.0,7695.0,-1703.0,315.0,-266.0,33.0,-523.0,476.0,-128.0,-319.0,0.971908,-0.212018,0.10239,15372.0,-3288.0,810.0,9.0,8.0,4.0
2913.0,2768.0,2843.0,3071.0,2995.0,0.742188,-0.142639,-0.654846,0.000305,-1.0,-1.0,0.0,7732.0,-1641.0,379.0,-230.0,96.0,-453.0,425.0,-46.0,-289.0,0.97195,-0.21213,0.101673,15552.0,-3204.0,916.0,-20.0,0.0,15.0
2911.0,2773.0,2850.0,3071.0,2991.0,0.742065,-0.142761,-0.654968,0.000244,-1.0,-1.0,0.0,7731.0,-1640.0,392.0,-231.0,98.0,-437.0,410.0,-41.0,-289.0,0.971989,-0.212196,0.101297,15444.0,-3292.0,836.0,-21.0,-6.0,20.0
2929.0,2773.0,2843.0,3089.0,3015.0,0.741638,-0.142944,-0.655396,0.000366,0.0,-2.0,0.0,7739.0,-1647.0,396.0,-223.0,93.0,-423.0,397.0,-42.0,-278.0,0.972028,-0.212506,0.100051,15554.0,-3334.0,750.0,8.0,-28.0,13.0
2922.0,2777.0,2863.0,3089.0,2999.0,0.741394,-0.142944,-0.65564,0.000488,0.0,-2.0,0.0,7757.0,-1651.0,371.0,-205.0,90.0,-443.0,418.0,-45.0,-262.0,0.972035,-0.212596,0.099369,15610.0,-3310.0,584.0,18.0,-23.0,12.0
2937.0,2769.0,2851.0,3101.0,2997.0,0.740967,-0.143066,-0.656128,0.00061,-1.0,-1.0,0.0,7737.0,-1633.0,293.0,-226.0,110.0,-510.0,485.0,-44.0,-293.0,0.972163,-0.212816,0.09806,15332.0,-3280.0,372.0,-13.0,-7.0,17.0
2911.0,2771.0,2839.0,3103.0,2995.0,0.740784,-0.14325,-0.656311,0.000549,-2.0,-1.0,0.0,7725.0,-1646.0,262.0,-239.0,98.0,-536.0,506.0,-64.0,-305.0,0.972212,-0.212955,0.097496,15378.0,-3394.0,334.0,-27.0,0.0,16.0
2911.0,2772.0,2847.0,3089.0,2987.0,0.740479,-0.143616,-0.656555,0.000488,-1.0,1.0,0.0,7735.0,-1702.0,245.0,-229.0,45.0,-546.0,507.0,-115.0,-284.0,0.97219,-0.21333,0.096619,15550.0,-3598.0,552.0,-17.0,32.0,1.0
2911.0,2769.0,2849.0,3071.0,3006.0,0.740479,-0.143677,-0.656555,0.000427,-1.0,2.0,-1.0,7746.0,-1721.0,257.0,-218.0,26.0,-534.0,494.0,-129.0,-269.0,0.972207,-0.21334,0.096601,15552.0,-3526.0,622.0,-1.0,53.0,-8.0
2896.0,2763.0,2851.0,3071.0,3003.0,0.740601,-0.143677,-0.656372,0.000366,0.0,2.0,-1.0,7725.0,-1711.0,304.0,-238.0,36.0,-490.0,450.0,-114.0,-286.0,0.972114,-0.213295,0.097022,15382.0,-3270.0,798.0,9.0,53.0,-3.0
2911.0,2771.0,2847.0,3089.0,2992.0,0.740662,-0.143677,-0.656311,0.000305,0.0,1.0,0.0,7722.0,-1681.0,338.0,-241.0,65.0,-458.0,424.0,-80.0,-292.0,0.972121,-0.213232,0.097193,15412.0,-3200.0,862.0,4.0,40.0,4.0
2909.0,2772.0,2847.0,3094.0,2991.0,0.740601,-0.143738,-0.656372,0.000305,-1.0,0.0,0.0,7727.0,-1654.0,397.0,-236.0,93.0,-397.0,370.0,-39.0,-287.0,0.972131,-0.213305,0.097004,15486.0,-3238.0,966.0,-1.0,6.0,11.0
2927.0,2770.0,2845.0,3071.0,2991.0,0.740479,-0.143738,-0.656494,0.000305,0.0,-1.0,0.0,7738.0,-1647.0,421.0,-225.0,100.0,-370.0,347.0,-25.0,-275.0,0.972152,-0.21327,0.096663,15526.0,-3264.0,954.0,10.0,-6.0,10.0
2899.0,2768.0,2855.0,3071.0,2997.0,0.740173,-0.143738,-0.65686,0.000488,0.0,-2.0,0.0,7740.0,-1631.0,434.0,-224.0,117.0,-350.0,331.0,-4.0,-276.0,0.972241,-0.213423,0.095731,15542.0,-3186.0,906.0,12.0,-32.0,13.0
2909.0,2771.0,2861.0,3089.0,2995.0,0.739929,-0.143738,-0.657104,0.000549,0.0,-2.0,0.0,7751.0,-1626.0,426.0,-213.0,122.0,-352.0,336.0,1.0,-266.0,0.972264,-0.213434,0.095049,15566.0,-3242.0,780.0,1.0,-35.0,13.0
2917.0,2779.0,2846.0,3071.0,3007.0,0.739502,-0.143982,-0.657593,0.000549,-1.0,-2.0,0.0,7737.0,-1662.0,361.0,-229.0,88.0,-406.0,380.0,-45.0,-279.0,0.972424,-0.213672,0.093704,15422.0,-3512.0,496.0,-20.0,-23.0,11.0
2907.0,2771.0,2839.0,3089.0,2993.0,0.739258,-0.144104,-0.657837,0.000549,-1.0,-1.0,0.0,7730.0,-1692.0,327.0,-236.0,59.0,-434.0,401.0,-80.0,-282.0,0.972464,-0.213783,0.092987,15430.0,-3540.0,484.0,-14.0,-16.0,5.0
2911.0,2767.0,2858.0,3071.0,2995.0,0.738892,-0.144287,-0.658142,0.000549,-1.0,0.0,-1.0,7734.0,-1723.0,286.0,-232.0,29.0,-467.0,428.0,-115.0,-274.0,0.972433,-0.213948,0.091991,15514.0,-3470.0,518.0,-4.0,14.0,-6.0
2910.0,2768.0,2863.0,3088.0,2991.0,0.738831,-0.144287,-0.658264,0.000488,-1.0,1.0,-1.0,7736.0,-1724.0,278.0,-231.0,27.0,-473.0,434.0,-118.0,-273.0,0.97255,-0.21385,0.09174,15482.0,-3454.0,522.0,-9.0,28.0,-9.0
2915.0,2780.0,2845.0,3095.0,2994.0,0.73877,-0.144409,-0.658264,0.000305,-1.0,1.0,-1.0,7733.0,-1699.0,296.0,-233.0,52.0,-454.0,420.0,-91.0,-279.0,0.972523,-0.213772,0.091615,15446.0,-3228.0,744.0,-15.0,38.0,-7.0
2911.0,2771.0,2851.0,3099.0,2991.0,0.738831,-0.14447,-0.658264,0.000122,-1.0,1.0,-1.0,7735.0,-1659.0,338.0,-232.0,91.0,-413.0,388.0,-45.0,-282.0,0.972656,-0.213639,0.091687,15498.0,-3048.0,948.0,-17.0,36.0,-9.0
2907.0,2763.0,2857.0,3071.0,2975.0,0.738831,-0.14447,-0.658203,-0.000183,-1.0,0.0,-1.0,7712.0,-1579.0,431.0,-255.0,167.0,-320.0,308.0,43.0,-313.0,0.972654,-0.213237,0.091768,15344.0,-2912.0,1064.0,-19.0,17.0,-2.0
2911.0,2771.0,2847.0,3091.0,2993.0,0.73877,-0.14447,-0.658325,-0.000305,-1.0,-1.0,0.0,7702.0,-1547.0,457.0,-267.0,198.0,-292.0,286.0,76.0,-328.0,0.972789,-0.213059,0.091517,15366.0,-2920.0,1038.0,-15.0,-12.0,4.0
2911.0,2771.0,2855.0,3093.0,2987.0,0.73822,-0.144653,-0.658875,-0.000366,-1.0,-3.0,1.0,7750.0,-1549.0,429.0,-219.0,196.0,-307.0,307.0,80.0,-282.0,0.972895,-0.213089,0.089929,15738.0,-3182.0,704.0,-22.0,-66.0,32.0
2899.0,2769.0,2839.0,3071.0,3007.0,0.737854,-0.144958,-0.659241,-0.000244,-2.0,-3.0,2.0,7788.0,-1567.0,399.0,-182.0,182.0,-328.0,330.0,69.0,-245.0,0.972918,-0.213595,0.088817,15792.0,-3218.0,610.0,-37.0,-67.0,52.0
2897.0,2773.0,2831.0,3095.0,2979.0,0.737122,-0.145874,-0.65979,-6.1e-05,-3.0,-2.0,2.0,7751.0,-1652.0,312.0,-217.0,109.0,-398.0,380.0,-23.0,-269.0,0.972709,-0.214973,0.086746,15292.0,-3634.0,358.0,-54.0,-30.0,65.0
2911.0,2775.0,2850.0,3089.0,2999.0,0.736877,-0.146362,-0.659973,6.1e-05,-2.0,-1.0,2.0,7718.0,-1704.0,269.0,-249.0,63.0,-435.0,403.0,-81.0,-293.0,0.972621,-0.215783,0.086002,15268.0,-3722.0,332.0,-43.0,-8.0,52.0
2913.0,2773.0,2845.0,3091.0,3007.0,0.736694,-0.146912,-0.660095,0.000122,-1.0,1.0,0.0,7672.0,-1766.0,212.0,-295.0,8.0,-487.0,437.0,-154.0,-330.0,0.972541,-0.216619,0.08541,15208.0,-3666.0,344.0,-16.0,44.0,15.0
2901.0,2767.0,2848.0,3088.0,3002.0,0.736694,-0.147034,-0.660034,0.000122,-1.0,2.0,0.0,7658.0,-1779.0,208.0,-308.0,-2.0,-492.0,438.0,-168.0,-341.0,0.972451,-0.216799,0.085455,15252.0,-3606.0,432.0,-5.0,53.0,2.0
2902.0,2770.0,2842.0,3087.0,2993.0,0.736816,-0.147156,-0.659912,-6.1e-05,-1.0,2.0,-1.0,7720.0,-1727.0,294.0,-246.0,48.0,-408.0,374.0,-90.0,-284.0,0.972486,-0.216773,0.08576,15700.0,-3314.0,846.0,-21.0,46.0,-7.0
2911.0,2774.0,2846.0,3095.0,2995.0,0.736816,-0.147217,-0.659851,-0.000244,-2.0,1.0,0.0,7744.0,-1721.0,341.0,-222.0,53.0,-362.0,333.0,-70.0,-258.0,0.97245,-0.216621,0.085822,15584.0,-3440.0,966.0,-27.0,34.0,0.0
2917.0,2773.0,2858.0,3071.0,2995.0,0.736694,-0.1474,-0.659973,-0.000244,0.0,-1.0,0.0,7755.0,-1709.0,415.0,-211.0,67.0,-284.0,262.0,-38.0,-243.0,0.972469,-0.216855,0.085427,15568.0,-3318.0,972.0,2.0,-20.0,11.0
2898.0,2768.0,2833.0,3071.0,2992.0,0.736511,-0.1474,-0.660156,-0.000183,0.0,-2.0,0.0,7767.0,-1702.0,432.0,-199.0,74.0,-263.0,244.0,-25.0,-231.0,0.972479,-0.216882,0.084916,15590.0,-3388.0,960.0,8.0,-33.0,12.0
2911.0,2765.0,2834.0,3087.0,2991.0,0.736145,-0.147461,-0.660583,6.1e-05,0.0,-2.0,0.0,7737.0,-1707.0,407.0,-230.0,72.0,-279.0,256.0,-36.0,-262.0,0.972552,-0.217186,0.083794,15360.0,-3456.0,658.0,7.0,-39.0,22.0
2919.0,2767.0,2854.0,3093.0,2995.0,0.735901,-0.147583,-0.660828,0.000244,0.0,-2.0,0.0,7712.0,-1733.0,370.0,-255.0,49.0,-310.0,278.0,-70.0,-284.0,0.972535,-0.217536,0.083076,15256.0,-3660.0,526.0,14.0,-34.0,21.0
2918.0,2774.0,2854.0,3091.0,2993.0,0.735535,-0.147522,-0.661255,0.000671,2.0,-1.0,-1.0,7685.0,-1806.0,308.0,-282.0,-20.0,-363.0,313.0,-152.0,-299.0,0.972554,-0.217903,0.081991,15388.0,-3828.0,486.0,52.0,-19.0,-8.0
2918.0,2765.0,2845.0,3071.0,2992.0,0.735413,-0.147217,-0.661438,0.000916,3.0,-1.0,-2.0,7694.0,-1827.0,296.0,-273.0,-43.0,-372.0,319.0,-174.0,-286.0,0.97259,-0.217741,0.08166,15468.0,-3722.0,534.0,78.0,-11.0,-26.0
2903.0,2767.0,2849.0,3071.0,2991.0,0.735352,-0.146362,-0.661682,0.001038,2.0,0.0,-3.0,7738.0,-1743.0,339.0,-231.0,31.0,-328.0,296.0,-85.0,-258.0,0.972834,-0.216629,0.081498,15406.0,-3204.0,720.0,60.0,12.0,-48.0
2903.0,2770.0,2849.0,3071.0,2995.0,0.735291,-0.146118,-0.661804,0.000977,0.0,-1.0,-2.0,7729.0,-1685.0,351.0,-241.0,85.0,-315.0,293.0,-32.0,-278.0,0.972951,-0.216171,0.081318,15454.0,-3006.0,760.0,18.0,-8.0,-30.0
2907.0,2771.0,2859.0,3095.0,2995.0,0.734924,-0.146179,-0.662231,0.000671,-2.0,-2.0,0.0,7753.0,-1641.0,371.0,-219.0,126.0,-285.0,274.0,17.0,-263.0,0.973184,-0.215751,0.080195,15564.0,-3320.0,782.0,-42.0,-27.0,0.0
2911.0,2771.0,2847.0,3088.0,2995.0,0.734741,-0.146301,-0.662415,0.000549,-2.0,-2.0,0.0,7754.0,-1666.0,358.0,-218.0,101.0,-294.0,279.0,-8.0,-257.0,0.973246,-0.215715,0.079648,15510.0,-3536.0,624.0,-26.0,-26.0,1.0
2907.0,2771.0,2847.0,3091.0,2995.0,0.734375,-0.14624,-0.662842,0.000549,0.0,-1.0,-1.0,7734.0,-1640.0,342.0,-239.0,125.0,-301.0,288.0,8.0,-283.0,0.973388,-0.215519,0.078561,15400.0,-3088.0,658.0,20.0,-21.0,-10.0
2911.0,2771.0,2851.0,3093.0,2999.0,0.734192,-0.146118,-0.663025,0.000549,0.0,-2.0,-1.0,7719.0,-1614.0,337.0,-255.0,149.0,-302.0,292.0,28.0,-303.0,0.973414,-0.215286,0.078086,15342.0,-3092.0,652.0,8.0,-24.0,-7.0
2911.0,2769.0,2858.0,3091.0,2995.0,0.733765,-0.14624,-0.663452,0.000549,-1.0,-2.0,0.0,7690.0,-1621.0,307.0,-284.0,143.0,-322.0,307.0,12.0,-332.0,0.973475,-0.215341,0.076856,15304.0,-3358.0,476.0,-7.0,-33.0,20.0
2911.0,2768.0,2845.0,3087.0,2995.0,0.733521,-0.146301,-0.663696,0.000732,0.0,-2.0,1.0,7696.0,-1644.0,293.0,-278.0,122.0,-330.0,311.0,-8.0,-322.0,0.973455,-0.215602,0.076156,15384.0,-3472.0,422.0,13.0,-33.0,30.0
2905.0,2767.0,2849.0,3091.0,2995.0,0.733215,-0.146423,-0.664062,0.000977,0.0,-1.0,1.0,7731.0,-1657.0,268.0,-244.0,112.0,-347.0,330.0,-14.0,-287.0,0.973516,-0.216017,0.075187,15580.0,-3476.0,474.0,7.0,-7.0,23.0
2911.0,2774.0,2855.0,3089.0,2995.0,0.733093,-0.146545,-0.664185,0.001099,0.0,0.0,1.0,7748.0,-1678.0,263.0,-226.0,94.0,-349.0,331.0,-28.0,-266.0,0.973496,-0.216322,0.07481,15570.0,-3442.0,524.0,2.0,5.0,26.0
2910.0,2773.0,2849.0,3091.0,2993.0,0.732971,-0.146851,-0.664246,0.001282,-1.0,0.0,1.0,7732.0,-1711.0,265.0,-241.0,66.0,-344.0,319.0,-57.0,-274.0,0.973369,-0.216977,0.074461,15368.0,-3602.0,602.0,-9.0,17.0,27.0
2911.0,2768.0,2842.0,3087.0,2991.0,0.73291,-0.147034,-0.664246,0.001343,-1.0,0.0,0.0,7715.0,-1743.0,275.0,-258.0,37.0,-333.0,301.0,-86.0,-283.0,0.97327,-0.217309,0.074318,15378.0,-3708.0,638.0,-6.0,11.0,21.0
2909.0,2768.0,2844.0,3071.0,2992.0,0.732788,-0.147095,-0.664368,0.001587,1.0,0.0,0.0,7706.0,-1776.0,319.0,-266.0,7.0,-286.0,248.0,-106.0,-281.0,0.973215,-0.217687,0.07396,15380.0,-3556.0,828.0,27.0,3.0,2.0
2911.0,2771.0,2851.0,3091.0,2999.0,0.732727,-0.146973,-0.664429,0.001709,1.0,-1.0,-1.0,7706.0,-1763.0,337.0,-266.0,20.0,-267.0,232.0,-90.0,-282.0,0.973187,-0.217653,0.073825,15418.0,-3416.0,790.0,32.0,-6.0,-5.0
2919.0,2773.0,2853.0,3091.0,2995.0,0.732544,-0.146851,-0.664673,0.001709,-1.0,-2.0,-1.0,7722.0,-1734.0,369.0,-251.0,47.0,-231.0,204.0,-53.0,-271.0,0.973302,-0.217421,0.073268,15490.0,-3416.0,828.0,-1.0,-23.0,-8.0
2915.0,2768.0,2847.0,3093.0,2993.0,0.732422,-0.146851,-0.664856,0.001648,-1.0,-2.0,-1.0,7730.0,-1730.0,382.0,-244.0,50.0,-214.0,189.0,-45.0,-263.0,0.973426,-0.217304,0.072846,15508.0,-3446.0,828.0,-9.0,-24.0,-4.0
2910.0,2767.0,2849.0,3091.0,2999.0,0.732056,-0.146973,-0.665222,0.001587,-1.0,-2.0,-1.0,7734.0,-1714.0,366.0,-240.0,66.0,-222.0,201.0,-31.0,-263.0,0.973493,-0.217296,0.071787,15500.0,-3448.0,600.0,-19.0,-26.0,-5.0
2916.0,2774.0,2853.0,3091.0,2995.0,0.731873,-0.147034,-0.665405,0.001465,-1.0,-1.0,-1.0,7744.0,-1721.0,345.0,-231.0,58.0,-238.0,216.0,-40.0,-254.0,0.973553,-0.217169,0.071257,15546.0,-3452.0,588.0,-13.0,-20.0,-11.0
2915.0,2775.0,2847.0,3090.0,2995.0,0.731628,-0.146912,-0.66571,0.001343,-1.0,-1.0,-1.0,7733.0,-1705.0,298.0,-243.0,70.0,-279.0,257.0,-40.0,-271.0,0.973711,-0.216757,0.070529,15422.0,-3312.0,474.0,0.0,-4.0,-19.0
2909.0,2769.0,2847.0,3089.0,2997.0,0.731506,-0.146912,-0.665833,0.001282,-1.0,-1.0,-1.0,7725.0,-1682.0,289.0,-251.0,92.0,-285.0,267.0,-22.0,-284.0,0.973745,-0.21664,0.070187,15414.0,-3210.0,558.0,-6.0,-2.0,-10.0
2909.0,2769.0,2847.0,3089.0,2995.0,0.731323,-0.147095,-0.666016,0.001038,-2.0,-1.0,0.0,7728.0,-1613.0,308.0,-249.0,160.0,-262.0,258.0,47.0,-295.0,0.97384,-0.21653,0.069621,15476.0,-3062.0,650.0,-38.0,0.0,15.0
2911.0,2775.0,2853.0,3090.0,2995.0,0.731201,-0.147278,-0.666077,0.000916,-2.0,-1.0,1.0,7735.0,-1607.0,319.0,-242.0,167.0,-248.0,246.0,58.0,-289.0,0.973802,-0.216599,0.069307,15498.0,-3200.0,682.0,-43.0,0.0,24.0
2915.0,2771.0,2859.0,3089.0,2995.0,0.730957,-0.147705,-0.66626,0.000793,-1.0,-1.0,0.0,7726.0,-1642.0,333.0,-251.0,135.0,-228.0,220.0,30.0,-289.0,0.97378,-0.216989,0.06858,15428.0,-3428.0,652.0,-20.0,-21.0,18.0
2911.0,2768.0,2854.0,3071.0,2995.0,0.730774,-0.147766,-0.666443,0.000916,0.0,-2.0,0.0,7726.0,-1656.0,330.0,-251.0,123.0,-227.0,217.0,19.0,-286.0,0.973768,-0.217188,0.06805,15466.0,-3376.0,644.0,6.0,-33.0,15.0
2911.0,2769.0,2851.0,3088.0,2995.0,0.730408,-0.147705,-0.66687,0.00116,0.0,-2.0,0.0,7736.0,-1658.0,322.0,-241.0,122.0,-226.0,217.0,20.0,-276.0,0.973832,-0.217317,0.066964,15476.0,-3260.0,602.0,14.0,-31.0,16.0
2911.0,2771.0,2855.0,3090.0,3035.0,0.730225,-0.147766,-0.667053,0.001221,0.0,-2.0,0.0,7730.0,-1681.0,290.0,-247.0,100.0,-254.0,239.0,-7.0,-279.0,0.973837,-0.217433,0.066435,15402.0,-3522.0,342.0,2.0,-23.0,16.0
2906.0,2771.0,2851.0,3063.0,3007.0,0.729919,-0.147949,-0.667297,0.001404,0.0,-1.0,0.0,7741.0,-1710.0,263.0,-235.0,74.0,-274.0,255.0,-34.0,-262.0,0.973731,-0.217856,0.06561,15554.0,-3480.0,500.0,4.0,-2.0,11.0
2911.0,2767.0,2851.0,3071.0,2995.0,0.729858,-0.147949,-0.667358,0.001465,-1.0,0.0,0.0,7747.0,-1725.0,258.0,-229.0,60.0,-278.0,257.0,-47.0,-254.0,0.973721,-0.217919,0.065439,15518.0,-3530.0,464.0,0.0,12.0,6.0
2911.0,2769.0,2811.0,3089.0,2992.0,0.729858,-0.14801,-0.667419,0.001465,0.0,0.0,-1.0,7738.0,-1739.0,272.0,-239.0,46.0,-263.0,239.0,-60.0,-259.0,0.97381,-0.218008,0.06534,15462.0,-3502.0,652.0,3.0,20.0,-2.0
2911.0,2773.0,2855.0,3089.0,2999.0,0.729858,-0.14801,-0.667419,0.001465,-1.0,0.0,-1.0,7737.0,-1733.0,284.0,-240.0,52.0,-251.0,228.0,-51.0,-261.0,0.97381,-0.218008,0.06534,15474.0,-3428.0,668.0,-1.0,12.0,-3.0
2911.0,2774.0,2855.0,3091.0,2995.0,0.729736,-0.14801,-0.66748,0.001404,0.0,0.0,-1.0,7738.0,-1728.0,314.0,-238.0,56.0,-219.0,198.0,-40.0,-258.0,0.973754,-0.217891,0.06508,15472.0,-3436.0,678.0,1.0,4.0,-1.0
2910.0,2768.0,2851.0,3087.0,2998.0,0.729675,-0.148071,-0.667542,0.001404,0.0,-1.0,0.0,7727.0,-1733.0,315.0,-250.0,52.0,-216.0,193.0,-46.0,-268.0,0.973761,-0.217962,0.064891,15394.0,-3506.0,628.0,1.0,-4.0,2.0
2909.0,2769.0,2847.0,3087.0,2993.0,0.729431,-0.148071,-0.667847,0.001465,0.0,-2.0,0.0,7700.0,-1717.0,310.0,-277.0,68.0,-215.0,192.0,-36.0,-298.0,0.973863,-0.217972,0.064128,15336.0,-3406.0,578.0,2.0,-26.0,1.0
2915.0,2771.0,2853.0,3089.0,2995.0,0.729248,-0.148071,-0.66803,0.001526,0.0,-2.0,-1.0,7710.0,-1712.0,307.0,-267.0,73.0,-214.0,194.0,-29.0,-289.0,0.973867,-0.218,0.063616,15504.0,-3372.0,636.0,2.0,-31.0,-1.0
2913.0,2774.0,2849.0,3091.0,2998.0,0.729004,-0.14801,-0.668335,0.001465,0.0,-1.0,-1.0,7739.0,-1691.0,293.0,-240.0,92.0,-222.0,208.0,-7.0,-267.0,0.974004,-0.217758,0.06287,15570.0,-3314.0,510.0,3.0,-14.0,-9.0
2909.0,2769.0,2847.0,3091.0,2995.0,0.728882,-0.147949,-0.668457,0.001404,-1.0,-1.0,-1.0,7751.0,-1685.0,283.0,-228.0,97.0,-229.0,217.0,-1.0,-257.0,0.974037,-0.217552,0.062547,15582.0,-3352.0,514.0,0.0,0.0,-11.0
2913.0,2770.0,2847.0,3091.0,2994.0,0.728821,-0.147888,-0.668518,0.001282,0.0,1.0,-1.0,7735.0,-1701.0,244.0,-244.0,78.0,-267.0,249.0,-31.0,-271.0,0.974081,-0.217282,0.062394,15340.0,-3438.0,356.0,2.0,23.0,-7.0
2914.0,2773.0,2853.0,3089.0,2995.0,0.728821,-0.147949,-0.668579,0.001282,0.0,0.0,-1.0,7715.0,-1703.0,231.0,-265.0,77.0,-279.0,258.0,-38.0,-292.0,0.974169,-0.217371,0.062294,15322.0,-3412.0,430.0,2.0,17.0,-1.0
2915.0,2771.0,2849.0,3089.0,2995.0,0.72876,-0.147949,-0.66864,0.001282,0.0,0.0,-1.0,7727.0,-1704.0,263.0,-253.0,76.0,-245.0,226.0,-30.0,-278.0,0.974177,-0.217353,0.062124,15484.0,-3454.0,686.0,5.0,14.0,-1.0
2911.0,2771.0,2845.0,3091.0,2997.0,0.72876,-0.147888,-0.66864,0.001282,0.0,0.0,-1.0,7727.0,-1699.0,281.0,-253.0,80.0,-228.0,211.0,-22.0,-278.0,0.974177,-0.217264,0.062142,15444.0,-3338.0,654.0,15.0,15.0,-5.0
2911.0,2771.0,2847.0,3089.0,2994.0,0.728699,-0.147766,-0.668701,0.001282,0.0,-1.0,0.0,7729.0,-1684.0,317.0,-251.0,94.0,-190.0,177.0,0.0,-276.0,0.974185,-0.217068,0.062007,15438.0,-3312.0,750.0,7.0,-2.0,0.0
2911.0,2773.0,2847.0,3089.0,2993.0,0.728638,-0.147766,-0.668762,0.001343,-1.0,-1.0,0.0,7727.0,-1676.0,337.0,-253.0,102.0,-169.0,158.0,10.0,-279.0,0.974174,-0.217132,0.061837,15442.0,-3304.0,758.0,-1.0,-8.0,7.0
2911.0,2771.0,2852.0,3090.0,2995.0,0.728455,-0.147827,-0.668945,0.001343,-1.0,-1.0,0.0,7721.0,-1664.0,346.0,-259.0,115.0,-156.0,147.0,24.0,-286.0,0.974196,-0.217167,0.061307,15420.0,-3322.0,734.0,-2.0,-16.0,15.0
2911.0,2769.0,2854.0,3088.0,2995.0,0.728333,-0.147888,-0.669067,0.001404,0.0,-1.0,0.0,7721.0,-1671.0,339.0,-259.0,109.0,-160.0,150.0,18.0,-285.0,0.974192,-0.217302,0.060948,15450.0,-3398.0,670.0,4.0,-17.0,10.0
2906.0,2771.0,2849.0,3088.0,2995.0,0.728149,-0.147766,-0.669312,0.001526,0.0,-1.0,-1.0,7735.0,-1700.0,321.0,-246.0,79.0,-173.0,158.0,-10.0,-267.0,0.974267,-0.217234,0.060391,15508.0,-3488.0,568.0,21.0,-12.0,-3.0
2915.0,2774.0,2853.0,3088.0,2997.0,0.728088,-0.147705,-0.669373,0.001648,0.0,-1.0,-1.0,7738.0,-1698.0,301.0,-242.0,82.0,-192.0,178.0,-10.0,-265.0,0.974238,-0.217291,0.060239,15478.0,-3400.0,456.0,19.0,-6.0,-2.0
2911.0,2770.0,2853.0,3089.0,2999.0,0.727966,-0.147644,-0.669556,0.001709,0.0,-1.0,0.0,7724.0,-1708.0,293.0,-257.0,71.0,-197.0,179.0,-25.0,-277.0,0.974323,-0.217248,0.059834,15398.0,-3486.0,554.0,3.0,-4.0,5.0
2911.0,2769.0,2851.0,3089.0,2993.0,0.727844,-0.147705,-0.669617,0.001709,0.0,-1.0,0.0,7728.0,-1716.0,294.0,-253.0,64.0,-193.0,174.0,-30.0,-271.0,0.974248,-0.217301,0.059557,15512.0,-3448.0,608.0,3.0,-5.0,6.0
2910.0,2770.0,2845.0,3071.0,2992.0,0.727783,-0.147705,-0.669739,0.00177,0.0,0.0,-1.0,7737.0,-1725.0,325.0,-244.0,55.0,-160.0,141.0,-30.0,-259.0,0.974326,-0.217365,0.059305,15482.0,-3476.0,730.0,7.0,1.0,-2.0
2914.0,2773.0,2853.0,3093.0,2997.0,0.727722,-0.147644,-0.6698,0.00177,0.0,-1.0,-1.0,7729.0,-1719.0,334.0,-252.0,60.0,-150.0,132.0,-24.0,-267.0,0.974334,-0.217259,0.059152,15426.0,-3436.0,702.0,11.0,-8.0,-5.0
2915.0,2771.0,2850.0,3095.0,2999.0,0.727539,-0.147461,-0.670044,0.001831,0.0,-2.0,-1.0,7720.0,-1703.0,348.0,-262.0,74.0,-132.0,116.0,-9.0,-279.0,0.974426,-0.217021,0.058613,15442.0,-3356.0,660.0,14.0,-29.0,-7.0
2911.0,2768.0,2847.0,3093.0,2995.0,0.727417,-0.1474,-0.670166,0.001892,0.0,-2.0,-1.0,7728.0,-1684.0,351.0,-254.0,93.0,-126.0,115.0,11.0,-275.0,0.974423,-0.216978,0.05829,15504.0,-3242.0,704.0,12.0,-33.0,-5.0
2909.0,2771.0,2851.0,3091.0,2995.0,0.727112,-0.1474,-0.670532,0.001892,-1.0,-2.0,0.0,7722.0,-1659.0,315.0,-261.0,117.0,-154.0,146.0,26.0,-288.0,0.974546,-0.21689,0.057355,15312.0,-3280.0,414.0,-8.0,-33.0,7.0
2912.0,2758.0,2851.0,3114.0,2997.0,0.726868,-0.147461,-0.670776,0.001892,-1.0,-2.0,0.0,7717.0,-1668.0,290.0,-266.0,108.0,-174.0,164.0,13.0,-292.0,0.974573,-0.216908,0.056655,15428.0,-3422.0,446.0,-22.0,-45.0,12.0
2911.0,2772.0,2850.0,3091.0,2994.0,0.726379,-0.147766,-0.671265,0.001831,-1.0,-2.0,0.0,7755.0,-1702.0,247.0,-229.0,76.0,-205.0,192.0,-16.0,-251.0,0.974644,-0.217127,0.055199,15682.0,-3500.0,386.0,-15.0,-26.0,3.0
2911.0,2768.0,2847.0,3088.0,2995.0,0.726257,-0.147827,-0.671326,0.001831,-1.0,-1.0,-1.0,7770.0,-1724.0,227.0,-213.0,55.0,-222.0,206.0,-37.0,-231.0,0.974569,-0.21718,0.054922,15612.0,-3552.0,334.0,-7.0,-1.0,-4.0
2911.0,2769.0,2851.0,3087.0,2997.0,0.726196,-0.147827,-0.671387,0.00177,-1.0,1.0,-1.0,7739.0,-1720.0,205.0,-244.0,58.0,-243.0,224.0,-45.0,-263.0,0.974594,-0.21708,0.054751,15330.0,-3382.0,416.0,-2.0,24.0,-2.0
2915.0,2771.0,2851.0,3091.0,2993.0,0.726196,-0.147888,-0.671387,0.001709,-1.0,0.0,0.0,7714.0,-1706.0,216.0,-270.0,72.0,-232.0,213.0,-34.0,-291.0,0.974612,-0.217086,0.054733,15280.0,-3338.0,492.0,-9.0,16.0,2.0
2887.0,2775.0,2815.0,3092.0,2991.0,0.726074,-0.14801,-0.671448,0.001709,-1.0,-1.0,0.0,7713.0,-1686.0,272.0,-270.0,93.0,-173.0,160.0,-2.0,-292.0,0.974536,-0.217228,0.054438,15520.0,-3316.0,746.0,-8.0,-8.0,11.0
2911.0,2771.0,2850.0,3071.0,2995.0,0.726013,-0.148071,-0.671509,0.001648,-1.0,-1.0,0.0,7737.0,-1677.0,311.0,-246.0,102.0,-133.0,125.0,19.0,-269.0,0.97456,-0.217217,0.054249,15606.0,-3304.0,844.0,-8.0,-12.0,10.0
2911.0,2769.0,2847.0,3091.0,2995.0,0.725891,-0.148193,-0.671631,0.001709,-1.0,-1.0,0.0,7742.0,-1675.0,321.0,-241.0,106.0,-120.0,114.0,27.0,-264.0,0.974555,-0.21744,0.053872,15482.0,-3356.0,618.0,-11.0,-13.0,15.0
2911.0,2773.0,2843.0,3091.0,2993.0,0.725769,-0.148315,-0.671753,0.001709,-1.0,-1.0,0.0,7736.0,-1682.0,309.0,-247.0,100.0,-129.0,121.0,18.0,-269.0,0.974568,-0.217582,0.053494,15404.0,-3436.0,508.0,-15.0,-12.0,13.0
2915.0,2774.0,2851.0,3089.0,2995.0,0.725586,-0.148499,-0.671936,0.001709,-1.0,-1.0,0.0,7702.0,-1716.0,247.0,-281.0,68.0,-186.0,167.0,-31.0,-298.0,0.974587,-0.217794,0.052928,15366.0,-3510.0,318.0,-8.0,-7.0,10.0
2911.0,2768.0,2847.0,3071.0,2997.0,0.725464,-0.14856,-0.671997,0.00177,-1.0,-1.0,0.0,7711.0,-1718.0,230.0,-272.0,67.0,-201.0,182.0,-33.0,-290.0,0.974493,-0.217928,0.052651,15484.0,-3442.0,394.0,-9.0,0.0,8.0
2915.0,2771.0,2847.0,3093.0,2993.0,0.725403,-0.148743,-0.672058,0.001648,-1.0,0.0,0.0,7726.0,-1733.0,217.0,-257.0,52.0,-212.0,192.0,-47.0,-272.0,0.974535,-0.218012,0.052426,15508.0,-3520.0,444.0,-16.0,20.0,5.0
2917.0,2765.0,2855.0,3091.0,2995.0,0.725464,-0.148865,-0.671997,0.001587,-1.0,1.0,0.0,7737.0,-1727.0,226.0,-246.0,59.0,-204.0,186.0,-37.0,-263.0,0.974547,-0.218125,0.05256,15504.0,-3410.0,500.0,-15.0,27.0,3.0
2910.0,2769.0,2855.0,3090.0,2992.0,0.725525,-0.148926,-0.671875,0.001465,-1.0,1.0,-1.0,7726.0,-1727.0,253.0,-257.0,59.0,-179.0,161.0,-33.0,-272.0,0.974488,-0.218067,0.052794,15434.0,-3428.0,564.0,-4.0,24.0,-3.0
2911.0,2777.0,2851.0,3091.0,2998.0,0.725525,-0.148926,-0.671875,0.001404,0.0,0.0,-1.0,7732.0,-1705.0,277.0,-251.0,80.0,-155.0,142.0,-7.0,-270.0,0.974506,-0.217985,0.052793,15500.0,-3280.0,686.0,1.0,14.0,-6.0
2914.0,2771.0,2850.0,3091.0,2995.0,0.725586,-0.148926,-0.671875,0.001221,-2.0,0.0,0.0,7751.0,-1650.0,337.0,-233.0,133.0,-96.0,97.0,59.0,-261.0,0.974643,-0.217757,0.052882,15596.0,-3146.0,820.0,-24.0,7.0,5.0
2911.0,2773.0,2851.0,3091.0,2999.0,0.725586,-0.148987,-0.671814,0.001099,-2.0,0.0,0.0,7752.0,-1653.0,340.0,-231.0,130.0,-93.0,94.0,57.0,-258.0,0.97459,-0.217682,0.052945,15504.0,-3376.0,700.0,-32.0,6.0,10.0
2907.0,2753.0,2857.0,3094.0,2998.0,0.725464,-0.149231,-0.671936,0.001038,-1.0,-1.0,0.0,7729.0,-1675.0,305.0,-255.0,110.0,-125.0,119.0,26.0,-279.0,0.974621,-0.217918,0.052531,15408.0,-3402.0,484.0,-7.0,-3.0,4.0
2910.0,2770.0,2850.0,3090.0,2995.0,0.725342,-0.149231,-0.671997,0.001038,0.0,-1.0,0.0,7722.0,-1683.0,293.0,-261.0,101.0,-135.0,126.0,14.0,-283.0,0.974545,-0.217881,0.052272,15402.0,-3406.0,536.0,3.0,-9.0,2.0
2910.0,2771.0,2842.0,3091.0,2993.0,0.72522,-0.149231,-0.67218,0.001099,-1.0,-1.0,0.0,7719.0,-1678.0,290.0,-265.0,107.0,-134.0,126.0,19.0,-288.0,0.974629,-0.217927,0.051849,15498.0,-3334.0,614.0,0.0,-14.0,6.0
2911.0,2771.0,2855.0,3091.0,2999.0,0.725098,-0.149292,-0.672241,0.001099,-1.0,-1.0,0.0,7725.0,-1677.0,286.0,-258.0,108.0,-136.0,129.0,21.0,-281.0,0.974553,-0.21798,0.051571,15446.0,-3360.0,542.0,-10.0,-8.0,8.0
2911.0,2774.0,2854.0,3087.0,2995.0,0.724915,-0.149414,-0.672424,0.00116,0.0,-1.0,0.0,7722.0,-1710.0,273.0,-261.0,77.0,-144.0,130.0,-10.0,-278.0,0.974554,-0.218184,0.051023,15494.0,-3482.0,580.0,2.0,-14.0,6.0
2909.0,2770.0,2849.0,3071.0,2995.0,0.724854,-0.149353,-0.672485,0.00116,0.0,-1.0,0.0,7735.0,-1715.0,276.0,-248.0,71.0,-140.0,126.0,-12.0,-264.0,0.97456,-0.218078,0.050871,15536.0,-3432.0,560.0,12.0,-5.0,2.0
2911.0,2770.0,2847.0,3088.0,2995.0,0.724854,-0.149292,-0.672546,0.001221,-1.0,0.0,0.0,7740.0,-1688.0,280.0,-244.0,98.0,-136.0,128.0,14.0,-266.0,0.974631,-0.218072,0.050807,15474.0,-3340.0,574.0,-3.0,7.0,1.0
2913.0,2771.0,2854.0,3089.0,2997.0,0.724792,-0.149353,-0.672546,0.00116,-1.0,0.0,0.0,7735.0,-1685.0,289.0,-248.0,101.0,-126.0,119.0,19.0,-270.0,0.974567,-0.21806,0.050701,15426.0,-3364.0,598.0,-8.0,9.0,6.0
2911.0,2774.0,2853.0,3094.0,2993.0,0.724731,-0.149475,-0.672607,0.00116,-1.0,-1.0,0.0,7710.0,-1705.0,284.0,-273.0,82.0,-129.0,116.0,-4.0,-290.0,0.974573,-0.218219,0.050493,15408.0,-3514.0,528.0,-9.0,-3.0,10.0
2911.0,2771.0,2855.0,3089.0,2995.0,0.72467,-0.149536,-0.672668,0.00116,0.0,-1.0,0.0,7717.0,-1722.0,276.0,-266.0,66.0,-136.0,120.0,-20.0,-280.0,0.974579,-0.218289,0.050305,15484.0,-3568.0,506.0,5.0,-6.0,8.0
2911.0,2771.0,2853.0,3094.0,2995.0,0.724609,-0.149475,-0.672729,0.001282,0.0,0.0,-1.0,7728.0,-1720.0,271.0,-255.0,68.0,-139.0,124.0,-16.0,-270.0,0.974549,-0.218347,0.050153,15440.0,-3418.0,506.0,12.0,2.0,-1.0
2911.0,2774.0,2855.0,3089.0,2993.0,0.724609,-0.149475,-0.672791,0.001282,0.0,-1.0,-1.0,7731.0,-1717.0,272.0,-253.0,71.0,-138.0,124.0,-13.0,-268.0,0.974637,-0.218347,0.05007,15498.0,-3428.0,556.0,9.0,0.0,-2.0
2914.0,2774.0,2855.0,3071.0,2995.0,0.724548,-0.149475,-0.672852,0.001282,-1.0,0.0,0.0,7756.0,-1706.0,276.0,-228.0,82.0,-132.0,123.0,3.0,-246.0,0.974644,-0.218329,0.0499,15596.0,-3436.0,594.0,-4.0,6.0,2.0
2909.0,2775.0,2864.0,3088.0,2995.0,0.724548,-0.149475,-0.672852,0.001282,-1.0,0.0,0.0,7756.0,-1712.0,270.0,-228.0,76.0,-138.0,128.0,-3.0,-245.0,0.974644,-0.218329,0.0499,15496.0,-3472.0,488.0,-5.0,11.0,0.0
2907.0,2770.0,2851.0,3091.0,2995.0,0.724487,-0.149536,-0.672913,0.001221,-1.0,0.0,-1.0,7742.0,-1725.0,262.0,-242.0,63.0,-145.0,131.0,-20.0,-256.0,0.974668,-0.218317,0.049711,15458.0,-3474.0,576.0,-1.0,9.0,-3.0
2911.0,2773.0,2853.0,3089.0,2995.0,0.724487,-0.149475,-0.672913,0.001221,0.0,0.0,-1.0,7735.0,-1723.0,271.0,-249.0,64.0,-136.0,121.0,-18.0,-263.0,0.974668,-0.218228,0.049729,15438.0,-3428.0,602.0,2.0,10.0,-6.0
2914.0,2773.0,2853.0,3091.0,2999.0,0.724487,-0.149414,-0.672852,0.00116,-1.0,0.0,-1.0,7711.0,-1708.0,301.0,-272.0,78.0,-107.0,94.0,-3.0,-287.0,0.974598,-0.218058,0.049829,15350.0,-3358.0,722.0,0.0,9.0,-5.0
1.0,2855.0,3090.0,3003.0,0.744202,-0.116699,-0.657471,0.016479,-2.0,-2.0,-1.0,7679.0,-1507.0,941.0,-306.0,93.0,54.0,-82.0,44.0,-310.0,0.974735,-0.195365,0.108221,15338.0,-3012.0,1700.0,-36.0,-42.0,-4.0,
2918.0,2775.0,2855.0,3091.0,2997.0,0.743835,-0.116943,-0.657837,0.016235,-2.0,-2.0,-1.0,7696.0,-1487.0,892.0,-289.0,113.0,14.0,-37.0,60.0,-302.0,0.974848,-0.195334,0.10713,15494.0,-2942.0,1658.0,-36.0,-40.0,-3.0
2911.0,2770.0,2847.0,3089.0,2995.0,0.743713,-0.117004,-0.65802,0.016052,-2.0,-2.0,-1.0,7708.0,-1478.0,860.0,-279.0,120.0,-13.0,-8.0,65.0,-296.0,0.975,-0.195161,0.106687,15452.0,-2886.0,1504.0,-34.0,-24.0,-3.0
2911.0,2770.0,2850.0,3093.0,2995.0,0.74353,-0.117188,-0.658142,0.015808,-1.0,-1.0,-1.0,7713.0,-1483.0,811.0,-274.0,115.0,-59.0,36.0,54.0,-295.0,0.974992,-0.195073,0.106203,15430.0,-2958.0,1540.0,-20.0,0.0,-1.0
2917.0,2769.0,2859.0,3088.0,2997.0,0.74353,-0.117249,-0.658142,0.015686,-2.0,0.0,0.0,7721.0,-1475.0,803.0,-266.0,122.0,-66.0,45.0,61.0,-290.0,0.975019,-0.195003,0.106185,15486.0,-2912.0,1548.0,-24.0,14.0,3.0
2914.0,2774.0,2859.0,3091.0,3003.0,0.743591,-0.117615,-0.65802,0.015442,-3.0,0.0,0.0,7673.0,-1485.0,772.0,-313.0,114.0,-99.0,70.0,39.0,-337.0,0.974964,-0.195237,0.106343,15160.0,-3044.0,1424.0,-47.0,16.0,5.0
2911.0,2769.0,2855.0,3088.0,2993.0,0.74353,-0.117798,-0.65802,0.015259,-3.0,0.0,0.0,7652.0,-1504.0,776.0,-334.0,95.0,-94.0,60.0,18.0,-354.0,0.974921,-0.195254,0.106203,15208.0,-3120.0,1592.0,-47.0,3.0,0.0
2911.0,2771.0,2851.0,3091.0,2999.0,0.743469,-0.118042,-0.658081,0.014954,-2.0,0.0,-1.0,7681.0,-1516.0,819.0,-306.0,83.0,-49.0,18.0,18.0,-319.0,0.974996,-0.195203,0.105966,15582.0,-2998.0,1848.0,-27.0,1.0,-11.0
2911.0,2771.0,2863.0,3089.0,2995.0,0.74353,-0.118042,-0.65802,0.014832,-2.0,0.0,-1.0,7714.0,-1505.0,848.0,-273.0,92.0,-21.0,-3.0,37.0,-286.0,0.975014,-0.195055,0.106133,15610.0,-2928.0,1886.0,-23.0,14.0,-11.0
2910.0,2771.0,2859.0,3089.0,2999.0,0.743713,-0.118225,-0.657776,0.014465,-2.0,1.0,-1.0,7730.0,-1506.0,881.0,-256.0,90.0,7.0,-29.0,43.0,-266.0,0.974973,-0.194881,0.106673,15466.0,-3090.0,1824.0,-34.0,27.0,-4.0
2911.0,2773.0,2854.0,3087.0,2999.0,0.743835,-0.118347,-0.657654,0.014343,-2.0,1.0,-1.0,7727.0,-1520.0,884.0,-260.0,76.0,7.0,-31.0,28.0,-267.0,0.974977,-0.194927,0.106982,15440.0,-3106.0,1764.0,-26.0,25.0,-1.0
2911.0,2771.0,2851.0,3089.0,2999.0,0.743896,-0.118408,-0.657532,0.01416,-1.0,0.0,-1.0,7714.0,-1509.0,898.0,-272.0,86.0,19.0,-43.0,38.0,-279.0,0.974918,-0.194788,0.107214,15420.0,-2974.0,1860.0,-20.0,4.0,-10.0
2909.0,2771.0,2859.0,3091.0,2993.0,0.743896,-0.118408,-0.657532,0.013977,-2.0,-1.0,-1.0,7726.0,-1515.0,911.0,-260.0,78.0,32.0,-55.0,34.0,-265.0,0.974961,-0.194548,0.107209,15542.0,-3102.0,1922.0,-26.0,-6.0,-14.0
2914.0,2773.0,2851.0,3094.0,2999.0,0.743835,-0.11853,-0.657593,0.013611,-2.0,-1.0,-1.0,7763.0,-1518.0,924.0,-224.0,73.0,47.0,-66.0,38.0,-227.0,0.975055,-0.194235,0.106999,15618.0,-3034.0,1878.0,-40.0,-13.0,-17.0
2911.0,2771.0,2847.0,3093.0,2994.0,0.743835,-0.118591,-0.657654,0.013428,-2.0,-1.0,-2.0,7774.0,-1518.0,915.0,-214.0,71.0,39.0,-57.0,37.0,-218.0,0.975188,-0.194086,0.106899,15636.0,-3038.0,1752.0,-37.0,-11.0,-24.0
2914.0,2775.0,2861.0,3091.0,2995.0,0.743774,-0.118591,-0.657715,0.012939,-2.0,-1.0,-2.0,7791.0,-1511.0,894.0,-198.0,73.0,19.0,-35.0,39.0,-205.0,0.975314,-0.193431,0.106715,15578.0,-3000.0,1726.0,-25.0,-1.0,-31.0
2911.0,2771.0,2861.0,3090.0,2997.0,0.743774,-0.11853,-0.657715,0.012695,-1.0,-1.0,-2.0,7774.0,-1507.0,881.0,-216.0,74.0,6.0,-24.0,35.0,-224.0,0.975373,-0.193019,0.106723,15402.0,-2966.0,1654.0,-18.0,-1.0,-32.0
2911.0,2774.0,2855.0,3090.0,2999.0,0.743713,-0.118347,-0.657837,0.012329,-1.0,-1.0,-2.0,7738.0,-1468.0,866.0,-253.0,106.0,-6.0,-13.0,58.0,-267.0,0.975566,-0.192254,0.106506,15388.0,-2824.0,1738.0,-14.0,-12.0,-33.0
2911.0,2773.0,2855.0,3071.0,2997.0,0.743652,-0.118286,-0.657898,0.012146,-1.0,-1.0,-2.0,7723.0,-1455.0,859.0,-269.0,117.0,-12.0,-8.0,65.0,-286.0,0.975621,-0.191909,0.106345,15348.0,-2846.0,1666.0,-20.0,-11.0,-27.0
2909.0,2768.0,2849.0,3088.0,2998.0,0.74353,-0.118286,-0.65802,0.011841,-1.0,-1.0,-1.0,7686.0,-1427.0,837.0,-307.0,141.0,-31.0,8.0,78.0,-329.0,0.975714,-0.191482,0.105996,15274.0,-2764.0,1578.0,-18.0,-9.0,-6.0
2911.0,2774.0,2855.0,3088.0,2997.0,0.74353,-0.118347,-0.658081,0.01178,-1.0,-1.0,0.0,7677.0,-1415.0,836.0,-316.0,153.0,-31.0,9.0,88.0,-340.0,0.975818,-0.191494,0.105899,15310.0,-2744.0,1678.0,-17.0,-6.0,7.0
2911.0,2771.0,2851.0,3089.0,2995.0,0.74353,-0.11853,-0.65802,0.011658,-2.0,0.0,1.0,7656.0,-1406.0,841.0,-337.0,163.0,-26.0,3.0,95.0,-362.0,0.975752,-0.191604,0.105933,15246.0,-2794.0,1680.0,-27.0,3.0,24.0
2911.0,2769.0,2847.0,3089.0,2994.0,0.743469,-0.118713,-0.65802,0.011658,-2.0,-1.0,0.0,7648.0,-1419.0,841.0,-344.0,152.0,-25.0,0.0,83.0,-367.0,0.975667,-0.191862,0.105799,15248.0,-2942.0,1654.0,-26.0,-1.0,20.0
2911.0,2771.0,2853.0,3091.0,2999.0,0.743469,-0.118896,-0.65802,0.011597,-1.0,-1.0,0.0,7670.0,-1455.0,846.0,-322.0,118.0,-20.0,-7.0,55.0,-338.0,0.975678,-0.192053,0.105754,15442.0,-3036.0,1698.0,-6.0,-1.0,4.0
2914.0,2769.0,2853.0,3093.0,2999.0,0.743469,-0.118835,-0.65802,0.011597,0.0,0.0,-1.0,7681.0,-1477.0,840.0,-311.0,95.0,-26.0,-2.0,34.0,-324.0,0.975679,-0.191963,0.105769,15408.0,-3104.0,1636.0,5.0,6.0,-1.0
2918.0,2771.0,2861.0,3095.0,2993.0,0.74353,-0.118835,-0.657959,0.011719,0.0,0.0,0.0,7678.0,-1490.0,823.0,-314.0,83.0,-44.0,12.0,18.0,-326.0,0.97564,-0.192136,0.105943,15306.0,-2964.0,1586.0,1.0,1.0,5.0
2911.0,2771.0,2855.0,3091.0,2998.0,0.743469,-0.118896,-0.65802,0.011658,-1.0,-1.0,0.0,7676.0,-1497.0,806.0,-316.0,76.0,-60.0,27.0,9.0,-329.0,0.975663,-0.192134,0.105756,15366.0,-3062.0,1516.0,-11.0,-11.0,6.0
2915.0,2771.0,2850.0,3091.0,2995.0,0.743347,-0.119019,-0.658081,0.011719,-1.0,0.0,0.0,7737.0,-1506.0,809.0,-254.0,69.0,-54.0,28.0,14.0,-266.0,0.975576,-0.192368,0.105466,15712.0,-2944.0,1692.0,-6.0,4.0,9.0
2911.0,2773.0,2853.0,3093.0,2995.0,0.743408,-0.11908,-0.65802,0.011658,-1.0,1.0,0.0,7770.0,-1489.0,811.0,-221.0,87.0,-54.0,35.0,37.0,-238.0,0.975579,-0.192392,0.105621,15692.0,-2882.0,1632.0,-15.0,29.0,4.0
2914.0,2775.0,2859.0,3099.0,2999.0,0.743713,-0.119202,-0.657715,0.011414,-1.0,2.0,-1.0,7759.0,-1493.0,811.0,-232.0,82.0,-60.0,39.0,29.0,-248.0,0.975582,-0.192317,0.106442,15346.0,-2990.0,1606.0,-15.0,51.0,-1.0
2911.0,2773.0,2847.0,3088.0,2997.0,0.743835,-0.119263,-0.657532,0.011353,-1.0,1.0,0.0,7706.0,-1489.0,813.0,-285.0,86.0,-62.0,34.0,23.0,-301.0,0.975483,-0.192353,0.106849,15086.0,-2950.0,1688.0,-14.0,37.0,2.0
2907.0,2768.0,2847.0,3090.0,2995.0,0.743896,-0.119446,-0.657471,0.01123,-1.0,-1.0,0.0,7671.0,-1492.0,863.0,-320.0,84.0,-13.0,-18.0,23.0,-329.0,0.975497,-0.192478,0.106973,15342.0,-3012.0,1894.0,-22.0,-13.0,11.0
2911.0,2774.0,2851.0,3089.0,2993.0,0.743835,-0.119568,-0.657471,0.01123,-2.0,-1.0,0.0,7696.0,-1489.0,892.0,-294.0,89.0,16.0,-42.0,37.0,-302.0,0.975414,-0.192645,0.106853,15584.0,-2958.0,1978.0,-23.0,-21.0,16.0
2911.0,2771.0,2855.0,3093.0,2995.0,0.743774,-0.11969,-0.657532,0.011169,-1.0,-1.0,0.0,7738.0,-1482.0,910.0,-252.0,96.0,36.0,-55.0,55.0,-260.0,0.975437,-0.192733,0.106651,15526.0,-2924.0,1804.0,-8.0,-6.0,7.0
2903.0,2773.0,2847.0,3094.0,2991.0,0.743774,-0.11969,-0.657532,0.011169,0.0,-1.0,-1.0,7741.0,-1484.0,910.0,-249.0,94.0,36.0,-55.0,53.0,-257.0,0.975437,-0.192733,0.106651,15494.0,-2994.0,1832.0,1.0,-4.0,-4.0
2911.0,2774.0,2843.0,3091.0,2989.0,0.743835,-0.119446,-0.657471,0.01123,1.0,0.0,-1.0,7750.0,-1471.0,901.0,-240.0,105.0,25.0,-42.0,64.0,-251.0,0.975417,-0.192463,0.106882,15512.0,-2780.0,1778.0,29.0,3.0,-6.0
2911.0,2775.0,2859.0,3094.0,2998.0,0.743896,-0.119263,-0.657471,0.01123,0.0,0.0,0.0,7764.0,-1437.0,903.0,-227.0,137.0,26.0,-36.0,97.0,-244.0,0.975502,-0.192206,0.107017,15622.0,-2686.0,1840.0,15.0,8.0,0.0
2911.0,2775.0,2859.0,3089.0,2995.0,0.744019,-0.119446,-0.657349,0.011108,-2.0,0.0,0.0,7754.0,-1447.0,876.0,-237.0,128.0,-3.0,-11.0,82.0,-256.0,0.975505,-0.192344,0.107312,15402.0,-2996.0,1668.0,-32.0,19.0,21.0
2911.0,2768.0,2859.0,3088.0,2994.0,0.744019,-0.119629,-0.657288,0.011047,-2.0,0.0,0.0,7725.0,-1472.0,857.0,-265.0,105.0,-22.0,0.0,52.0,-281.0,0.975425,-0.192535,0.107348,15270.0,-3134.0,1598.0,-42.0,13.0,17.0
2911.0,2771.0,2851.0,3091.0,2993.0,0.743896,-0.119995,-0.657288,0.010986,-1.0,-1.0,-1.0,7697.0,-1537.0,848.0,-292.0,43.0,-29.0,-5.0,-13.0,-296.0,0.975271,-0.19297,0.107077,15446.0,-3202.0,1730.0,-14.0,-16.0,-1.0
2911.0,2775.0,2853.0,3095.0,2991.0,0.743896,-0.119995,-0.657349,0.010986,-1.0,-1.0,-1.0,7722.0,-1544.0,865.0,-268.0,36.0,-11.0,-20.0,-13.0,-269.0,0.975362,-0.192972,0.106997,15618.0,-3092.0,1830.0,0.0,-10.0,-8.0
2917.0,2773.0,2855.0,3091.0,2999.0,0.743958,-0.119934,-0.657288,0.010925,-1.0,0.0,-1.0,7740.0,-1542.0,896.0,-250.0,37.0,17.0,-45.0,-4.0,-249.0,0.975367,-0.192814,0.107181,15426.0,-3076.0,1896.0,-1.0,13.0,-3.0
2911.0,2751.0,2847.0,3087.0,2993.0,0.744019,-0.119934,-0.657227,0.010864,-1.0,0.0,-1.0,7720.0,-1536.0,912.0,-270.0,42.0,32.0,-62.0,0.0,-268.0,0.975372,-0.192747,0.107351,15318.0,-3042.0,1910.0,-9.0,5.0,-4.0
2909.0,2773.0,2847.0,3089.0,2994.0,0.74408,-0.119934,-0.657166,0.010742,-1.0,-1.0,-1.0,7717.0,-1548.0,940.0,-273.0,29.0,59.0,-90.0,-9.0,-265.0,0.97539,-0.1926,0.107519,15480.0,-3092.0,1968.0,-4.0,-7.0,-14.0
2915.0,2771.0,2849.0,3094.0,2997.0,0.74408,-0.119934,-0.657166,0.010681,-1.0,-1.0,-1.0,7713.0,-1532.0,942.0,-277.0,45.0,61.0,-91.0,5.0,-272.0,0.975405,-0.19252,0.107518,15388.0,-2960.0,1882.0,-7.0,-9.0,-16.0
2917.0,2771.0,2857.0,3091.0,2995.0,0.743958,-0.119934,-0.657288,0.010437,-1.0,-1.0,-1.0,7711.0,-1527.0,917.0,-280.0,47.0,39.0,-69.0,3.0,-277.0,0.975485,-0.192172,0.107171,15396.0,-3048.0,1724.0,-22.0,-17.0,-17.0
2910.0,2773.0,2849.0,3091.0,2999.0,0.743896,-0.119934,-0.657349,0.010315,-2.0,-1.0,-1.0,7708.0,-1528.0,898.0,-283.0,44.0,21.0,-52.0,-2.0,-282.0,0.975524,-0.191998,0.106997,15376.0,-3098.0,1696.0,-26.0,-20.0,-16.0
2910.0,2770.0,2845.0,3091.0,2991.0,0.743713,-0.119995,-0.657593,0.010071,-1.0,-2.0,-1.0,7695.0,-1522.0,869.0,-297.0,48.0,-2.0,-31.0,-5.0,-299.0,0.975704,-0.191729,0.106384,15382.0,-2988.0,1724.0,-16.0,-30.0,-16.0
2911.0,2775.0,2855.0,3091.0,3003.0,0.743591,-0.119995,-0.657715,0.01001,-1.0,-2.0,-1.0,7700.0,-1522.0,868.0,-293.0,47.0,0.0,-32.0,-4.0,-294.0,0.97574,-0.191622,0.106041,15452.0,-3034.0,1736.0,-10.0,-28.0,-19.0
2909.0,2775.0,2861.0,3091.0,2995.0,0.743469,-0.119873,-0.657837,0.009766,-1.0,-1.0,-1.0,7737.0,-1488.0,852.0,-256.0,77.0,-14.0,-9.0,28.0,-266.0,0.975822,-0.191092,0.105723,15576.0,-2852.0,1620.0,-8.0,-3.0,-18.0
2911.0,2771.0,2847.0,3094.0,2995.0,0.743469,-0.119873,-0.657837,0.009644,-1.0,0.0,-1.0,7733.0,-1459.0,826.0,-261.0,105.0,-40.0,19.0,50.0,-278.0,0.975851,-0.190932,0.105721,15418.0,-2744.0,1508.0,-18.0,9.0,-17.0
2911.0,2768.0,2855.0,3091.0,2993.0,0.74353,-0.119934,-0.657837,0.009216,-2.0,0.0,-1.0,7694.0,-1460.0,797.0,-301.0,100.0,-69.0,41.0,34.0,-320.0,0.976033,-0.190475,0.105789,15188.0,-3034.0,1470.0,-30.0,17.0,-10.0
2911.0,2775.0,2859.0,3095.0,2995.0,0.74353,-0.119995,-0.657776,0.009155,-1.0,0.0,0.0,7669.0,-1465.0,794.0,-326.0,95.0,-73.0,41.0,24.0,-343.0,0.975955,-0.190484,0.105853,15150.0,-2838.0,1520.0,-17.0,10.0,1.0
2917.0,2775.0,2863.0,3091.0,2995.0,0.74353,-0.120239,-0.657776,0.008911,-2.0,0.0,0.0,7683.0,-1440.0,826.0,-312.0,120.0,-40.0,14.0,56.0,-331.0,0.97601,-0.190526,0.10579,15474.0,-2932.0,1740.0,-37.0,9.0,2.0
2907.0,2773.0,2855.0,3071.0,2995.0,0.74353,-0.120361,-0.657715,0.008728,-2.0,0.0,0.0,7702.0,-1452.0,835.0,-293.0,108.0,-32.0,7.0,49.0,-309.0,0.975961,-0.190466,0.105838,15542.0,-3018.0,1774.0,-37.0,17.0,0.0
2911.0,2770.0,2855.0,3088.0,2992.0,0.743774,-0.120361,-0.657471,0.008545,0.0,1.0,-1.0,7725.0,-1463.0,854.0,-270.0,95.0,-18.0,-5.0,43.0,-283.0,0.975963,-0.190279,0.106519,15534.0,-2882.0,1824.0,5.0,29.0,-18.0
2915.0,2769.0,2859.0,3091.0,2998.0,0.743896,-0.120178,-0.657349,0.008484,0.0,1.0,-2.0,7733.0,-1456.0,873.0,-262.0,100.0,-2.0,-19.0,52.0,-274.0,0.97596,-0.189954,0.106904,15494.0,-2858.0,1814.0,17.0,31.0,-23.0
2911.0,2774.0,2878.0,3093.0,2995.0,0.744141,-0.119934,-0.657104,0.008362,0.0,0.0,0.0,7711.0,-1426.0,910.0,-283.0,126.0,28.0,-47.0,78.0,-297.0,0.975951,-0.189485,0.107645,15364.0,-2756.0,1864.0,4.0,15.0,0.0
2909.0,2769.0,2850.0,3088.0,2993.0,0.744202,-0.119934,-0.657043,0.008362,-1.0,-1.0,0.0,7703.0,-1420.0,914.0,-291.0,132.0,30.0,-49.0,83.0,-305.0,0.97594,-0.189498,0.107816,15346.0,-2832.0,1850.0,-6.0,0.0,12.0
2907.0,2770.0,2851.0,3089.0,2993.0,0.74408,-0.120178,-0.657166,0.008362,-2.0,-2.0,0.0,7727.0,-1434.0,910.0,-268.0,121.0,30.0,-48.0,76.0,-281.0,0.975957,-0.189835,0.107415,15638.0,-2966.0,1782.0,-24.0,-25.0,19.0
2911.0,2774.0,2851.0,3091.0,2999.0,0.743958,-0.1203,-0.657227,0.008362,-1.0,-2.0,0.0,7744.0,-1471.0,900.0,-250.0,85.0,22.0,-43.0,43.0,-257.0,0.975885,-0.189988,0.107124,15548.0,-3176.0,1732.0,-21.0,-26.0,11.0
2911.0,2773.0,2861.0,3091.0,2999.0,0.743774,-0.1203,-0.65741,0.008423,0.0,-2.0,-1.0,7746.0,-1510.0,888.0,-248.0,46.0,14.0,-40.0,4.0,-249.0,0.975902,-0.190027,0.106612,15476.0,-3050.0,1722.0,16.0,-25.0,-6.0
2910.0,2773.0,2847.0,3087.0,2993.0,0.743713,-0.120239,-0.657532,0.008484,1.0,-2.0,-1.0,7734.0,-1508.0,874.0,-261.0,48.0,2.0,-30.0,2.0,-263.0,0.97599,-0.190004,0.106376,15370.0,-3000.0,1662.0,24.0,-27.0,-10.0
2910.0,2770.0,2858.0,3089.0,2997.0,0.743469,-0.119934,-0.657837,0.008667,1.0,-2.0,-1.0,7738.0,-1504.0,853.0,-258.0,50.0,-12.0,-15.0,2.0,-262.0,0.976084,-0.189738,0.105688,15552.0,-2870.0,1606.0,35.0,-38.0,-12.0
2915.0,2807.0,2858.0,3091.0,2999.0,0.743408,-0.119751,-0.657959,0.008667,0.0,-1.0,-1.0,7772.0,-1461.0,858.0,-224.0,90.0,-6.0,-11.0,48.0,-236.0,0.976188,-0.189453,0.105481,15720.0,-2592.0,1788.0,18.0,-17.0,-13.0
2911.0,2773.0,2855.0,3093.0,2995.0,0.743408,-0.11969,-0.657959,0.008423,-2.0,0.0,-1.0,7750.0,-1462.0,825.0,-247.0,86.0,-39.0,17.0,35.0,-261.0,0.976248,-0.189041,0.105491,15330.0,-3028.0,1498.0,-25.0,9.0,-3.0
2919.0,2772.0,2850.0,3089.0,2993.0,0.743408,-0.119812,-0.657959,0.008362,-1.0,-1.0,0.0,7711.0,-1469.0,812.0,-286.0,80.0,-51.0,23.0,20.0,-299.0,0.976261,-0.189142,0.105461,15206.0,-2988.0,1522.0,-22.0,-2.0,2.0
2915.0,2771.0,2847.0,3095.0,2997.0,0.743286,-0.119934,-0.658081,0.008301,-1.0,-1.0,-1.0,7688.0,-1485.0,812.0,-309.0,65.0,-48.0,15.0,2.0,-319.0,0.976294,-0.189216,0.105088,15382.0,-2904.0,1628.0,-4.0,-18.0,-8.0
2914.0,2772.0,2855.0,3088.0,2995.0,0.743225,-0.119812,-0.658142,0.00824,0.0,-1.0,-1.0,7697.0,-1472.0,817.0,-301.0,75.0,-42.0,11.0,14.0,-312.0,0.976321,-0.18894,0.104945,15434.0,-2876.0,1626.0,4.0,-13.0,-16.0
2911.0,2774.0,2854.0,3095.0,2999.0,0.743225,-0.119629,-0.658203,0.008118,0.0,0.0,-1.0,7713.0,-1453.0,820.0,-286.0,91.0,-39.0,13.0,33.0,-300.0,0.976444,-0.188509,0.104907,15446.0,-2796.0,1596.0,5.0,2.0,-11.0
2911.0,2770.0,2849.0,3089.0,2999.0,0.743225,-0.119568,-0.658203,0.008057,0.0,0.0,-1.0,7716.0,-1420.0,820.0,-283.0,122.0,-39.0,18.0,64.0,-303.0,0.97646,-0.188338,0.104921,15442.0,-2638.0,1632.0,1.0,7.0,-5.0
2909.0,2770.0,2847.0,3093.0,2992.0,0.743286,-0.119568,-0.658142,0.007935,-1.0,0.0,0.0,7721.0,-1415.0,841.0,-278.0,126.0,-19.0,0.0,72.0,-297.0,0.976478,-0.18819,0.10509,15478.0,-2938.0,1766.0,-11.0,13.0,3.0
2911.0,2771.0,2857.0,3089.0,2995.0,0.743347,-0.119629,-0.658081,0.007935,-1.0,0.0,0.0,7715.0,-1432.0,837.0,-284.0,110.0,-25.0,2.0,54.0,-300.0,0.976467,-0.188295,0.105246,15350.0,-2976.0,1642.0,-3.0,19.0,8.0
2911.0,2774.0,2855.0,3089.0,2997.0,0.743408,-0.119629,-0.657959,0.007996,0.0,0.0,0.0,7699.0,-1444.0,842.0,-299.0,99.0,-22.0,-4.0,41.0,-312.0,0.976351,-0.188388,0.105499,15370.0,-2864.0,1720.0,4.0,3.0,11.0
2913.0,2769.0,2847.0,3095.0,2995.0,0.743408,-0.11969,-0.657959,0.007996,-1.0,-1.0,0.0,7710.0,-1446.0,845.0,-288.0,98.0,-19.0,-5.0,43.0,-301.0,0.97635,-0.188479,0.105484,15490.0,-2972.0,1716.0,-6.0,-4.0,10.0
2911.0,2773.0,2855.0,3089.0,2995.0,0.743408,-0.119751,-0.657959,0.008057,0.0,0.0,0.0,7746.0,-1494.0,859.0,-252.0,51.0,-5.0,-21.0,5.0,-256.0,0.976335,-0.18865,0.10547,15602.0,-3074.0,1764.0,10.0,3.0,0.0
2911.0,2770.0,2854.0,3091.0,2997.0,0.743469,-0.119629,-0.657898,0.008118,0.0,0.0,-1.0,7753.0,-1495.0,866.0,-244.0,49.0,0.0,-25.0,6.0,-247.0,0.976312,-0.188562,0.105672,15544.0,-2976.0,1768.0,15.0,7.0,-5.0
2911.0,2769.0,2855.0,3090.0,2998.0,0.74353,-0.119507,-0.657837,0.008057,0.0,0.0,-1.0,7759.0,-1470.0,869.0,-238.0,72.0,1.0,-22.0,29.0,-245.0,0.976318,-0.188314,0.105871,15602.0,-2836.0,1818.0,6.0,7.0,-11.0
2911.0,2769.0,2847.0,3093.0,2995.0,0.743591,-0.119446,-0.657837,0.007996,-1.0,0.0,-1.0,7759.0,-1455.0,867.0,-239.0,86.0,-1.0,-18.0,42.0,-249.0,0.976414,-0.188157,0.105975,15500.0,-2810.0,1706.0,-9.0,14.0,-10.0
2911.0,2774.0,2851.0,3089.0,2992.0,0.743713,-0.119507,-0.657715,0.007751,-2.0,0.0,-1.0,7708.0,-1455.0,856.0,-291.0,84.0,-14.0,-13.0,30.0,-301.0,0.97645,-0.187954,0.106299,15190.0,-2960.0,1628.0,-25.0,14.0,-7.0
2911.0,2773.0,2853.0,3091.0,2995.0,0.743652,-0.119629,-0.657715,0.007629,-2.0,-1.0,-1.0,7666.0,-1467.0,845.0,-332.0,72.0,-24.0,-10.0,9.0,-340.0,0.976397,-0.187961,0.106177,15078.0,-2996.0,1634.0,-24.0,-9.0,-5.0
2911.0,2775.0,2853.0,3094.0,2991.0,0.743469,-0.119751,-0.657959,0.007507,-1.0,-2.0,-1.0,7684.0,-1464.0,844.0,-315.0,75.0,-20.0,-11.0,16.0,-323.0,0.976547,-0.187941,0.105553,15532.0,-2954.0,1684.0,-12.0,-35.0,-3.0
2907.0,2770.0,2847.0,3091.0,2992.0,0.743347,-0.11969,-0.65802,0.007507,0.0,-2.0,-1.0,7714.0,-1468.0,853.0,-285.0,70.0,-9.0,-19.0,18.0,-292.0,0.976478,-0.187822,0.105305,15600.0,-2962.0,1766.0,4.0,-23.0,-4.0
2913.0,2770.0,2851.0,3095.0,2995.0,0.743347,-0.119507,-0.658081,0.007629,0.0,-1.0,0.0,7721.0,-1435.0,846.0,-278.0,102.0,-16.0,-6.0,49.0,-292.0,0.976542,-0.187712,0.105271,15436.0,-2740.0,1684.0,16.0,-1.0,2.0
2911.0,2771.0,2854.0,3091.0,2995.0,0.743408,-0.119446,-0.658081,0.007629,0.0,0.0,0.0,7710.0,-1418.0,847.0,-290.0,119.0,-16.0,-5.0,64.0,-307.0,0.976623,-0.187635,0.105376,15306.0,-2694.0,1652.0,4.0,2.0,8.0
2911.0,2773.0,2854.0,3094.0,2993.0,0.743347,-0.11969,-0.658081,0.007568,-2.0,-1.0,0.0,7697.0,-1422.0,841.0,-302.0,117.0,-21.0,-2.0,59.0,-319.0,0.976554,-0.187904,0.105226,15342.0,-2954.0,1646.0,-26.0,-9.0,20.0
2909.0,2768.0,2843.0,3091.0,2993.0,0.743286,-0.119812,-0.658081,0.007568,-1.0,-1.0,0.0,7705.0,-1444.0,829.0,-294.0,96.0,-32.0,6.0,38.0,-308.0,0.976471,-0.18807,0.105106,15486.0,-3046.0,1582.0,-17.0,-7.0,15.0
2911.0,2771.0,2855.0,3089.0,2991.0,0.743347,-0.119751,-0.658081,0.00769,1.0,0.0,-1.0,7720.0,-1499.0,810.0,-279.0,42.0,-51.0,18.0,-14.0,-285.0,0.976524,-0.188155,0.105213,15428.0,-3050.0,1574.0,32.0,16.0,-7.0
2915.0,2773.0,2859.0,3091.0,2995.0,0.743408,-0.119568,-0.65802,0.007812,1.0,0.0,-1.0,7720.0,-1481.0,811.0,-279.0,59.0,-52.0,22.0,1.0,-289.0,0.976487,-0.188057,0.10543,15434.0,-2794.0,1600.0,40.0,20.0,-8.0
2911.0,2773.0,2853.0,3091.0,2997.0,0.743591,-0.119324,-0.657837,0.007812,0.0,1.0,0.0,7725.0,-1432.0,820.0,-274.0,105.0,-48.0,25.0,47.0,-292.0,0.976459,-0.187735,0.106001,15458.0,-2728.0,1708.0,4.0,31.0,3.0
2911.0,2771.0,2847.0,3089.0,2992.0,0.743713,-0.119385,-0.657654,0.007751,-1.0,1.0,0.0,7726.0,-1433.0,838.0,-272.0,105.0,-33.0,10.0,50.0,-288.0,0.976361,-0.187772,0.106408,15456.0,-2912.0,1796.0,-12.0,36.0,10.0
2911.0,2778.0,2851.0,3091.0,2995.0,0.743958,-0.119568,-0.657349,0.007751,-1.0,1.0,0.0,7719.0,-1457.0,861.0,-278.0,83.0,-16.0,-9.0,31.0,-288.0,0.976225,-0.188098,0.107129,15450.0,-2932.0,1830.0,-9.0,31.0,17.0
2914.0,2773.0,2854.0,3103.0,2999.0,0.74408,-0.119629,-0.657227,0.007812,-1.0,1.0,0.0,7715.0,-1462.0,881.0,-281.0,80.0,0.0,-26.0,30.0,-289.0,0.976189,-0.188296,0.107458,15384.0,-2940.0,1868.0,-4.0,27.0,16.0
2913.0,2773.0,2855.0,3093.0,2995.0,0.744263,-0.119751,-0.657043,0.007874,-1.0,0.0,0.0,7712.0,-1489.0,927.0,-284.0,56.0,42.0,-71.0,13.0,-283.0,0.97614,-0.188599,0.107943,15482.0,-3070.0,2020.0,-3.0,1.0,8.0
2911.0,2769.0,2853.0,3089.0,2997.0,0.744263,-0.119751,-0.656982,0.007874,0.0,-1.0,0.0,7717.0,-1502.0,947.0,-278.0,42.0,62.0,-92.0,4.0,-272.0,0.976049,-0.188598,0.108023,15472.0,-3070.0,2012.0,2.0,-6.0,2.0
2915.0,2774.0,2855.0,3089.0,2995.0,0.744263,-0.119751,-0.656982,0.007874,0.0,-1.0,-1.0,7727.0,-1516.0,963.0,-268.0,28.0,78.0,-108.0,-5.0,-258.0,0.976049,-0.188598,0.108023,15502.0,-3144.0,2046.0,6.0,-14.0,-5.0
2911.0,2773.0,2853.0,3091.0,3031.0,0.744202,-0.119507,-0.657104,0.007935,1.0,-2.0,-2.0,7739.0,-1533.0,952.0,-257.0,9.0,68.0,-100.0,-23.0,-245.0,0.97614,-0.188302,0.107831,15550.0,-3094.0,1872.0,26.0,-27.0,-30.0
2911.0,2771.0,2850.0,3091.0,2997.0,0.744141,-0.119263,-0.657227,0.007935,1.0,-2.0,-2.0,7746.0,-1535.0,953.0,-251.0,4.0,71.0,-103.0,-26.0,-238.0,0.976245,-0.187926,0.107638,15540.0,-3108.0,1930.0,32.0,-28.0,-44.0
2909.0,2769.0,2853.0,3089.0,2995.0,0.744141,-0.118591,-0.657349,0.007874,1.0,-1.0,-2.0,7760.0,-1488.0,952.0,-239.0,42.0,70.0,-94.0,12.0,-233.0,0.976452,-0.186849,0.107636,15516.0,-2772.0,1882.0,30.0,-18.0,-39.0
2911.0,2774.0,2855.0,3095.0,2995.0,0.74408,-0.118408,-0.657471,0.007751,0.0,-1.0,-2.0,7759.0,-1460.0,939.0,-241.0,67.0,58.0,-79.0,34.0,-241.0,0.976585,-0.186403,0.107426,15516.0,-2792.0,1812.0,6.0,-19.0,-28.0
2915.0,2773.0,2851.0,3091.0,2997.0,0.743958,-0.118347,-0.657654,0.007507,-1.0,-1.0,-1.0,7754.0,-1450.0,894.0,-247.0,73.0,17.0,-39.0,32.0,-253.0,0.976756,-0.185965,0.107015,15504.0,-2876.0,1644.0,-15.0,-18.0,-13.0
2914.0,2771.0,2851.0,3088.0,2995.0,0.743896,-0.118347,-0.657715,0.007385,-1.0,-1.0,-1.0,7753.0,-1449.0,858.0,-248.0,72.0,-17.0,-6.0,25.0,-257.0,0.976795,-0.185791,0.106842,15478.0,-2894.0,1478.0,-13.0,-14.0,-19.0
2911.0,2771.0,2853.0,3089.0,2998.0,0.743713,-0.118103,-0.657959,0.007141,0.0,-1.0,-2.0,7740.0,-1440.0,819.0,-263.0,76.0,-51.0,25.0,21.0,-276.0,0.976979,-0.185067,0.106302,15424.0,-2836.0,1544.0,5.0,-16.0,-34.0
2911.0,2771.0,2855.0,3093.0,2995.0,0.743652,-0.117981,-0.65802,0.007019,0.0,-1.0,-2.0,7727.0,-1412.0,817.0,-276.0,101.0,-52.0,28.0,43.0,-293.0,0.97702,-0.184711,0.106158,15376.0,-2632.0,1652.0,9.0,-17.0,-25.0
2911.0,2773.0,2853.0,3091.0,2995.0,0.74353,-0.117859,-0.658203,0.006836,-1.0,-1.0,-1.0,7717.0,-1362.0,831.0,-288.0,147.0,-35.0,17.0,89.0,-312.0,0.977177,-0.184262,0.105762,15392.0,-2660.0,1694.0,-18.0,-15.0,-3.0
2911.0,2773.0,2851.0,3067.0,2997.0,0.743469,-0.117859,-0.658264,0.006714,-1.0,-1.0,0.0,7711.0,-1355.0,852.0,-294.0,153.0,-12.0,-5.0,98.0,-316.0,0.977216,-0.184088,0.105589,15350.0,-2642.0,1818.0,-20.0,-13.0,5.0
2911.0,2769.0,2851.0,3091.0,2997.0,0.743408,-0.117981,-0.658325,0.006653,-1.0,-1.0,0.0,7688.0,-1365.0,857.0,-317.0,143.0,-6.0,-15.0,85.0,-336.0,0.977239,-0.184175,0.105388,15302.0,-2764.0,1686.0,-4.0,-15.0,8.0
2914.0,2773.0,2855.0,3095.0,2999.0,0.743347,-0.11792,-0.658386,0.006714,0.0,-1.0,0.0,7693.0,-1368.0,860.0,-312.0,140.0,-2.0,-19.0,84.0,-330.0,0.977236,-0.184152,0.105233,15468.0,-2744.0,1722.0,9.0,-13.0,9.0
2913.0,2771.0,2859.0,3091.0,2995.0,0.743408,-0.117798,-0.658386,0.006897,0.0,0.0,0.0,7710.0,-1368.0,847.0,-295.0,141.0,-16.0,-3.0,85.0,-315.0,0.977275,-0.184226,0.105355,15476.0,-2696.0,1624.0,18.0,5.0,11.0
2911.0,2773.0,2857.0,3091.0,2997.0,0.743408,-0.117798,-0.658325,0.006958,0.0,0.0,0.0,7702.0,-1369.0,835.0,-302.0,140.0,-28.0,7.0,81.0,-323.0,0.977169,-0.184305,0.105436,15338.0,-2758.0,1594.0,12.0,11.0,13.0
2911.0,2771.0,2855.0,3088.0,2997.0,0.743408,-0.117859,-0.658325,0.00708,-1.0,-1.0,0.0,7664.0,-1400.0,802.0,-340.0,111.0,-61.0,30.0,41.0,-359.0,0.97714,-0.184557,0.105423,15266.0,-2920.0,1558.0,-4.0,-11.0,19.0
2915.0,2773.0,2855.0,3091.0,2999.0,0.743286,-0.117981,-0.658447,0.007141,-1.0,-1.0,0.0,7682.0,-1420.0,809.0,-322.0,93.0,-51.0,20.0,28.0,-337.0,0.977144,-0.184791,0.105053,15550.0,-2952.0,1678.0,-5.0,-21.0,15.0
2914.0,2771.0,2855.0,3090.0,2995.0,0.743225,-0.117981,-0.658569,0.007263,0.0,-1.0,-1.0,7760.0,-1463.0,811.0,-245.0,52.0,-47.0,21.0,2.0,-253.0,0.977217,-0.184939,0.104803,15726.0,-3036.0,1654.0,16.0,-10.0,-4.0
2913.0,2771.0,2850.0,3091.0,2997.0,0.743164,-0.117798,-0.658569,0.007263,1.0,-1.0,-1.0,7780.0,-1473.0,812.0,-224.0,39.0,-46.0,21.0,-6.0,-230.0,0.977139,-0.184653,0.104756,15630.0,-2968.0,1632.0,30.0,-7.0,-18.0
2911.0,2769.0,2855.0,3091.0,2998.0,0.743103,-0.117371,-0.658752,0.007385,1.0,-2.0,-2.0,7776.0,-1507.0,815.0,-230.0,1.0,-41.0,10.0,-43.0,-229.0,0.977308,-0.184167,0.104526,15532.0,-3116.0,1656.0,45.0,-26.0,-29.0
2917.0,2774.0,2855.0,3091.0,2997.0,0.743042,-0.117126,-0.658936,0.007507,1.0,-2.0,-2.0,7766.0,-1499.0,831.0,-241.0,7.0,-23.0,-8.0,-36.0,-239.0,0.977475,-0.183953,0.104253,15470.0,-2910.0,1774.0,45.0,-35.0,-33.0
2913.0,2773.0,2854.0,3091.0,2999.0,0.742859,-0.116638,-0.65918,0.007446,0.0,-2.0,-2.0,7772.0,-1483.0,860.0,-236.0,17.0,9.0,-37.0,-20.0,-232.0,0.977618,-0.183108,0.103772,15606.0,-2920.0,1766.0,15.0,-34.0,-36.0
2913.0,2769.0,2852.0,3090.0,2993.0,0.742737,-0.116516,-0.659302,0.007385,-1.0,-2.0,-2.0,7776.0,-1495.0,859.0,-232.0,2.0,11.0,-40.0,-34.0,-226.0,0.977654,-0.18282,0.103458,15558.0,-3104.0,1704.0,-1.0,-25.0,-33.0
2911.0,2771.0,2850.0,3089.0,2991.0,0.742676,-0.116333,-0.659424,0.007141,-1.0,-1.0,-2.0,7764.0,-1484.0,854.0,-246.0,8.0,8.0,-38.0,-31.0,-241.0,0.977815,-0.182213,0.103245,15474.0,-2858.0,1672.0,-9.0,-6.0,-31.0
2911.0,2773.0,2855.0,3093.0,2997.0,0.742676,-0.116333,-0.659424,0.006958,-1.0,0.0,-2.0,7747.0,-1473.0,854.0,-263.0,17.0,8.0,-39.0,-25.0,-259.0,0.977857,-0.181972,0.103243,15382.0,-2890.0,1752.0,-19.0,3.0,-32.0
2915.0,2771.0,2855.0,3091.0,2999.0,0.742737,-0.116272,-0.659363,0.006531,-2.0,0.0,-2.0,7715.0,-1438.0,866.0,-296.0,47.0,18.0,-49.0,0.0,-296.0,0.977947,-0.181331,0.103422,15342.0,-2774.0,1768.0,-27.0,13.0,-31.0
2911.0,2773.0,2855.0,3091.0,2997.0,0.742798,-0.116272,-0.659302,0.006226,-2.0,0.0,-2.0,7689.0,-1425.0,857.0,-322.0,57.0,8.0,-41.0,4.0,-324.0,0.978008,-0.180942,0.103589,15230.0,-2794.0,1642.0,-37.0,10.0,-32.0
2911.0,2771.0,2851.0,3089.0,2995.0,0.742798,-0.116272,-0.659363,0.005798,-2.0,-1.0,-2.0,7664.0,-1428.0,838.0,-349.0,49.0,-9.0,-29.0,-10.0,-351.0,0.978198,-0.18038,0.103504,15338.0,-2792.0,1636.0,-27.0,-4.0,-31.0
2911.0,2773.0,2855.0,3091.0,2999.0,0.742737,-0.116272,-0.659363,0.005554,-2.0,-1.0,-2.0,7673.0,-1396.0,827.0,-340.0,78.0,-20.0,-13.0,17.0,-348.0,0.978174,-0.180043,0.10341,15432.0,-2588.0,1544.0,-27.0,-4.0,-29.0
2911.0,2775.0,2861.0,3095.0,2999.0,0.742676,-0.116272,-0.659424,0.005127,-2.0,0.0,-1.0,7705.0,-1371.0,815.0,-309.0,99.0,-30.0,3.0,41.0,-323.0,0.978284,-0.179466,0.103235,15472.0,-2680.0,1554.0,-26.0,6.0,-20.0
2914.0,2773.0,2853.0,3091.0,2995.0,0.742737,-0.116272,-0.659424,0.004944,-1.0,0.0,-1.0,7705.0,-1347.0,808.0,-310.0,121.0,-38.0,14.0,61.0,-328.0,0.978407,-0.179239,0.103323,15410.0,-2534.0,1588.0,-16.0,7.0,-14.0
2914.0,2773.0,2853.0,3089.0,2995.0,0.742737,-0.116211,-0.659424,0.0047,-1.0,0.0,-1.0,7722.0,-1322.0,803.0,-293.0,142.0,-43.0,24.0,84.0,-316.0,0.978464,-0.178826,0.103335,15522.0,-2608.0,1584.0,-15.0,9.0,-4.0
2914.0,2775.0,2855.0,3091.0,2997.0,0.742798,-0.116211,-0.659363,0.004578,-1.0,0.0,0.0,7731.0,-1325.0,795.0,-284.0,138.0,-52.0,34.0,80.0,-307.0,0.978483,-0.178679,0.103505,15512.0,-2670.0,1522.0,-8.0,20.0,0.0
2916.0,2773.0,2857.0,3093.0,2997.0,0.742981,-0.11615,-0.65918,0.004517,0.0,1.0,-1.0,7725.0,-1310.0,788.0,-290.0,152.0,-64.0,47.0,90.0,-317.0,0.978467,-0.178549,0.104032,15380.0,-2608.0,1564.0,5.0,33.0,-1.0
2909.0,2785.0,2854.0,3093.0,2995.0,0.743103,-0.116089,-0.659058,0.004517,0.0,1.0,0.0,7726.0,-1311.0,796.0,-289.0,151.0,-59.0,41.0,90.0,-315.0,0.978447,-0.178485,0.104389,15464.0,-2594.0,1640.0,13.0,30.0,0.0
2911.0,2771.0,2855.0,3091.0,2995.0,0.743286,-0.115967,-0.658813,0.004395,-1.0,1.0,0.0,7735.0,-1276.0,822.0,-279.0,183.0,-38.0,27.0,127.0,-309.0,0.978355,-0.178183,0.10501,15434.0,-2506.0,1674.0,-14.0,32.0,11.0
2911.0,2773.0,2874.0,3091.0,2994.0,0.743408,-0.116089,-0.658691,0.004333,-2.0,0.0,0.0,7738.0,-1298.0,831.0,-276.0,162.0,-31.0,17.0,108.0,-302.0,0.978347,-0.178312,0.105324,15498.0,-2734.0,1688.0,-26.0,21.0,20.0
2915.0,2774.0,2855.0,3127.0,2995.0,0.743469,-0.116333,-0.658569,0.004395,-1.0,0.0,0.0,7769.0,-1352.0,864.0,-244.0,112.0,0.0,-15.0,69.0,-258.0,0.97823,-0.178768,0.105519,15654.0,-2840.0,1874.0,-1.0,12.0,16.0
2911.0,2774.0,2854.0,3094.0,2991.0,0.743591,-0.116272,-0.658447,0.004456,0.0,0.0,0.0,7780.0,-1370.0,889.0,-233.0,94.0,21.0,-37.0,57.0,-242.0,0.978195,-0.178785,0.105876,15596.0,-2794.0,1924.0,22.0,18.0,6.0
2911.0,2771.0,2851.0,3089.0,2996.0,0.743713,-0.11615,-0.658264,0.004639,0.0,-1.0,0.0,7763.0,-1364.0,918.0,-249.0,101.0,46.0,-63.0,66.0,-256.0,0.978042,-0.178871,0.106329,15410.0,-2704.0,1976.0,3.0,-2.0,16.0
2911.0,2775.0,2858.0,3093.0,2995.0,0.743713,-0.116272,-0.658264,0.004639,-1.0,-1.0,1.0,7744.0,-1358.0,924.0,-268.0,108.0,53.0,-71.0,71.0,-275.0,0.978041,-0.179053,0.1063,15424.0,-2688.0,1890.0,-18.0,-21.0,23.0
2915.0,2769.0,2855.0,3087.0,2995.0,0.74353,-0.116516,-0.658447,0.004761,-1.0,-2.0,0.0,7763.0,-1409.0,930.0,-249.0,61.0,63.0,-85.0,29.0,-247.0,0.978042,-0.179536,0.105731,15570.0,-2984.0,1780.0,-9.0,-29.0,18.0
2911.0,2771.0,2853.0,3091.0,2993.0,0.743469,-0.116577,-0.658508,0.004822,0.0,-2.0,0.0,7765.0,-1432.0,913.0,-247.0,40.0,48.0,-73.0,7.0,-243.0,0.978037,-0.179693,0.105546,15548.0,-3010.0,1768.0,7.0,-27.0,4.0
2911.0,2770.0,2850.0,3089.0,2999.0,0.743408,-0.116394,-0.65863,0.005005,0.0,-1.0,-1.0,7777.0,-1436.0,897.0,-235.0,35.0,34.0,-59.0,1.0,-232.0,0.978097,-0.179649,0.105339,15536.0,-2854.0,1698.0,21.0,-9.0,-7.0
2913.0,2771.0,2855.0,3091.0,2999.0,0.743408,-0.116333,-0.65863,0.005005,0.0,-1.0,-1.0,7768.0,-1431.0,889.0,-244.0,39.0,25.0,-51.0,2.0,-243.0,0.978098,-0.179559,0.105353,15434.0,-2838.0,1750.0,13.0,-4.0,-5.0
2913.0,2775.0,2859.0,3095.0,2995.0,0.743408,-0.116272,-0.658691,0.005005,-1.0,-1.0,-1.0,7727.0,-1445.0,844.0,-286.0,25.0,-18.0,-16.0,-24.0,-286.0,0.978189,-0.179468,0.105287,15364.0,-2946.0,1520.0,-4.0,-6.0,-8.0
2911.0,2769.0,2855.0,3091.0,2997.0,0.743347,-0.116272,-0.658752,0.005005,-1.0,-1.0,-1.0,7719.0,-1451.0,827.0,-294.0,19.0,-34.0,-2.0,-34.0,-294.0,0.9782,-0.179455,0.105116,15446.0,-2902.0,1568.0,-4.0,-9.0,-12.0
2911.0,2775.0,2855.0,3090.0,2993.0,0.743286,-0.116272,-0.658813,0.004761,-1.0,0.0,-1.0,7730.0,-1447.0,818.0,-283.0,20.0,-41.0,5.0,-32.0,-284.0,0.978267,-0.17912,0.104943,15466.0,-2858.0,1642.0,-15.0,2.0,-20.0
2914.0,2771.0,2855.0,3091.0,2999.0,0.743286,-0.116272,-0.658752,0.004639,-1.0,0.0,-1.0,7725.0,-1433.0,827.0,-288.0,33.0,-33.0,0.0,-19.0,-291.0,0.978204,-0.178958,0.105022,15440.0,-2742.0,1708.0,-17.0,3.0,-22.0
2911.0,2773.0,2855.0,3094.0,2995.0,0.743286,-0.116272,-0.658752,0.004333,-2.0,-1.0,-1.0,7739.0,-1406.0,865.0,-275.0,56.0,4.0,-32.0,11.0,-278.0,0.978275,-0.178556,0.105019,15476.0,-2746.0,1886.0,-30.0,-1.0,-13.0
2911.0,2773.0,2855.0,3093.0,2997.0,0.743286,-0.116394,-0.658752,0.00415,-2.0,-1.0,-1.0,7734.0,-1403.0,880.0,-280.0,59.0,19.0,-46.0,15.0,-282.0,0.978317,-0.178496,0.104989,15420.0,-2804.0,1830.0,-36.0,-7.0,-3.0
2915.0,2774.0,2853.0,3088.0,2995.0,0.743164,-0.116638,-0.658813,0.003906,-2.0,-1.0,-1.0,7766.0,-1401.0,909.0,-248.0,61.0,51.0,-73.0,28.0,-248.0,0.978302,-0.17851,0.104668,15632.0,-2854.0,1876.0,-37.0,-20.0,-4.0
2923.0,2774.0,2855.0,3091.0,2995.0,0.743103,-0.11676,-0.658875,0.003723,-2.0,-1.0,-1.0,7771.0,-1422.0,911.0,-243.0,39.0,55.0,-80.0,8.0,-238.0,0.978354,-0.178436,0.104467,15548.0,-2992.0,1856.0,-35.0,-16.0,-17.0
2917.0,2773.0,2855.0,3091.0,3003.0,0.742981,-0.116699,-0.658997,0.003418,-1.0,-2.0,-2.0,7765.0,-1431.0,910.0,-250.0,26.0,56.0,-83.0,-4.0,-243.0,0.978446,-0.177915,0.104137,15570.0,-2714.0,1824.0,-8.0,-23.0,-43.0
2913.0,2771.0,2854.0,3089.0,2997.0,0.74292,-0.116516,-0.659119,0.003174,-1.0,-1.0,-3.0,7768.0,-1409.0,903.0,-248.0,43.0,51.0,-76.0,11.0,-245.0,0.978605,-0.177308,0.103927,15538.0,-2718.0,1752.0,-13.0,-22.0,-47.0
2915.0,2771.0,2852.0,3091.0,2997.0,0.742737,-0.116333,-0.659363,0.002808,-1.0,-2.0,-2.0,7732.0,-1388.0,871.0,-286.0,57.0,24.0,-52.0,14.0,-287.0,0.978813,-0.176512,0.103373,15338.0,-2652.0,1672.0,-11.0,-35.0,-35.0
2911.0,2772.0,2851.0,3089.0,2995.0,0.742615,-0.116211,-0.659546,0.002625,-1.0,-2.0,-2.0,7732.0,-1367.0,871.0,-287.0,75.0,27.0,-52.0,32.0,-291.0,0.978967,-0.176062,0.102978,15490.0,-2608.0,1730.0,-8.0,-42.0,-33.0
2911.0,2771.0,2853.0,3095.0,2997.0,0.742371,-0.116089,-0.659851,0.002258,-2.0,-1.0,-1.0,7759.0,-1316.0,852.0,-262.0,120.0,14.0,-29.0,78.0,-276.0,0.979184,-0.175342,0.102239,15538.0,-2596.0,1606.0,-28.0,-21.0,-21.0
2911.0,2770.0,2851.0,3091.0,2999.0,0.74231,-0.11615,-0.659912,0.002075,-2.0,-1.0,-1.0,7743.0,-1319.0,829.0,-278.0,116.0,-7.0,-11.0,68.0,-293.0,0.979236,-0.175177,0.102053,15354.0,-2656.0,1530.0,-25.0,-16.0,-13.0
2910.0,2771.0,2854.0,3091.0,2975.0,0.742126,-0.116211,-0.660156,0.001831,-1.0,-1.0,-1.0,7706.0,-1285.0,774.0,-317.0,147.0,-57.0,37.0,83.0,-341.0,0.979413,-0.174904,0.101444,15338.0,-2504.0,1332.0,-19.0,-20.0,-7.0
2915.0,2779.0,2854.0,3093.0,2997.0,0.742004,-0.116211,-0.660278,0.00177,-1.0,-1.0,-1.0,7701.0,-1295.0,749.0,-322.0,136.0,-79.0,56.0,68.0,-347.0,0.979447,-0.174795,0.101101,15360.0,-2654.0,1354.0,-7.0,-16.0,-4.0
2917.0,2773.0,2858.0,3095.0,2999.0,0.741882,-0.116089,-0.6604,0.00177,0.0,0.0,0.0,7680.0,-1291.0,715.0,-343.0,139.0,-110.0,84.0,63.0,-371.0,0.979468,-0.174586,0.100787,15256.0,-2568.0,1336.0,14.0,3.0,0.0
2910.0,2773.0,2855.0,3091.0,2999.0,0.741882,-0.116028,-0.6604,0.00177,0.0,0.0,0.0,7678.0,-1283.0,712.0,-345.0,146.0,-113.0,88.0,69.0,-374.0,0.979468,-0.174496,0.100801,15364.0,-2524.0,1432.0,11.0,5.0,4.0
2908.0,2771.0,2854.0,3091.0,2999.0,0.741882,-0.116028,-0.6604,0.00177,-1.0,0.0,0.0,7702.0,-1283.0,736.0,-321.0,146.0,-89.0,68.0,76.0,-348.0,0.979468,-0.174496,0.100801,15484.0,-2600.0,1610.0,-15.0,10.0,12.0
2911.0,2775.0,2855.0,3091.0,2995.0,0.741943,-0.11615,-0.660339,0.001709,-1.0,0.0,0.0,7716.0,-1310.0,749.0,-307.0,120.0,-77.0,54.0,55.0,-329.0,0.979472,-0.17461,0.100944,15514.0,-2794.0,1588.0,-12.0,11.0,11.0
2911.0,2775.0,2854.0,3091.0,2995.0,0.742065,-0.11615,-0.660217,0.001831,0.0,0.0,0.0,7740.0,-1344.0,792.0,-283.0,87.0,-37.0,13.0,34.0,-296.0,0.979424,-0.174799,0.101287,15548.0,-2734.0,1744.0,14.0,15.0,6.0
2911.0,2769.0,2846.0,3093.0,2997.0,0.742126,-0.116089,-0.660156,0.001892,0.0,0.0,0.0,7751.0,-1355.0,808.0,-272.0,76.0,-23.0,0.0,27.0,-282.0,0.9794,-0.174803,0.101472,15586.0,-2750.0,1776.0,15.0,16.0,3.0
2911.0,2769.0,2886.0,3088.0,2995.0,0.74231,-0.116028,-0.659912,0.002014,0.0,0.0,0.0,7763.0,-1357.0,845.0,-259.0,75.0,8.0,-29.0,33.0,-265.0,0.979251,-0.174915,0.102081,15520.0,-2672.0,1812.0,11.0,22.0,7.0
2914.0,2771.0,2863.0,3093.0,2999.0,0.742432,-0.115967,-0.65979,0.002014,0.0,0.0,0.0,7755.0,-1361.0,847.0,-266.0,71.0,7.0,-30.0,28.0,-272.0,0.979231,-0.174853,0.102438,15468.0,-2780.0,1682.0,2.0,19.0,7.0
2915.0,2774.0,2854.0,3094.0,2999.0,0.742493,-0.116028,-0.659729,0.002075,0.0,0.0,-1.0,7756.0,-1387.0,851.0,-265.0,46.0,10.0,-37.0,5.0,-266.0,0.979206,-0.175038,0.102595,15558.0,-2790.0,1760.0,7.0,2.0,-1.0
2911.0,2773.0,2851.0,3091.0,2999.0,0.742493,-0.115967,-0.659729,0.002075,0.0,-1.0,-1.0,7759.0,-1381.0,853.0,-262.0,52.0,12.0,-37.0,11.0,-264.0,0.979207,-0.174947,0.102609,15552.0,-2718.0,1708.0,11.0,-5.0,-5.0
2911.0,2771.0,2851.0,3089.0,2995.0,0.742493,-0.115845,-0.659729,0.002075,-1.0,-1.0,-1.0,7774.0,-1368.0,869.0,-247.0,63.0,28.0,-49.0,27.0,-250.0,0.979207,-0.174766,0.102637,15608.0,-2710.0,1818.0,0.0,-10.0,-6.0
2915.0,2775.0,2859.0,3093.0,2997.0,0.742493,-0.115845,-0.65979,0.002014,-1.0,-1.0,-1.0,7777.0,-1369.0,872.0,-245.0,62.0,31.0,-52.0,27.0,-247.0,0.979312,-0.174686,0.102557,15566.0,-2776.0,1798.0,-8.0,-10.0,-6.0
2919.0,2773.0,2853.0,3089.0,2997.0,0.742432,-0.115784,-0.659851,0.001953,0.0,-1.0,-1.0,7780.0,-1376.0,871.0,-242.0,53.0,32.0,-54.0,19.0,-242.0,0.979336,-0.1745,0.102399,15576.0,-2768.0,1740.0,4.0,-8.0,-12.0
2914.0,2774.0,2861.0,3071.0,2995.0,0.742432,-0.115662,-0.659851,0.001892,0.0,-1.0,-1.0,7775.0,-1360.0,865.0,-247.0,67.0,25.0,-46.0,31.0,-251.0,0.979351,-0.174239,0.102427,15486.0,-2582.0,1696.0,6.0,-2.0,-13.0
2915.0,2773.0,2849.0,3089.0,2995.0,0.742432,-0.115723,-0.659851,0.00177,-1.0,-1.0,0.0,7727.0,-1338.0,847.0,-296.0,88.0,8.0,-32.0,41.0,-304.0,0.979379,-0.174168,0.102413,15278.0,-2644.0,1586.0,-22.0,-15.0,5.0
2911.0,2773.0,2859.0,3095.0,2999.0,0.74231,-0.115845,-0.659973,0.001709,-2.0,-2.0,0.0,7716.0,-1341.0,842.0,-307.0,86.0,6.0,-32.0,36.0,-315.0,0.979413,-0.174241,0.102042,15390.0,-2716.0,1660.0,-33.0,-25.0,12.0
2907.0,2774.0,2847.0,3090.0,2995.0,0.742126,-0.11615,-0.660095,0.001648,-1.0,-1.0,0.0,7736.0,-1384.0,824.0,-286.0,46.0,-7.0,-22.0,0.0,-288.0,0.979365,-0.174571,0.101538,15526.0,-2858.0,1578.0,-16.0,-16.0,4.0
2911.0,2771.0,2858.0,3095.0,2997.0,0.742065,-0.11615,-0.660156,0.001587,-1.0,-1.0,-1.0,7737.0,-1391.0,808.0,-286.0,38.0,-22.0,-9.0,-11.0,-288.0,0.97939,-0.174477,0.101367,15464.0,-2790.0,1530.0,-6.0,-5.0,-12.0
2911.0,2771.0,2855.0,3091.0,2999.0,0.742126,-0.116028,-0.660156,0.001404,-1.0,0.0,-2.0,7747.0,-1367.0,800.0,-277.0,58.0,-31.0,3.0,8.0,-284.0,0.979513,-0.174068,0.101485,15560.0,-2618.0,1620.0,-10.0,10.0,-25.0
2911.0,2771.0,2854.0,3093.0,2999.0,0.742126,-0.116028,-0.660095,0.00116,-2.0,0.0,-1.0,7750.0,-1345.0,802.0,-273.0,78.0,-30.0,6.0,28.0,-283.0,0.979479,-0.173746,0.101565,15486.0,-2558.0,1622.0,-27.0,18.0,-22.0
2915.0,2774.0,2855.0,3091.0,2997.0,0.742249,-0.116211,-0.659973,0.000732,-2.0,0.0,-1.0,7735.0,-1347.0,810.0,-289.0,74.0,-24.0,-2.0,23.0,-298.0,0.979558,-0.173482,0.101864,15380.0,-2716.0,1626.0,-45.0,14.0,-5.0
2911.0,2774.0,2857.0,3089.0,2997.0,0.742249,-0.116394,-0.659973,0.000549,-3.0,0.0,0.0,7726.0,-1346.0,816.0,-298.0,75.0,-18.0,-9.0,23.0,-306.0,0.9796,-0.173512,0.101821,15434.0,-2682.0,1682.0,-48.0,3.0,0.0
2911.0,2773.0,2854.0,3095.0,2995.0,0.742126,-0.116699,-0.659973,0.000244,-2.0,-1.0,-1.0,7730.0,-1346.0,803.0,-294.0,75.0,-29.0,2.0,22.0,-303.0,0.97951,-0.173533,0.101568,15510.0,-2660.0,1506.0,-35.0,-11.0,-4.0
2911.0,2771.0,2855.0,3071.0,2999.0,0.742065,-0.11676,-0.660034,0.000122,-2.0,-1.0,-1.0,7754.0,-1336.0,811.0,-270.0,84.0,-19.0,-3.0,36.0,-280.0,0.979549,-0.173449,0.101383,15672.0,-2598.0,1674.0,-26.0,-9.0,-6.0
2910.0,2775.0,2847.0,3095.0,2995.0,0.742065,-0.116821,-0.660034,-0.000122,-1.0,0.0,-1.0,7778.0,-1321.0,813.0,-246.0,97.0,-17.0,0.0,53.0,-259.0,0.979606,-0.173217,0.101369,15588.0,-2586.0,1604.0,-15.0,8.0,-10.0
2911.0,2775.0,2857.0,3091.0,2995.0,0.742126,-0.11676,-0.660034,-0.000244,-1.0,0.0,-1.0,7775.0,-1316.0,815.0,-250.0,101.0,-16.0,0.0,57.0,-264.0,0.979715,-0.172979,0.101474,15522.0,-2588.0,1628.0,-10.0,16.0,-11.0
2911.0,2771.0,2855.0,3088.0,2995.0,0.742249,-0.11676,-0.659851,-0.000427,-1.0,0.0,-1.0,7765.0,-1304.0,825.0,-260.0,111.0,-9.0,-7.0,66.0,-274.0,0.979647,-0.172766,0.101897,15490.0,-2486.0,1672.0,-9.0,20.0,-2.0
2909.0,2773.0,2862.0,3095.0,3003.0,0.74231,-0.116821,-0.65979,-0.000549,-2.0,0.0,0.0,7754.0,-1290.0,823.0,-271.0,124.0,-13.0,-3.0,76.0,-288.0,0.979665,-0.17271,0.102054,15456.0,-2502.0,1656.0,-28.0,16.0,8.0
2911.0,2775.0,2851.0,3089.0,2999.0,0.74231,-0.117249,-0.659729,-0.000854,-3.0,0.0,0.0,7750.0,-1290.0,813.0,-275.0,126.0,-22.0,5.0,76.0,-293.0,0.979647,-0.172942,0.102035,15502.0,-2666.0,1564.0,-56.0,4.0,18.0
2917.0,2775.0,2855.0,3093.0,2995.0,0.74231,-0.117493,-0.659668,-0.000977,-3.0,0.0,0.0,7749.0,-1281.0,813.0,-275.0,137.0,-23.0,8.0,86.0,-295.0,0.979585,-0.173143,0.102058,15468.0,-2436.0,1588.0,-59.0,8.0,20.0
2907.0,2771.0,2847.0,3091.0,2995.0,0.742371,-0.118164,-0.659485,-0.001526,-5.0,1.0,1.0,7762.0,-1235.0,819.0,-262.0,185.0,-18.0,12.0,136.0,-290.0,0.979525,-0.17343,0.102233,15466.0,-2494.0,1606.0,-98.0,33.0,25.0
2911.0,2774.0,2849.0,3098.0,2994.0,0.742432,-0.118652,-0.659363,-0.001831,-5.0,1.0,1.0,7735.0,-1257.0,820.0,-289.0,166.0,-18.0,6.0,113.0,-313.0,0.979498,-0.173768,0.10237,15288.0,-2694.0,1632.0,-107.0,34.0,36.0
2915.0,2775.0,2853.0,3095.0,2999.0,0.742432,-0.119629,-0.65918,-0.002075,-3.0,0.0,1.0,7699.0,-1359.0,809.0,-323.0,73.0,-29.0,-2.0,15.0,-332.0,0.979288,-0.174897,0.10238,15376.0,-3010.0,1604.0,-63.0,3.0,37.0
2911.0,2769.0,2853.0,3090.0,2999.0,0.742371,-0.119934,-0.659119,-0.002014,-1.0,-1.0,1.0,7713.0,-1387.0,817.0,-307.0,50.0,-21.0,-11.0,-2.0,-311.0,0.979104,-0.175416,0.102297,15528.0,-2914.0,1724.0,-20.0,0.0,29.0
2909.0,2770.0,2855.0,3091.0,3003.0,0.742432,-0.120056,-0.659119,-0.001892,-1.0,-1.0,0.0,7730.0,-1354.0,836.0,-291.0,85.0,-2.0,-22.0,36.0,-300.0,0.979155,-0.175773,0.102357,15502.0,-2566.0,1754.0,-10.0,-4.0,16.0
2911.0,2770.0,2853.0,3091.0,2992.0,0.742432,-0.120178,-0.659058,-0.001953,-2.0,-1.0,0.0,7728.0,-1344.0,846.0,-292.0,96.0,7.0,-29.0,49.0,-302.0,0.97908,-0.175874,0.102409,15456.0,-2690.0,1704.0,-33.0,-7.0,21.0
2915.0,2771.0,2853.0,3091.0,2993.0,0.742249,-0.120728,-0.65918,-0.001953,-2.0,-2.0,1.0,7735.0,-1366.0,852.0,-285.0,81.0,17.0,-40.0,37.0,-291.0,0.979022,-0.176645,0.101844,15512.0,-2730.0,1716.0,-43.0,-23.0,40.0
2911.0,2768.0,2855.0,3095.0,3005.0,0.742188,-0.121033,-0.65918,-0.001953,-2.0,-1.0,1.0,7766.0,-1358.0,856.0,-253.0,92.0,23.0,-40.0,53.0,-261.0,0.978943,-0.177083,0.101679,15760.0,-2708.0,1766.0,-40.0,-20.0,38.0
2911.0,2779.0,2854.0,3071.0,2999.0,0.742126,-0.12146,-0.659119,-0.001953,-1.0,0.0,0.0,7746.0,-1429.0,834.0,-272.0,26.0,1.0,-32.0,-17.0,-270.0,0.978773,-0.177703,0.101566,15220.0,-3094.0,1520.0,-14.0,6.0,22.0
2914.0,2775.0,2859.0,3094.0,2999.0,0.742126,-0.121582,-0.65918,-0.001831,0.0,-1.0,0.0,7708.0,-1452.0,817.0,-310.0,6.0,-14.0,-25.0,-45.0,-305.0,0.978835,-0.178044,0.101455,15258.0,-3042.0,1558.0,11.0,-10.0,8.0
2917.0,2773.0,2849.0,3099.0,2993.0,0.742065,-0.121216,-0.659302,-0.001587,2.0,-1.0,-2.0,7734.0,-1470.0,836.0,-284.0,-13.0,6.0,-45.0,-56.0,-275.0,0.978875,-0.177808,0.101292,15678.0,-2876.0,1754.0,48.0,-16.0,-26.0
2917.0,2774.0,2838.0,3095.0,2999.0,0.742065,-0.120972,-0.659302,-0.001526,1.0,-1.0,-2.0,7759.0,-1451.0,836.0,-259.0,3.0,5.0,-38.0,-36.0,-253.0,0.978859,-0.177526,0.10135,15622.0,-2772.0,1684.0,40.0,-2.0,-29.0
2907.0,2775.0,2851.0,3089.0,2999.0,0.742126,-0.120544,-0.659302,-0.001587,1.0,0.0,-1.0,7731.0,-1417.0,811.0,-288.0,31.0,-20.0,-13.0,-18.0,-289.0,0.978953,-0.176826,0.101544,15358.0,-2760.0,1524.0,23.0,2.0,-21.0
2909.0,2771.0,2854.0,3091.0,2999.0,0.742126,-0.120422,-0.659363,-0.001526,1.0,-1.0,-1.0,7733.0,-1390.0,809.0,-287.0,57.0,-22.0,-6.0,6.0,-293.0,0.979029,-0.176725,0.101493,15510.0,-2578.0,1622.0,23.0,-6.0,-8.0
2907.0,2769.0,2850.0,3090.0,2998.0,0.742126,-0.1203,-0.659363,-0.001587,-1.0,0.0,0.0,7747.0,-1342.0,806.0,-273.0,103.0,-25.0,5.0,52.0,-287.0,0.979043,-0.176463,0.101523,15416.0,-2632.0,1576.0,0.0,5.0,3.0
2909.0,2774.0,2854.0,3093.0,2995.0,0.742188,-0.1203,-0.659363,-0.001587,0.0,0.0,0.0,7743.0,-1350.0,804.0,-277.0,95.0,-28.0,6.0,43.0,-290.0,0.979123,-0.176478,0.101613,15500.0,-2772.0,1606.0,1.0,1.0,6.0
2907.0,2771.0,2855.0,3095.0,2993.0,0.742188,-0.120239,-0.659363,-0.001526,0.0,0.0,0.0,7757.0,-1348.0,810.0,-263.0,97.0,-22.0,2.0,49.0,-276.0,0.979109,-0.176468,0.101628,15652.0,-2648.0,1694.0,14.0,3.0,2.0
2918.0,2774.0,2859.0,3095.0,2998.0,0.742371,-0.120056,-0.659119,-0.001587,0.0,1.0,-1.0,7760.0,-1337.0,822.0,-259.0,106.0,-15.0,-2.0,59.0,-273.0,0.979002,-0.17616,0.102266,15330.0,-2672.0,1618.0,1.0,32.0,-8.0
2915.0,2773.0,2851.0,3092.0,2999.0,0.742432,-0.120056,-0.659058,-0.001648,-1.0,0.0,-1.0,7726.0,-1358.0,811.0,-294.0,84.0,-28.0,2.0,30.0,-305.0,0.979006,-0.176095,0.102437,15224.0,-2870.0,1544.0,-5.0,20.0,-6.0
2911.0,2775.0,2854.0,3087.0,2998.0,0.742493,-0.119995,-0.658997,-0.001648,0.0,0.0,0.0,7735.0,-1379.0,823.0,-284.0,62.0,-17.0,-10.0,12.0,-290.0,0.978996,-0.176019,0.102623,15664.0,-2816.0,1760.0,7.0,1.0,0.0
2903.0,2771.0,2847.0,3094.0,2993.0,0.742554,-0.119934,-0.658936,-0.001648,0.0,0.0,-1.0,7748.0,-1389.0,830.0,-271.0,52.0,-12.0,-15.0,6.0,-275.0,0.978985,-0.175943,0.102808,15524.0,-2866.0,1716.0,11.0,16.0,-7.0
2915.0,2773.0,2859.0,3093.0,2995.0,0.742676,-0.119751,-0.658875,-0.001526,1.0,-1.0,-1.0,7691.0,-1432.0,818.0,-329.0,8.0,-26.0,-16.0,-48.0,-326.0,0.979026,-0.175862,0.103114,15164.0,-2934.0,1638.0,34.0,-7.0,-15.0
2910.0,2769.0,2859.0,3091.0,2993.0,0.742615,-0.119568,-0.658997,-0.001404,1.0,-2.0,-1.0,7689.0,-1419.0,833.0,-331.0,20.0,-10.0,-30.0,-33.0,-328.0,0.979097,-0.175736,0.102906,15430.0,-2724.0,1810.0,44.0,-31.0,-21.0
2911.0,2775.0,2850.0,3091.0,2999.0,0.742493,-0.118958,-0.65918,-0.001282,1.0,-1.0,-2.0,7772.0,-1378.0,875.0,-249.0,55.0,34.0,-57.0,20.0,-249.0,0.979177,-0.17496,0.102628,15822.0,-2604.0,1926.0,42.0,-15.0,-23.0
2911.0,2773.0,2854.0,3093.0,2991.0,0.742615,-0.118713,-0.659119,-0.001282,1.0,0.0,-1.0,7787.0,-1349.0,886.0,-234.0,81.0,42.0,-58.0,50.0,-238.0,0.979247,-0.174627,0.102948,15600.0,-2520.0,1812.0,33.0,5.0,-20.0
2915.0,2769.0,2853.0,3091.0,2990.0,0.742554,-0.118408,-0.65918,-0.001282,0.0,-1.0,-1.0,7737.0,-1325.0,854.0,-285.0,101.0,11.0,-32.0,56.0,-295.0,0.979256,-0.174159,0.102849,15412.0,-2594.0,1724.0,14.0,-20.0,-3.0
2915.0,2768.0,2847.0,3091.0,2997.0,0.742554,-0.118347,-0.659302,-0.001221,0.0,-1.0,-1.0,7761.0,-1321.0,865.0,-262.0,105.0,23.0,-40.0,65.0,-272.0,0.979423,-0.174149,0.102703,15696.0,-2628.0,1766.0,14.0,-21.0,-2.0
2917.0,2771.0,2861.0,3093.0,2995.0,0.742554,-0.118286,-0.659302,-0.001221,0.0,0.0,0.0,7756.0,-1344.0,846.0,-267.0,81.0,4.0,-26.0,38.0,-275.0,0.979423,-0.174058,0.102717,15334.0,-2750.0,1588.0,3.0,4.0,1.0
2913.0,2771.0,2847.0,3091.0,2993.0,0.742554,-0.118286,-0.659302,-0.001221,0.0,-1.0,-1.0,7724.0,-1358.0,830.0,-299.0,67.0,-11.0,-17.0,17.0,-305.0,0.979423,-0.174058,0.102717,15244.0,-2812.0,1574.0,1.0,-4.0,-4.0
2907.0,2770.0,2855.0,3091.0,2997.0,0.742432,-0.118225,-0.659424,-0.001221,0.0,-1.0,-1.0,7711.0,-1381.0,814.0,-312.0,43.0,-24.0,-10.0,-10.0,-315.0,0.979443,-0.173938,0.102389,15438.0,-2798.0,1586.0,8.0,-20.0,-9.0
2903.0,2771.0,2857.0,3089.0,2999.0,0.74231,-0.118164,-0.659546,-0.00116,0.0,-1.0,-1.0,7715.0,-1378.0,802.0,-308.0,46.0,-34.0,0.0,-8.0,-313.0,0.979449,-0.173899,0.102061,15478.0,-2710.0,1542.0,9.0,-19.0,-12.0
2911.0,2769.0,2852.0,3094.0,2995.0,0.74231,-0.11792,-0.659607,-0.001221,0.0,0.0,-1.0,7751.0,-1362.0,808.0,-273.0,58.0,-27.0,0.0,9.0,-280.0,0.979553,-0.173456,0.102039,15594.0,-2658.0,1668.0,13.0,3.0,-14.0
2909.0,2771.0,2854.0,3093.0,2992.0,0.742371,-0.117859,-0.659607,-0.001282,0.0,0.0,-1.0,7746.0,-1344.0,818.0,-279.0,75.0,-18.0,-6.0,26.0,-288.0,0.979648,-0.173299,0.102144,15448.0,-2562.0,1694.0,11.0,11.0,-13.0
2909.0,2769.0,2847.0,3091.0,2995.0,0.742432,-0.117615,-0.659546,-0.001343,0.0,0.0,-1.0,7728.0,-1325.0,820.0,-297.0,91.0,-18.0,-6.0,39.0,-308.0,0.979651,-0.172871,0.102373,15464.0,-2596.0,1664.0,10.0,2.0,-9.0
2907.0,2771.0,2853.0,3089.0,2999.0,0.742432,-0.117554,-0.659546,-0.001343,0.0,0.0,-1.0,7736.0,-1318.0,825.0,-289.0,97.0,-13.0,-9.0,47.0,-301.0,0.979651,-0.17278,0.102387,15532.0,-2594.0,1628.0,5.0,1.0,-7.0
2915.0,2771.0,2855.0,3093.0,2993.0,0.742493,-0.117493,-0.659485,-0.001526,-1.0,0.0,-1.0,7769.0,-1299.0,833.0,-256.0,113.0,-7.0,-8.0,69.0,-271.0,0.979684,-0.172462,0.102573,15646.0,-2562.0,1690.0,-15.0,12.0,-3.0
2911.0,2771.0,2854.0,3091.0,2993.0,0.742554,-0.117554,-0.659424,-0.001587,-1.0,0.0,-1.0,7759.0,-1312.0,826.0,-266.0,101.0,-15.0,-4.0,54.0,-279.0,0.979688,-0.172487,0.10273,15426.0,-2766.0,1604.0,-19.0,15.0,-2.0
2911.0,2771.0,2847.0,3093.0,2999.0,0.742554,-0.117615,-0.659363,-0.001648,-1.0,-1.0,-1.0,7731.0,-1330.0,820.0,-293.0,83.0,-22.0,-3.0,32.0,-303.0,0.979612,-0.172497,0.102796,15410.0,-2636.0,1618.0,0.0,-5.0,-2.0
2911.0,2774.0,2855.0,3091.0,2997.0,0.742493,-0.117554,-0.659424,-0.001648,0.0,-1.0,-1.0,7734.0,-1335.0,817.0,-291.0,77.0,-23.0,-3.0,26.0,-300.0,0.979622,-0.172392,0.102639,15500.0,-2692.0,1608.0,2.0,-16.0,-6.0
2911.0,2771.0,2855.0,3091.0,2993.0,0.742371,-0.117432,-0.659607,-0.001648,0.0,-2.0,-1.0,7755.0,-1324.0,826.0,-270.0,86.0,-11.0,-10.0,40.0,-280.0,0.979733,-0.172182,0.102245,15634.0,-2546.0,1732.0,13.0,-24.0,-3.0
2911.0,2770.0,2851.0,3090.0,2999.0,0.74231,-0.11731,-0.659668,-0.001648,0.0,-1.0,-1.0,7768.0,-1317.0,837.0,-258.0,91.0,0.0,-19.0,49.0,-268.0,0.979742,-0.171986,0.102103,15592.0,-2608.0,1688.0,13.0,-16.0,-2.0
2911.0,2771.0,2855.0,3093.0,2992.0,0.742249,-0.117188,-0.65979,-0.001526,0.0,-1.0,0.0,7756.0,-1306.0,830.0,-270.0,102.0,-4.0,-15.0,57.0,-282.0,0.979814,-0.171951,0.101879,15408.0,-2614.0,1608.0,14.0,-20.0,5.0
2911.0,2774.0,2855.0,3095.0,2989.0,0.742188,-0.117126,-0.659912,-0.001465,0.0,-2.0,0.0,7749.0,-1294.0,836.0,-278.0,114.0,3.0,-20.0,69.0,-291.0,0.9799,-0.171926,0.101642,15506.0,-2476.0,1764.0,13.0,-31.0,8.0
2911.0,2773.0,2855.0,3091.0,2995.0,0.742004,-0.117065,-0.660034,-0.001404,-1.0,-1.0,0.0,7775.0,-1280.0,849.0,-251.0,127.0,19.0,-30.0,88.0,-265.0,0.979825,-0.171873,0.101223,15630.0,-2614.0,1706.0,-5.0,-18.0,9.0
2909.0,2771.0,2853.0,3090.0,2991.0,0.742004,-0.117126,-0.660095,-0.001404,-1.0,-1.0,0.0,7770.0,-1304.0,835.0,-257.0,104.0,6.0,-22.0,62.0,-269.0,0.979916,-0.171963,0.101128,15456.0,-2768.0,1582.0,-7.0,-11.0,10.0
2911.0,2771.0,2853.0,3091.0,2993.0,0.741943,-0.117188,-0.660156,-0.001343,0.0,-1.0,0.0,7748.0,-1339.0,805.0,-279.0,71.0,-21.0,-4.0,22.0,-287.0,0.979912,-0.17212,0.100943,15436.0,-2728.0,1490.0,5.0,-10.0,6.0
2911.0,2774.0,2855.0,3093.0,2999.0,0.741882,-0.117188,-0.660217,-0.001282,-1.0,-1.0,0.0,7741.0,-1344.0,800.0,-286.0,66.0,-25.0,-1.0,16.0,-294.0,0.979907,-0.172186,0.100771,15482.0,-2698.0,1594.0,-1.0,-11.0,2.0
2910.0,2797.0,2855.0,3093.0,2999.0,0.741821,-0.117249,-0.660278,-0.001343,-1.0,-1.0,0.0,7752.0,-1362.0,798.0,-275.0,48.0,-26.0,-2.0,0.0,-280.0,0.979932,-0.172182,0.100586,15542.0,-2778.0,1582.0,-8.0,-5.0,1.0
2911.0,2771.0,2855.0,3088.0,2997.0,0.74176,-0.11731,-0.660278,-0.001343,-1.0,0.0,-1.0,7754.0,-1363.0,797.0,-272.0,48.0,-26.0,-1.0,0.0,-277.0,0.979851,-0.172258,0.100481,15530.0,-2724.0,1592.0,-11.0,1.0,-1.0
2911.0,2770.0,2849.0,3091.0,2995.0,0.741821,-0.11731,-0.660278,-0.001465,-1.0,0.0,-1.0,7748.0,-1346.0,800.0,-279.0,63.0,-23.0,-3.0,14.0,-286.0,0.979961,-0.172111,0.100572,15476.0,-2596.0,1606.0,-6.0,5.0,-4.0
2913.0,2771.0,2850.0,3093.0,2992.0,0.741821,-0.117371,-0.660278,-0.001526,-1.0,0.0,-1.0,7741.0,-1340.0,804.0,-286.0,70.0,-19.0,-7.0,21.0,-294.0,0.979975,-0.172121,0.100558,15454.0,-2662.0,1658.0,-11.0,4.0,-1.0
2911.0,2771.0,2855.0,3089.0,2995.0,0.741821,-0.117432,-0.660217,-0.001526,-1.0,-1.0,0.0,7729.0,-1352.0,816.0,-298.0,58.0,-8.0,-21.0,9.0,-302.0,0.979885,-0.172212,0.100624,15404.0,-2706.0,1634.0,-5.0,-1.0,0.0
2911.0,2770.0,2851.0,3088.0,2997.0,0.741821,-0.117432,-0.660217,-0.001587,-1.0,-1.0,-1.0,7735.0,-1341.0,822.0,-292.0,69.0,-2.0,-24.0,22.0,-298.0,0.979899,-0.172131,0.100624,15510.0,-2606.0,1624.0,-3.0,-6.0,-5.0
2911.0,2769.0,2851.0,3091.0,2999.0,0.741821,-0.117371,-0.660217,-0.001709,-1.0,0.0,-1.0,7756.0,-1342.0,829.0,-271.0,66.0,4.0,-28.0,23.0,-276.0,0.979928,-0.171879,0.100639,15554.0,-2638.0,1700.0,-5.0,1.0,-8.0
2919.0,2773.0,2853.0,3091.0,2997.0,0.741821,-0.117371,-0.660217,-0.00177,-1.0,-1.0,-1.0,7746.0,-1326.0,826.0,-281.0,81.0,1.0,-24.0,36.0,-289.0,0.979942,-0.171799,0.100639,15436.0,-2570.0,1634.0,-12.0,-3.0,-6.0
2911.0,2773.0,2855.0,3071.0,2994.0,0.74176,-0.117432,-0.660278,-0.001953,-1.0,-1.0,0.0,7750.0,-1324.0,835.0,-278.0,82.0,12.0,-34.0,39.0,-285.0,0.979995,-0.171633,0.100454,15532.0,-2678.0,1754.0,-16.0,-17.0,1.0
2910.0,2775.0,2851.0,3071.0,2997.0,0.741699,-0.117493,-0.660339,-0.001953,-1.0,-1.0,0.0,7758.0,-1325.0,836.0,-270.0,81.0,14.0,-35.0,40.0,-277.0,0.980005,-0.171709,0.100269,15578.0,-2652.0,1714.0,-12.0,-17.0,4.0
2911.0,2774.0,2855.0,3091.0,2997.0,0.741638,-0.117493,-0.660461,-0.001953,0.0,-1.0,0.0,7765.0,-1328.0,828.0,-264.0,78.0,8.0,-29.0,37.0,-271.0,0.980106,-0.171694,0.100017,15586.0,-2666.0,1638.0,4.0,-16.0,1.0
2911.0,2773.0,2855.0,3091.0,2999.0,0.741577,-0.117432,-0.660522,-0.001892,0.0,-1.0,0.0,7766.0,-1327.0,832.0,-262.0,79.0,13.0,-33.0,39.0,-269.0,0.980101,-0.17167,0.09986,15544.0,-2632.0,1682.0,9.0,-16.0,0.0
2911.0,2775.0,2853.0,3094.0,2992.0,0.741455,-0.117371,-0.660645,-0.001892,0.0,-1.0,0.0,7767.0,-1308.0,808.0,-262.0,97.0,-7.0,-11.0,53.0,-274.0,0.980121,-0.17155,0.099532,15588.0,-2582.0,1566.0,2.0,-18.0,2.0
2915.0,2771.0,2855.0,3089.0,2995.0,0.741394,-0.117371,-0.660706,-0.001892,-1.0,-1.0,0.0,7779.0,-1313.0,804.0,-250.0,92.0,-9.0,-8.0,49.0,-261.0,0.98013,-0.171536,0.099361,15598.0,-2684.0,1562.0,-1.0,-15.0,2.0
2911.0,2773.0,2855.0,3090.0,2995.0,0.741333,-0.11731,-0.660767,-0.001831,0.0,-1.0,0.0,7767.0,-1322.0,785.0,-262.0,83.0,-27.0,6.0,36.0,-273.0,0.980126,-0.171511,0.099204,15448.0,-2590.0,1532.0,4.0,-5.0,1.0
2911.0,2774.0,2858.0,3091.0,2999.0,0.741333,-0.11731,-0.660828,-0.001892,-1.0,-1.0,-1.0,7751.0,-1323.0,778.0,-279.0,81.0,-34.0,10.0,30.0,-290.0,0.980231,-0.17143,0.099124,15378.0,-2686.0,1528.0,-1.0,-4.0,-1.0
2911.0,2773.0,2854.0,3091.0,2997.0,0.741272,-0.11731,-0.660889,-0.001892,-1.0,-1.0,0.0,7711.0,-1329.0,770.0,-319.0,75.0,-40.0,10.0,17.0,-329.0,0.98024,-0.171416,0.098952,15354.0,-2618.0,1586.0,0.0,-16.0,1.0
2909.0,2769.0,2853.0,3089.0,2997.0,0.741211,-0.11731,-0.66095,-0.001892,-1.0,-1.0,0.0,7717.0,-1318.0,781.0,-313.0,86.0,-28.0,1.0,31.0,-324.0,0.98025,-0.171401,0.098781,15534.0,-2586.0,1664.0,-3.0,-18.0,4.0
2911.0,2768.0,2850.0,3095.0,2999.0,0.74115,-0.117432,-0.661011,-0.001892,-1.0,-1.0,0.0,7732.0,-1337.0,786.0,-298.0,68.0,-21.0,-6.0,16.0,-305.0,0.98026,-0.171568,0.098581,15444.0,-2762.0,1552.0,-11.0,-2.0,9.0
2911.0,2773.0,2861.0,3091.0,2998.0,0.74115,-0.117493,-0.661011,-0.001831,-1.0,-1.0,0.0,7722.0,-1343.0,783.0,-308.0,63.0,-24.0,-5.0,10.0,-315.0,0.980246,-0.171739,0.098567,15398.0,-2724.0,1542.0,-2.0,-3.0,6.0
2910.0,2768.0,2863.0,3089.0,2995.0,0.74115,-0.117432,-0.66095,-0.001831,0.0,0.0,-1.0,7750.0,-1344.0,790.0,-279.0,62.0,-18.0,-7.0,14.0,-285.0,0.980156,-0.171648,0.098662,15580.0,-2678.0,1536.0,5.0,9.0,-3.0
2911.0,2768.0,2851.0,3091.0,2993.0,0.741211,-0.117432,-0.66095,-0.001892,-1.0,0.0,0.0,7742.0,-1333.0,791.0,-288.0,72.0,-17.0,-8.0,23.0,-296.0,0.980251,-0.171582,0.098753,15428.0,-2594.0,1596.0,-3.0,14.0,1.0
2911.0,2769.0,2859.0,3089.0,3003.0,0.741272,-0.117615,-0.660828,-0.001953,-2.0,0.0,0.0,7754.0,-1323.0,806.0,-275.0,84.0,-4.0,-17.0,39.0,-284.0,0.980165,-0.171788,0.098962,15680.0,-2652.0,1720.0,-23.0,6.0,17.0
2915.0,2774.0,2861.0,3089.0,2998.0,0.741272,-0.117737,-0.660767,-0.001953,-2.0,0.0,0.0,7768.0,-1334.0,818.0,-260.0,74.0,6.0,-27.0,33.0,-266.0,0.980075,-0.171969,0.099013,15622.0,-2754.0,1730.0,-24.0,13.0,20.0
2896.0,2775.0,2851.0,3094.0,3003.0,0.741394,-0.117981,-0.660645,-0.002014,-1.0,0.0,0.0,7770.0,-1346.0,827.0,-258.0,65.0,13.0,-35.0,26.0,-262.0,0.980071,-0.172279,0.099298,15546.0,-2734.0,1684.0,-20.0,5.0,6.0
2911.0,2771.0,2850.0,3095.0,3003.0,0.741394,-0.118042,-0.660645,-0.002075,-1.0,-1.0,0.0,7771.0,-1351.0,817.0,-257.0,60.0,3.0,-26.0,19.0,-261.0,0.980086,-0.172289,0.099284,15564.0,-2702.0,1604.0,-18.0,-2.0,4.0
2915.0,2769.0,2855.0,3091.0,2999.0,0.741333,-0.118164,-0.660645,-0.002197,-1.0,-1.0,-1.0,7771.0,-1365.0,814.0,-257.0,46.0,1.0,-26.0,5.0,-259.0,0.980034,-0.172295,0.099165,15546.0,-2778.0,1622.0,-11.0,-7.0,-2.0
2917.0,2774.0,2850.0,3071.0,2993.0,0.741333,-0.118164,-0.660645,-0.002197,-1.0,-1.0,-1.0,7762.0,-1364.0,814.0,-266.0,47.0,1.0,-27.0,5.0,-268.0,0.980034,-0.172295,0.099165,15474.0,-2708.0,1630.0,0.0,-7.0,-3.0
2913.0,2773.0,2855.0,3091.0,2995.0,0.741272,-0.118042,-0.660706,-0.002136,0.0,-1.0,-1.0,7744.0,-1360.0,810.0,-284.0,50.0,-1.0,-27.0,5.0,-287.0,0.980029,-0.17218,0.099023,15398.0,-2676.0,1586.0,15.0,-12.0,-5.0
2915.0,2768.0,2850.0,3071.0,2998.0,0.741211,-0.117981,-0.660828,-0.002136,0.0,-1.0,0.0,7729.0,-1341.0,805.0,-300.0,68.0,-4.0,-23.0,19.0,-306.0,0.980129,-0.172074,0.098786,15402.0,-2506.0,1612.0,10.0,-20.0,0.0
2911.0,2769.0,2847.0,3087.0,2997.0,0.741028,-0.118042,-0.661011,-0.002197,-2.0,-2.0,0.0,7732.0,-1319.0,803.0,-297.0,90.0,-1.0,-22.0,41.0,-306.0,0.980173,-0.17204,0.098258,15502.0,-2656.0,1572.0,-23.0,-28.0,10.0
2915.0,2769.0,2847.0,3088.0,2993.0,0.740967,-0.118225,-0.661072,-0.002197,-2.0,-2.0,0.0,7745.0,-1333.0,793.0,-284.0,78.0,-10.0,-13.0,30.0,-292.0,0.980184,-0.172297,0.098044,15572.0,-2810.0,1508.0,-26.0,-26.0,10.0
2914.0,2777.0,2853.0,3091.0,2997.0,0.740784,-0.118347,-0.661255,-0.002258,-1.0,-1.0,-1.0,7771.0,-1373.0,776.0,-259.0,38.0,-22.0,-4.0,-6.0,-262.0,0.980228,-0.172353,0.097501,15642.0,-2824.0,1554.0,-1.0,-15.0,-8.0
2911.0,2769.0,2855.0,3071.0,2995.0,0.740723,-0.118286,-0.661316,-0.002258,0.0,-1.0,-1.0,7778.0,-1368.0,771.0,-252.0,43.0,-26.0,0.0,-1.0,-256.0,0.980238,-0.172248,0.097345,15564.0,-2702.0,1510.0,6.0,-8.0,-16.0
2919.0,2769.0,2857.0,3087.0,2995.0,0.740723,-0.118103,-0.661377,-0.00238,0.0,-1.0,-1.0,7761.0,-1347.0,765.0,-270.0,60.0,-32.0,7.0,11.0,-278.0,0.980356,-0.171815,0.097308,15470.0,-2578.0,1530.0,4.0,-2.0,-13.0
2911.0,2770.0,2859.0,3095.0,2993.0,0.740723,-0.118042,-0.661377,-0.002441,-1.0,-1.0,-1.0,7760.0,-1328.0,770.0,-271.0,78.0,-27.0,4.0,29.0,-281.0,0.98037,-0.171643,0.097323,15520.0,-2544.0,1584.0,-2.0,-2.0,-7.0
2911.0,2774.0,2855.0,3091.0,2995.0,0.740723,-0.118103,-0.661377,-0.002625,-1.0,0.0,0.0,7736.0,-1316.0,774.0,-295.0,88.0,-23.0,0.0,36.0,-306.0,0.980414,-0.171492,0.097309,15392.0,-2618.0,1470.0,-19.0,2.0,3.0
2911.0,2769.0,2847.0,3091.0,2995.0,0.740723,-0.118164,-0.661377,-0.002625,-1.0,0.0,0.0,7729.0,-1325.0,765.0,-302.0,80.0,-32.0,6.0,26.0,-312.0,0.980414,-0.171582,0.097295,15418.0,-2720.0,1472.0,-14.0,3.0,4.0
2911.0,2767.0,2855.0,3089.0,2991.0,0.740723,-0.118225,-0.661316,-0.002625,0.0,0.0,0.0,7717.0,-1336.0,763.0,-313.0,70.0,-34.0,5.0,14.0,-322.0,0.980324,-0.171673,0.097361,15416.0,-2652.0,1570.0,10.0,1.0,2.0
2913.0,2773.0,2854.0,3091.0,2997.0,0.740723,-0.118164,-0.661316,-0.002563,0.0,0.0,0.0,7718.0,-1323.0,765.0,-312.0,83.0,-32.0,5.0,27.0,-323.0,0.980309,-0.171663,0.097375,15450.0,-2568.0,1526.0,9.0,2.0,2.0
2911.0,2774.0,2853.0,3091.0,2993.0,0.740723,-0.118164,-0.661316,-0.002625,-1.0,0.0,0.0,7730.0,-1315.0,775.0,-300.0,90.0,-22.0,-1.0,37.0,-311.0,0.980324,-0.171582,0.097375,15568.0,-2642.0,1562.0,-8.0,2.0,3.0
2914.0,2771.0,2855.0,3095.0,2995.0,0.740723,-0.118164,-0.661316,-0.002686,-1.0,0.0,0.0,7743.0,-1323.0,772.0,-287.0,81.0,-25.0,1.0,30.0,-297.0,0.980338,-0.171502,0.097376,15560.0,-2696.0,1552.0,-12.0,2.0,2.0
2911.0,2775.0,2847.0,3093.0,2998.0,0.740784,-0.118225,-0.661255,-0.002808,-1.0,0.0,-1.0,7781.0,-1332.0,779.0,-250.0,72.0,-19.0,-1.0,28.0,-259.0,0.980358,-0.171445,0.097533,15696.0,-2704.0,1590.0,-11.0,12.0,-5.0
2911.0,2773.0,2851.0,3091.0,2978.0,0.740845,-0.118225,-0.661194,-0.002869,-1.0,0.0,-1.0,7789.0,-1340.0,785.0,-242.0,63.0,-15.0,-5.0,21.0,-249.0,0.980362,-0.171379,0.097705,15620.0,-2732.0,1632.0,-8.0,18.0,-7.0
0.120523,0.093455,15680.0,-1720.0,1552.0,17.0,16.0,-3.0,,,,,,,,,,,,,,,,,,,,,,
