flex_1,flex_2,flex_3,flex_4,flex_5,Qw,Qx,Qy,Qz,GYRx,GYRy,GYRz,ACCx,ACCy,ACCz,ACCx_real,ACCy_real,ACCz_real,ACCx_world,ACCy_world,ACCz_world,GRAx,GRAy,GRAz,ACCx_raw,ACCy_raw,ACCz_raw,GYRx_raw,GYRy_raw,GYRz_raw
2865.0,2814.0,2894.0,3139.0,3037.0,1.0,0.0,0.0,0.0,0.0,0.0,0.0,0.0,0.0,0.0,0.0,0.0,0.0,0.0,0.0,0.0,0.0,0.0,0.0,0.0,0.0,0.0,0.0,0.0,0.0
2867.0,2813.0,2897.0,3147.0,3030.0,0.87793,-0.146973,-0.455688,-0.003235,-1.0,0.0,0.0,7379.0,-2259.0,1858.0,816.0,-169.0,-2578.0,2513.0,-729.0,-699.0,0.801076,-0.255115,0.541518,14694.0,-4478.0,3614.0,-2.0,6.0,4.0
2871.0,2807.0,2896.0,3143.0,3037.0,0.876709,-0.147644,-0.457825,-0.003235,-1.0,-1.0,0.0,7347.0,-2281.0,1835.0,762.0,-184.0,-2565.0,2473.0,-748.0,-718.0,0.803713,-0.25592,0.537227,14616.0,-4630.0,3558.0,-5.0,-18.0,3.0
2871.0,2811.0,2894.0,3143.0,3031.0,0.876038,-0.14801,-0.458984,-0.003174,0.0,-2.0,0.0,7344.0,-2302.0,1828.0,748.0,-201.0,-2553.0,2455.0,-764.0,-711.0,0.805115,-0.256412,0.534878,14664.0,-4702.0,3578.0,5.0,-27.0,6.0
2871.0,2811.0,2899.0,3143.0,3027.0,0.874695,-0.148499,-0.461304,-0.002991,0.0,-2.0,0.0,7347.0,-2293.0,1813.0,728.0,-187.0,-2530.0,2430.0,-747.0,-705.0,0.807888,-0.257023,0.530247,14718.0,-4496.0,3594.0,16.0,-34.0,4.0
2873.0,2807.0,2894.0,3143.0,3035.0,0.874023,-0.148743,-0.462463,-0.002991,0.0,-2.0,0.0,7353.0,-2277.0,1812.0,723.0,-169.0,-2512.0,2418.0,-725.0,-697.0,0.809297,-0.257243,0.527929,14732.0,-4472.0,3592.0,8.0,-33.0,3.0
2870.0,2813.0,2903.0,3141.0,3025.0,0.872742,-0.149414,-0.464783,-0.00293,-1.0,-1.0,0.0,7371.0,-2286.0,1777.0,717.0,-171.0,-2510.0,2416.0,-728.0,-687.0,0.812146,-0.258076,0.523339,14770.0,-4634.0,3434.0,-8.0,-17.0,5.0
2871.0,2807.0,2897.0,3143.0,3029.0,0.87207,-0.14978,-0.465881,-0.00293,-1.0,-1.0,0.0,7367.0,-2293.0,1768.0,703.0,-175.0,-2500.0,2401.0,-732.0,-685.0,0.81344,-0.258508,0.521036,14696.0,-4626.0,3490.0,-4.0,-12.0,3.0
2873.0,2812.0,2896.0,3139.0,3031.0,0.87085,-0.150452,-0.467957,-0.002991,-1.0,-1.0,-1.0,7368.0,-2313.0,1740.0,683.0,-189.0,-2493.0,2385.0,-748.0,-682.0,0.815939,-0.259242,0.516769,14786.0,-4736.0,3462.0,-6.0,-7.0,-4.0
2873.0,2814.0,2895.0,3143.0,3031.0,0.870239,-0.150818,-0.468933,-0.002991,-1.0,0.0,0.0,7370.0,-2319.0,1736.0,676.0,-191.0,-2480.0,2372.0,-748.0,-674.0,0.81707,-0.25969,0.514681,14746.0,-4660.0,3470.0,-8.0,2.0,0.0
2871.0,2814.0,2895.0,3141.0,3031.0,0.86908,-0.15155,-0.470886,-0.003113,-1.0,0.0,-1.0,7365.0,-2312.0,1737.0,652.0,-178.0,-2445.0,2335.0,-731.0,-667.0,0.819419,-0.260487,0.510608,14710.0,-4598.0,3498.0,-18.0,5.0,-6.0
2869.0,2806.0,2895.0,3143.0,3031.0,0.868469,-0.151917,-0.471802,-0.003174,-2.0,0.0,-1.0,7360.0,-2323.0,1745.0,638.0,-185.0,-2421.0,2308.0,-734.0,-659.0,0.820455,-0.260875,0.508573,14700.0,-4738.0,3572.0,-23.0,2.0,-7.0
2869.0,2811.0,2895.0,3139.0,3037.0,0.867371,-0.152649,-0.473694,-0.003296,-1.0,0.0,-1.0,7369.0,-2355.0,1764.0,629.0,-211.0,-2370.0,2260.0,-748.0,-623.0,0.822742,-0.261684,0.504655,14740.0,-4762.0,3530.0,-7.0,4.0,-7.0
2874.0,2811.0,2895.0,3141.0,3031.0,0.866821,-0.152954,-0.474609,-0.003357,0.0,0.0,-1.0,7363.0,-2346.0,1768.0,614.0,-199.0,-2350.0,2238.0,-734.0,-623.0,0.82383,-0.261981,0.502741,14704.0,-4600.0,3548.0,2.0,1.0,-5.0
2874.0,2815.0,2897.0,3147.0,3039.0,0.865601,-0.153503,-0.476562,-0.003357,-1.0,-1.0,-1.0,7346.0,-2310.0,1770.0,578.0,-159.0,-2314.0,2197.0,-692.0,-634.0,0.826056,-0.262546,0.4986,14686.0,-4570.0,3550.0,-9.0,-18.0,-1.0
2870.0,2805.0,2893.0,3147.0,3031.0,0.86499,-0.153809,-0.477539,-0.003418,-1.0,-2.0,-1.0,7352.0,-2293.0,1781.0,575.0,-139.0,-2286.0,2177.0,-667.0,-622.0,0.827185,-0.262821,0.496519,14716.0,-4452.0,3706.0,-12.0,-24.0,-2.0
2869.0,2807.0,2896.0,3135.0,3031.0,0.863831,-0.154419,-0.479553,-0.003479,-1.0,-1.0,-1.0,7378.0,-2291.0,1787.0,582.0,-132.0,-2246.0,2152.0,-649.0,-588.0,0.82958,-0.263447,0.492399,14870.0,-4644.0,3652.0,-11.0,-20.0,-2.0
2871.0,2813.0,2895.0,3149.0,3031.0,0.86322,-0.154724,-0.480469,-0.003479,0.0,-1.0,0.0,7381.0,-2299.0,1771.0,576.0,-138.0,-2246.0,2149.0,-656.0,-586.0,0.830577,-0.263779,0.490371,14774.0,-4610.0,3450.0,3.0,-10.0,1.0
2869.0,2814.0,2901.0,3141.0,3031.0,0.862122,-0.155151,-0.4823,-0.003479,0.0,-1.0,-1.0,7393.0,-2285.0,1772.0,571.0,-120.0,-2214.0,2125.0,-631.0,-570.0,0.832682,-0.264163,0.486581,14924.0,-4526.0,3582.0,9.0,-2.0,-4.0
2869.0,2811.0,2896.0,3143.0,3027.0,0.861633,-0.155334,-0.483154,-0.003479,0.0,0.0,-1.0,7392.0,-2279.0,1759.0,562.0,-113.0,-2212.0,2121.0,-626.0,-574.0,0.833685,-0.264321,0.484857,14762.0,-4484.0,3454.0,6.0,10.0,-3.0
2870.0,2807.0,2896.0,3142.0,3029.0,0.860596,-0.155823,-0.484802,-0.00354,-1.0,0.0,-1.0,7355.0,-2254.0,1745.0,510.0,-85.0,-2198.0,2088.0,-603.0,-609.0,0.835541,-0.264768,0.481324,14606.0,-4450.0,3516.0,-7.0,8.0,-1.0
2875.0,2811.0,2897.0,3143.0,3037.0,0.860046,-0.156128,-0.485657,-0.003601,-1.0,-1.0,0.0,7349.0,-2260.0,1738.0,496.0,-88.0,-2189.0,2074.0,-607.0,-611.0,0.836499,-0.265057,0.479454,14708.0,-4564.0,3454.0,-12.0,-1.0,1.0
2867.0,2811.0,2895.0,3139.0,3031.0,0.859009,-0.156738,-0.487366,-0.003662,-1.0,-1.0,0.0,7354.0,-2273.0,1743.0,485.0,-96.0,-2154.0,2040.0,-607.0,-592.0,0.838451,-0.26571,0.475817,14666.0,-4592.0,3506.0,-9.0,-6.0,1.0
2867.0,2810.0,2901.0,3143.0,3037.0,0.858459,-0.157043,-0.488281,-0.003662,-1.0,-1.0,0.0,7351.0,-2283.0,1742.0,473.0,-103.0,-2140.0,2022.0,-613.0,-589.0,0.83949,-0.266055,0.473885,14698.0,-4628.0,3496.0,-4.0,-14.0,6.0
2867.0,2811.0,2898.0,3143.0,3039.0,0.857361,-0.157471,-0.490051,-0.003601,0.0,-1.0,-1.0,7390.0,-2291.0,1758.0,496.0,-107.0,-2093.0,1996.0,-600.0,-538.0,0.841436,-0.266489,0.470133,14936.0,-4570.0,3570.0,13.0,-6.0,-2.0
2875.0,2809.0,2895.0,3147.0,3031.0,0.856873,-0.157654,-0.490845,-0.003601,0.0,0.0,0.0,7405.0,-2286.0,1764.0,504.0,-101.0,-2073.0,1986.0,-588.0,-519.0,0.842318,-0.266643,0.46846,14878.0,-4524.0,3568.0,19.0,11.0,0.0
2874.0,2804.0,2931.0,3143.0,3031.0,0.855957,-0.157959,-0.492249,-0.00354,0.0,0.0,0.0,7387.0,-2258.0,1763.0,474.0,-71.0,-2049.0,1957.0,-557.0,-534.0,0.843806,-0.266927,0.465415,14680.0,-4482.0,3482.0,6.0,16.0,7.0
2875.0,2813.0,2899.0,3142.0,3035.0,0.85553,-0.158203,-0.493042,-0.00354,0.0,0.0,0.0,7370.0,-2261.0,1769.0,449.0,-72.0,-2030.0,1929.0,-557.0,-543.0,0.844744,-0.267204,0.463825,14658.0,-4544.0,3598.0,1.0,7.0,8.0
2873.0,2811.0,2896.0,3138.0,3027.0,0.854492,-0.158752,-0.494629,-0.00354,-1.0,-1.0,0.0,7353.0,-2282.0,1766.0,418.0,-88.0,-2004.0,1890.0,-571.0,-545.0,0.846437,-0.267803,0.460309,14710.0,-4676.0,3538.0,-9.0,-14.0,0.0
2865.0,2811.0,2907.0,3151.0,3027.0,0.853943,-0.158997,-0.495483,-0.00354,-1.0,-1.0,-1.0,7350.0,-2298.0,1763.0,408.0,-102.0,-1992.0,1874.0,-582.0,-540.0,0.847355,-0.26804,0.458447,14686.0,-4698.0,3504.0,-14.0,-20.0,-4.0
2874.0,2813.0,2895.0,3143.0,3025.0,0.852844,-0.159607,-0.497192,-0.003662,-1.0,-1.0,-1.0,7354.0,-2337.0,1771.0,397.0,-136.0,-1953.0,1832.0,-607.0,-514.0,0.849224,-0.268598,0.454682,14758.0,-4782.0,3578.0,-9.0,-21.0,-18.0
2871.0,2813.0,2895.0,3143.0,3031.0,0.852295,-0.15979,-0.498047,-0.003723,0.0,-1.0,-2.0,7382.0,-2350.0,1783.0,417.0,-149.0,-1926.0,1818.0,-609.0,-477.0,0.850155,-0.268668,0.452837,14954.0,-4768.0,3642.0,1.0,-13.0,-27.0
2871.0,2813.0,2896.0,3143.0,3031.0,0.851379,-0.160095,-0.499512,-0.004028,0.0,0.0,-2.0,7399.0,-2342.0,1782.0,420.0,-141.0,-1902.0,1802.0,-595.0,-459.0,0.851838,-0.268579,0.449721,14726.0,-4598.0,3564.0,2.0,18.0,-31.0
2871.0,2807.0,2896.0,3147.0,3035.0,0.850952,-0.160217,-0.500183,-0.00415,-1.0,0.0,-2.0,7390.0,-2332.0,1781.0,405.0,-132.0,-1891.0,1787.0,-586.0,-466.0,0.852594,-0.268523,0.448284,14720.0,-4624.0,3524.0,-6.0,18.0,-30.0
2878.0,2818.0,2897.0,3145.0,3031.0,0.850098,-0.160583,-0.501526,-0.004395,0.0,0.0,-2.0,7353.0,-2332.0,1742.0,356.0,-131.0,-1906.0,1777.0,-598.0,-509.0,0.854103,-0.268615,0.44537,14576.0,-4642.0,3410.0,5.0,11.0,-23.0
2875.0,2813.0,2898.0,3143.0,3031.0,0.849609,-0.160767,-0.502258,-0.004517,0.0,-1.0,-2.0,7335.0,-2321.0,1726.0,331.0,-120.0,-1909.0,1770.0,-593.0,-531.0,0.854899,-0.268641,0.443747,14582.0,-4530.0,3360.0,9.0,-1.0,-24.0
2869.0,2807.0,2898.0,3141.0,3029.0,0.848633,-0.16095,-0.503906,-0.0047,0.0,-1.0,-2.0,7342.0,-2284.0,1747.0,323.0,-84.0,-1860.0,1732.0,-546.0,-519.0,0.856776,-0.268438,0.440373,14714.0,-4378.0,3618.0,2.0,-22.0,-25.0
2871.0,2807.0,2895.0,3141.0,3026.0,0.848083,-0.161133,-0.504761,-0.004822,-1.0,-2.0,-1.0,7355.0,-2269.0,1765.0,328.0,-69.0,-1827.0,1710.0,-522.0,-501.0,0.857712,-0.26844,0.438522,14844.0,-4486.0,3680.0,-20.0,-29.0,-19.0
2864.0,2807.0,2870.0,3143.0,3029.0,0.847046,-0.161621,-0.506287,-0.005127,-1.0,-1.0,-1.0,7405.0,-2287.0,1789.0,365.0,-86.0,-1775.0,1682.0,-520.0,-435.0,0.859353,-0.26861,0.435066,14922.0,-4604.0,3572.0,-17.0,-2.0,-21.0
2871.0,2811.0,2895.0,3139.0,3027.0,0.846619,-0.161865,-0.506958,-0.00531,-2.0,0.0,-1.0,7391.0,-2277.0,1771.0,344.0,-75.0,-1780.0,1679.0,-515.0,-455.0,0.860119,-0.268692,0.433585,14694.0,-4542.0,3402.0,-29.0,5.0,-18.0
2875.0,2805.0,2887.0,3139.0,3034.0,0.845703,-0.162476,-0.508301,-0.005615,-1.0,0.0,-1.0,7387.0,-2309.0,1757.0,329.0,-104.0,-1769.0,1658.0,-543.0,-450.0,0.861568,-0.269104,0.430477,14730.0,-4724.0,3488.0,-14.0,11.0,-22.0
2871.0,2806.0,2895.0,3147.0,3026.0,0.845276,-0.162659,-0.508911,-0.005737,-1.0,0.0,-2.0,7376.0,-2294.0,1750.0,312.0,-89.0,-1764.0,1649.0,-531.0,-463.0,0.862207,-0.269143,0.429076,14692.0,-4446.0,3460.0,-3.0,10.0,-25.0
2867.0,2799.0,2901.0,3143.0,3027.0,0.844421,-0.162903,-0.510254,-0.006042,-1.0,0.0,-1.0,7385.0,-2243.0,1761.0,309.0,-39.0,-1730.0,1628.0,-475.0,-459.0,0.863707,-0.268951,0.426188,14850.0,-4342.0,3546.0,-7.0,1.0,-20.0
2874.0,2811.0,2893.0,3143.0,3025.0,0.843994,-0.163086,-0.510925,-0.006165,-1.0,-1.0,-1.0,7385.0,-2222.0,1764.0,303.0,-18.0,-1715.0,1617.0,-452.0,-461.0,0.864447,-0.268988,0.424722,14752.0,-4332.0,3552.0,-8.0,0.0,-16.0
2871.0,2811.0,2899.0,3141.0,3035.0,0.843079,-0.163391,-0.512268,-0.006348,-1.0,-1.0,-1.0,7394.0,-2207.0,1757.0,301.0,-3.0,-1697.0,1604.0,-434.0,-454.0,0.865839,-0.269,0.421707,14824.0,-4390.0,3502.0,-6.0,-2.0,-7.0
2867.0,2807.0,2894.0,3135.0,3035.0,0.842651,-0.163574,-0.512939,-0.006409,-1.0,-1.0,-1.0,7391.0,-2200.0,1750.0,292.0,4.0,-1692.0,1598.0,-427.0,-459.0,0.866555,-0.269098,0.420239,14742.0,-4346.0,3434.0,0.0,-2.0,-5.0
2876.0,2806.0,2896.0,3143.0,3043.0,0.841797,-0.163879,-0.514282,-0.00647,-1.0,-1.0,0.0,7399.0,-2188.0,1743.0,288.0,17.0,-1675.0,1585.0,-411.0,-453.0,0.867963,-0.269252,0.417321,14876.0,-4394.0,3462.0,-4.0,0.0,6.0
2867.0,2809.0,2896.0,3143.0,3023.0,0.84137,-0.164124,-0.514893,-0.00647,-1.0,0.0,0.0,7416.0,-2184.0,1740.0,300.0,23.0,-1667.0,1585.0,-402.0,-438.0,0.868554,-0.269515,0.415894,14948.0,-4348.0,3478.0,-4.0,10.0,10.0
2871.0,2807.0,2897.0,3143.0,3029.0,0.840637,-0.16449,-0.515991,-0.006531,-1.0,0.0,0.0,7419.0,-2198.0,1732.0,294.0,12.0,-1654.0,1570.0,-410.0,-431.0,0.869671,-0.269813,0.41341,14824.0,-4472.0,3454.0,-12.0,18.0,1.0
2865.0,2811.0,2899.0,3147.0,3031.0,0.84021,-0.164734,-0.516541,-0.006653,-1.0,0.0,-1.0,7416.0,-2206.0,1724.0,287.0,5.0,-1651.0,1564.0,-418.0,-431.0,0.870197,-0.269949,0.412046,14828.0,-4468.0,3430.0,-14.0,20.0,-3.0
2875.0,2807.0,2902.0,3141.0,3023.0,0.839478,-0.165283,-0.517578,-0.006897,-2.0,0.0,-1.0,7380.0,-2240.0,1703.0,242.0,-25.0,-1652.0,1539.0,-455.0,-458.0,0.87127,-0.270364,0.409564,14574.0,-4664.0,3218.0,-31.0,20.0,-11.0
2875.0,2811.0,2886.0,3143.0,3030.0,0.83905,-0.165588,-0.518188,-0.006958,-2.0,0.0,-1.0,7373.0,-2272.0,1700.0,230.0,-54.0,-1643.0,1521.0,-482.0,-455.0,0.871877,-0.270663,0.408115,14794.0,-4730.0,3460.0,-31.0,6.0,-8.0
2871.0,2814.0,2895.0,3147.0,3029.0,0.838196,-0.166138,-0.519348,-0.007141,-1.0,0.0,-1.0,7362.0,-2296.0,1710.0,210.0,-75.0,-1610.0,1480.0,-497.0,-448.0,0.873004,-0.271094,0.405299,14742.0,-4616.0,3530.0,-9.0,3.0,-7.0
2875.0,2811.0,2895.0,3135.0,3037.0,0.83783,-0.166321,-0.519897,-0.007141,-1.0,0.0,-1.0,7361.0,-2295.0,1724.0,204.0,-72.0,-1586.0,1458.0,-488.0,-443.0,0.873546,-0.271272,0.404053,14732.0,-4554.0,3614.0,-5.0,2.0,-2.0
2863.0,2803.0,2891.0,3148.0,3031.0,0.837097,-0.166687,-0.520935,-0.007202,-1.0,0.0,-1.0,7398.0,-2276.0,1780.0,233.0,-51.0,-1510.0,1410.0,-443.0,-388.0,0.874548,-0.271563,0.401626,14942.0,-4500.0,3662.0,-5.0,16.0,-4.0
2874.0,2803.0,2895.0,3135.0,3025.0,0.836792,-0.16687,-0.521423,-0.007263,-1.0,1.0,-1.0,7398.0,-2264.0,1790.0,229.0,-38.0,-1491.0,1394.0,-426.0,-386.0,0.87507,-0.271697,0.400546,14740.0,-4422.0,3626.0,0.0,29.0,-5.0
2874.0,2807.0,2895.0,3147.0,3039.0,0.836182,-0.167053,-0.522278,-0.007385,0.0,0.0,-1.0,7377.0,-2254.0,1805.0,201.0,-28.0,-1460.0,1357.0,-412.0,-398.0,0.875906,-0.271659,0.398573,14712.0,-4442.0,3692.0,9.0,21.0,-4.0
2874.0,2809.0,2896.0,3149.0,3025.0,0.835938,-0.167175,-0.522705,-0.007385,0.0,0.0,-1.0,7377.0,-2235.0,1817.0,197.0,-8.0,-1440.0,1342.0,-389.0,-397.0,0.876367,-0.271776,0.397678,14722.0,-4352.0,3670.0,10.0,17.0,-9.0
2870.0,2811.0,2899.0,3135.0,3030.0,0.835205,-0.167358,-0.523743,-0.007568,-1.0,-1.0,-1.0,7365.0,-2209.0,1825.0,177.0,16.0,-1413.0,1315.0,-362.0,-407.0,0.877398,-0.271629,0.39531,14682.0,-4350.0,3668.0,-10.0,-2.0,-7.0
2870.0,2807.0,2895.0,3143.0,3035.0,0.834839,-0.167542,-0.524292,-0.007629,-1.0,-1.0,-1.0,7364.0,-2212.0,1821.0,171.0,14.0,-1407.0,1307.0,-363.0,-408.0,0.877955,-0.27174,0.394062,14724.0,-4452.0,3644.0,-11.0,-11.0,-4.0
2875.0,2810.0,2896.0,3147.0,3035.0,0.834045,-0.167847,-0.525513,-0.007629,0.0,-1.0,-1.0,7378.0,-2224.0,1803.0,175.0,3.0,-1402.0,1304.0,-372.0,-395.0,0.879164,-0.271965,0.391354,14790.0,-4468.0,3584.0,8.0,-13.0,-2.0
2871.0,2811.0,2897.0,3143.0,3035.0,0.833618,-0.167908,-0.526123,-0.007629,0.0,-1.0,-1.0,7380.0,-2218.0,1799.0,173.0,9.0,-1395.0,1298.0,-364.0,-394.0,0.879734,-0.271914,0.389979,14796.0,-4390.0,3622.0,9.0,-14.0,-2.0
2875.0,2800.0,2885.0,3149.0,3031.0,0.832886,-0.168152,-0.527283,-0.007568,0.0,-1.0,0.0,7395.0,-2219.0,1792.0,178.0,10.0,-1382.0,1291.0,-359.0,-381.0,0.880878,-0.272121,0.387454,14834.0,-4442.0,3506.0,8.0,-10.0,9.0
2871.0,2811.0,2895.0,3149.0,3029.0,0.832458,-0.168335,-0.527832,-0.007507,0.0,-1.0,0.0,7388.0,-2221.0,1769.0,168.0,9.0,-1393.0,1296.0,-365.0,-392.0,0.881324,-0.272339,0.3861,14744.0,-4440.0,3430.0,10.0,-5.0,9.0
2871.0,2807.0,2893.0,3151.0,3031.0,0.831726,-0.168579,-0.52887,-0.007385,-1.0,-1.0,0.0,7380.0,-2210.0,1755.0,152.0,23.0,-1388.0,1288.0,-353.0,-404.0,0.882239,-0.272612,0.383701,14768.0,-4396.0,3504.0,-2.0,-5.0,10.0
2867.0,2806.0,2895.0,3143.0,3025.0,0.83136,-0.168762,-0.529419,-0.007385,-1.0,-1.0,0.0,7382.0,-2217.0,1754.0,150.0,17.0,-1379.0,1279.0,-356.0,-399.0,0.882768,-0.272784,0.382449,14782.0,-4498.0,3516.0,-8.0,-6.0,8.0
2877.0,2809.0,2886.0,3151.0,3027.0,0.830627,-0.16925,-0.530457,-0.007446,-1.0,-1.0,0.0,7380.0,-2240.0,1734.0,140.0,-1.0,-1378.0,1271.0,-375.0,-399.0,0.883744,-0.273268,0.379968,14766.0,-4566.0,3416.0,-14.0,-2.0,3.0
2867.0,2811.0,2897.0,3139.0,3027.0,0.830261,-0.169434,-0.531006,-0.007446,-1.0,0.0,-1.0,7387.0,-2251.0,1735.0,143.0,-10.0,-1367.0,1262.0,-380.0,-388.0,0.88427,-0.27344,0.378714,14800.0,-4562.0,3512.0,-11.0,2.0,-1.0
2864.0,2811.0,2895.0,3141.0,3035.0,0.82959,-0.1698,-0.53186,-0.007446,-1.0,0.0,0.0,7397.0,-2270.0,1740.0,147.0,-26.0,-1344.0,1241.0,-389.0,-368.0,0.884981,-0.273808,0.376567,14808.0,-4584.0,3496.0,0.0,18.0,7.0
2866.0,2807.0,2893.0,3139.0,3037.0,0.829346,-0.169983,-0.532227,-0.007446,0.0,1.0,0.0,7389.0,-2259.0,1735.0,136.0,-14.0,-1342.0,1237.0,-379.0,-379.0,0.885331,-0.274023,0.37571,14712.0,-4418.0,3428.0,11.0,26.0,6.0
2874.0,2814.0,2897.0,3142.0,3039.0,0.828796,-0.170166,-0.53302,-0.007446,-1.0,0.0,0.0,7360.0,-2223.0,1754.0,101.0,22.0,-1308.0,1200.0,-341.0,-405.0,0.886064,-0.274128,0.373892,14698.0,-4408.0,3628.0,-3.0,10.0,4.0
2871.0,2811.0,2897.0,3149.0,3035.0,0.828491,-0.170349,-0.533447,-0.007446,-1.0,0.0,0.0,7367.0,-2235.0,1758.0,105.0,12.0,-1296.0,1189.0,-347.0,-393.0,0.88645,-0.274321,0.372868,14782.0,-4548.0,3510.0,-8.0,4.0,9.0
2870.0,2811.0,2897.0,3147.0,3029.0,0.82782,-0.170654,-0.534302,-0.007324,0.0,0.0,0.0,7372.0,-2253.0,1762.0,104.0,-2.0,-1275.0,1168.0,-354.0,-379.0,0.887111,-0.274715,0.370738,14738.0,-4516.0,3592.0,13.0,7.0,8.0
2865.0,2806.0,2887.0,3143.0,3025.0,0.827576,-0.170715,-0.534729,-0.007324,0.0,0.0,0.0,7381.0,-2253.0,1783.0,110.0,-2.0,-1246.0,1146.0,-344.0,-362.0,0.887558,-0.274727,0.369856,14850.0,-4490.0,3726.0,15.0,7.0,5.0
2871.0,2805.0,2898.0,3147.0,3027.0,0.827026,-0.170898,-0.535522,-0.007263,0.0,0.0,0.0,7394.0,-2243.0,1805.0,117.0,8.0,-1209.0,1119.0,-323.0,-343.0,0.888265,-0.274896,0.368035,14820.0,-4510.0,3648.0,7.0,12.0,4.0
2875.0,2815.0,2895.0,3167.0,3029.0,0.826782,-0.171021,-0.535889,-0.007202,0.0,0.0,0.0,7399.0,-2252.0,1803.0,119.0,1.0,-1205.0,1115.0,-328.0,-337.0,0.88859,-0.275074,0.367196,14808.0,-4556.0,3606.0,12.0,13.0,3.0
2871.0,2811.0,2901.0,3139.0,3035.0,0.826233,-0.171143,-0.536621,-0.007141,0.0,0.0,0.0,7393.0,-2249.0,1802.0,108.0,4.0,-1191.0,1099.0,-323.0,-340.0,0.889192,-0.275143,0.36546,14818.0,-4476.0,3648.0,11.0,10.0,9.0
2867.0,2807.0,2896.0,3147.0,3031.0,0.825989,-0.171265,-0.536987,-0.00708,0.0,0.0,0.0,7390.0,-2254.0,1798.0,103.0,1.0,-1188.0,1094.0,-326.0,-341.0,0.889516,-0.275322,0.364621,14728.0,-4530.0,3540.0,10.0,18.0,10.0
2871.0,2806.0,2897.0,3142.0,3037.0,0.825378,-0.17157,-0.537781,-0.006958,-1.0,-1.0,0.0,7361.0,-2258.0,1788.0,69.0,0.0,-1182.0,1075.0,-331.0,-367.0,0.890133,-0.275736,0.362654,14680.0,-4542.0,3596.0,0.0,-5.0,9.0
2871.0,2810.0,2896.0,3139.0,3027.0,0.825073,-0.171692,-0.538269,-0.006958,-1.0,-1.0,0.0,7359.0,-2256.0,1787.0,63.0,3.0,-1175.0,1067.0,-327.0,-369.0,0.890612,-0.275826,0.361583,14712.0,-4454.0,3516.0,-5.0,-9.0,4.0
2874.0,2815.0,2899.0,3143.0,3031.0,0.824402,-0.171997,-0.539185,-0.006958,-1.0,-1.0,0.0,7391.0,-2285.0,1813.0,88.0,-23.0,-1131.0,1035.0,-335.0,-321.0,0.891403,-0.276086,0.359384,14884.0,-4724.0,3732.0,-2.0,-4.0,0.0
2871.0,2813.0,2898.0,3143.0,3027.0,0.824158,-0.172119,-0.539551,-0.006958,0.0,0.0,-1.0,7399.0,-2291.0,1814.0,93.0,-28.0,-1123.0,1029.0,-337.0,-311.0,0.891745,-0.276198,0.358544,14840.0,-4586.0,3614.0,11.0,10.0,-3.0
2867.0,2807.0,2891.0,3139.0,3030.0,0.823669,-0.17218,-0.540222,-0.006958,0.0,0.0,-1.0,7381.0,-2264.0,1819.0,71.0,-2.0,-1105.0,1009.0,-311.0,-330.0,0.892325,-0.276121,0.356994,14754.0,-4400.0,3678.0,13.0,12.0,-10.0
2871.0,2815.0,2899.0,3149.0,3035.0,0.823425,-0.172241,-0.540588,-0.007019,0.0,0.0,-1.0,7385.0,-2247.0,1820.0,72.0,14.0,-1097.0,1006.0,-293.0,-330.0,0.892686,-0.276067,0.356176,14794.0,-4408.0,3650.0,1.0,13.0,-11.0
2870.0,2809.0,2896.0,3147.0,3031.0,0.822937,-0.172424,-0.54126,-0.007202,-1.0,0.0,-1.0,7364.0,-2234.0,1824.0,45.0,26.0,-1080.0,983.0,-282.0,-349.0,0.893329,-0.275992,0.354585,14664.0,-4444.0,3722.0,-10.0,4.0,-4.0
2869.0,2807.0,2895.0,3143.0,3027.0,0.822632,-0.172607,-0.541687,-0.007202,-1.0,-1.0,0.0,7371.0,-2238.0,1835.0,49.0,24.0,-1061.0,967.0,-278.0,-337.0,0.893704,-0.276182,0.353557,14808.0,-4492.0,3750.0,-7.0,-5.0,0.0
2867.0,2811.0,2895.0,3143.0,3027.0,0.822144,-0.172729,-0.542419,-0.007202,0.0,0.0,-1.0,7379.0,-2245.0,1833.0,52.0,17.0,-1049.0,957.0,-281.0,-327.0,0.894381,-0.276204,0.351918,14708.0,-4432.0,3644.0,19.0,2.0,-1.0
2867.0,2807.0,2896.0,3146.0,3035.0,0.821838,-0.172729,-0.542847,-0.007141,0.0,-1.0,0.0,7367.0,-2216.0,1832.0,37.0,46.0,-1042.0,951.0,-254.0,-345.0,0.894731,-0.276158,0.350951,14676.0,-4242.0,3696.0,14.0,-9.0,0.0
2871.0,2810.0,2894.0,3147.0,3031.0,0.821228,-0.172974,-0.543701,-0.007141,-1.0,-1.0,0.0,7382.0,-2205.0,1829.0,46.0,58.0,-1029.0,946.0,-237.0,-333.0,0.895476,-0.276336,0.348936,14846.0,-4478.0,3622.0,-13.0,-17.0,6.0
2869.0,2811.0,2897.0,3147.0,3031.0,0.820923,-0.173096,-0.544128,-0.007141,-1.0,-1.0,0.0,7383.0,-2221.0,1821.0,44.0,43.0,-1029.0,943.0,-252.0,-330.0,0.895847,-0.276425,0.347927,14726.0,-4534.0,3574.0,-7.0,-12.0,5.0
2875.0,2811.0,2893.0,3147.0,3035.0,0.820251,-0.173401,-0.545044,-0.00708,0.0,-1.0,0.0,7383.0,-2241.0,1803.0,38.0,26.0,-1029.0,938.0,-269.0,-328.0,0.896602,-0.276747,0.345722,14788.0,-4532.0,3584.0,2.0,-15.0,4.0
2873.0,2811.0,2899.0,3143.0,3031.0,0.819946,-0.173462,-0.545471,-0.00708,0.0,-1.0,-1.0,7386.0,-2248.0,1799.0,38.0,19.0,-1025.0,933.0,-274.0,-324.0,0.89697,-0.276735,0.344734,14776.0,-4536.0,3562.0,4.0,-8.0,-1.0
2875.0,2811.0,2896.0,3147.0,3031.0,0.819397,-0.173645,-0.546265,-0.007141,-1.0,-1.0,-1.0,7397.0,-2253.0,1776.0,43.0,14.0,-1033.0,942.0,-281.0,-319.0,0.897695,-0.276767,0.342905,14832.0,-4540.0,3470.0,-3.0,-3.0,-3.0
2867.0,2811.0,2896.0,3147.0,3029.0,0.819092,-0.173767,-0.546631,-0.007141,-1.0,0.0,-1.0,7399.0,-2258.0,1778.0,42.0,9.0,-1023.0,932.0,-283.0,-314.0,0.897963,-0.276855,0.341962,14796.0,-4542.0,3570.0,-6.0,1.0,-2.0
2867.0,2807.0,2893.0,3139.0,3031.0,0.818604,-0.174011,-0.547302,-0.007202,0.0,0.0,-1.0,7368.0,-2256.0,1757.0,7.0,13.0,-1031.0,926.0,-288.0,-348.0,0.898554,-0.277009,0.340344,14604.0,-4494.0,3440.0,2.0,1.0,-5.0
2867.0,2807.0,2897.0,3147.0,3039.0,0.818298,-0.174072,-0.547729,-0.007141,0.0,-1.0,-1.0,7363.0,-2254.0,1754.0,0.0,15.0,-1025.0,919.0,-285.0,-351.0,0.898898,-0.277063,0.339354,14738.0,-4460.0,3538.0,6.0,-7.0,-1.0
2873.0,2811.0,2895.0,3143.0,3029.0,0.817749,-0.174255,-0.548462,-0.007141,-1.0,-1.0,0.0,7374.0,-2228.0,1760.0,5.0,42.0,-1005.0,909.0,-253.0,-346.0,0.899497,-0.277161,0.337589,14786.0,-4356.0,3560.0,-1.0,-4.0,5.0
2870.0,2810.0,2887.0,3142.0,3027.0,0.817505,-0.174377,-0.548828,-0.007141,-1.0,-1.0,0.0,7377.0,-2222.0,1765.0,5.0,49.0,-993.0,900.0,-243.0,-343.0,0.89983,-0.27727,0.336745,14768.0,-4434.0,3518.0,-9.0,-6.0,6.0
2871.0,2813.0,2895.0,3135.0,3035.0,0.816956,-0.174622,-0.549561,-0.007141,0.0,-1.0,0.0,7366.0,-2231.0,1782.0,-10.0,42.0,-961.0,865.0,-244.0,-342.0,0.900427,-0.277467,0.334958,14626.0,-4410.0,3576.0,3.0,-9.0,2.0
2870.0,2811.0,2897.0,3151.0,3035.0,0.81665,-0.174683,-0.549988,-0.007141,0.0,-1.0,0.0,7362.0,-2221.0,1787.0,-17.0,51.0,-948.0,852.0,-233.0,-346.0,0.90079,-0.277454,0.333968,14752.0,-4360.0,3632.0,3.0,-19.0,1.0
2869.0,2807.0,2899.0,3151.0,3031.0,0.816101,-0.174866,-0.550781,-0.00708,0.0,-1.0,0.0,7386.0,-2214.0,1791.0,1.0,60.0,-929.0,845.0,-215.0,-324.0,0.901462,-0.277617,0.332133,14774.0,-4374.0,3534.0,2.0,-10.0,9.0
2875.0,2805.0,2894.0,3143.0,3039.0,0.815796,-0.174988,-0.551147,-0.007019,-1.0,-1.0,0.0,7385.0,-2203.0,1795.0,-1.0,72.0,-918.0,837.0,-201.0,-324.0,0.901704,-0.277772,0.331188,14772.0,-4354.0,3648.0,-4.0,-12.0,13.0
2871.0,2807.0,2906.0,3135.0,3031.0,0.815247,-0.175293,-0.55188,-0.006958,-1.0,-1.0,0.0,7380.0,-2225.0,1810.0,-11.0,53.0,-888.0,803.0,-212.0,-317.0,0.902276,-0.278134,0.329376,14706.0,-4550.0,3620.0,-12.0,-11.0,13.0
2867.0,2815.0,2896.0,3143.0,3047.0,0.815002,-0.175476,-0.552246,-0.006958,-1.0,-1.0,0.0,7367.0,-2237.0,1811.0,-27.0,43.0,-880.0,788.0,-223.0,-325.0,0.902606,-0.278342,0.32851,14642.0,-4532.0,3644.0,-8.0,-17.0,12.0
2874.0,2812.0,2901.0,3145.0,3035.0,0.814392,-0.175842,-0.55304,-0.006836,-1.0,-2.0,0.0,7377.0,-2259.0,1796.0,-21.0,25.0,-878.0,785.0,-238.0,-312.0,0.903186,-0.278848,0.326508,14844.0,-4602.0,3584.0,-7.0,-25.0,9.0
2875.0,2805.0,2883.0,3135.0,3031.0,0.814087,-0.175964,-0.553406,-0.006775,-1.0,-1.0,0.0,7386.0,-2273.0,1784.0,-14.0,12.0,-883.0,790.0,-250.0,-303.0,0.903425,-0.279002,0.325562,14810.0,-4616.0,3514.0,-1.0,-17.0,10.0
2877.0,2811.0,2893.0,3143.0,3038.0,0.813538,-0.176147,-0.554138,-0.006714,0.0,-1.0,-1.0,7391.0,-2273.0,1760.0,-14.0,13.0,-892.0,799.0,-252.0,-305.0,0.90399,-0.279164,0.323791,14806.0,-4554.0,3450.0,7.0,-8.0,-3.0
2875.0,2809.0,2896.0,3143.0,3035.0,0.813293,-0.176208,-0.554504,-0.006714,0.0,-1.0,-1.0,7390.0,-2267.0,1754.0,-18.0,19.0,-891.0,798.0,-247.0,-309.0,0.904316,-0.279173,0.322967,14766.0,-4486.0,3464.0,5.0,0.0,-4.0
2871.0,2806.0,2899.0,3141.0,3031.0,0.812805,-0.176392,-0.555115,-0.006775,-1.0,-1.0,-1.0,7374.0,-2252.0,1751.0,-38.0,35.0,-882.0,786.0,-233.0,-327.0,0.90479,-0.279222,0.321432,14686.0,-4496.0,3460.0,-14.0,-8.0,-2.0
2870.0,2802.0,2896.0,3149.0,3029.0,0.8125,-0.176514,-0.555481,-0.006775,-1.0,-1.0,0.0,7376.0,-2265.0,1747.0,-38.0,23.0,-878.0,780.0,-243.0,-322.0,0.905048,-0.279308,0.320486,14786.0,-4598.0,3438.0,-7.0,-14.0,0.0
2871.0,2807.0,2896.0,3143.0,3039.0,0.812012,-0.176697,-0.556213,-0.006775,0.0,-1.0,0.0,7393.0,-2258.0,1751.0,-26.0,31.0,-860.0,771.0,-229.0,-306.0,0.905698,-0.279423,0.318814,14804.0,-4390.0,3552.0,6.0,-8.0,0.0
2875.0,2807.0,2897.0,3147.0,3038.0,0.811768,-0.176758,-0.55658,-0.006775,-1.0,-1.0,0.0,7394.0,-2244.0,1746.0,-28.0,45.0,-858.0,771.0,-215.0,-310.0,0.906022,-0.279431,0.317988,14808.0,-4408.0,3436.0,-1.0,-6.0,1.0
2871.0,2815.0,2896.0,3143.0,3028.0,0.811279,-0.177002,-0.55719,-0.006775,-1.0,-1.0,0.0,7381.0,-2234.0,1731.0,-44.0,56.0,-861.0,771.0,-209.0,-327.0,0.906472,-0.279646,0.31643,14730.0,-4420.0,3432.0,-6.0,-4.0,6.0
2866.0,2807.0,2889.0,3143.0,3031.0,0.811035,-0.177124,-0.557495,-0.006775,-1.0,0.0,0.0,7393.0,-2231.0,1730.0,-34.0,60.0,-855.0,770.0,-202.0,-317.0,0.906696,-0.279754,0.31565,14884.0,-4428.0,3466.0,0.0,2.0,4.0
2864.0,2803.0,2897.0,3139.0,3031.0,0.810669,-0.177246,-0.557983,-0.006775,-1.0,0.0,0.0,7397.0,-2215.0,1728.0,-33.0,77.0,-848.0,768.0,-184.0,-318.0,0.907081,-0.279815,0.314468,14786.0,-4446.0,3422.0,-4.0,10.0,8.0
2875.0,2832.0,2898.0,3135.0,3037.0,0.810486,-0.177368,-0.558228,-0.006775,-1.0,0.0,0.0,7397.0,-2228.0,1727.0,-35.0,65.0,-844.0,762.0,-194.0,-314.0,0.907274,-0.279945,0.313856,14796.0,-4526.0,3490.0,0.0,11.0,8.0
2875.0,2813.0,2897.0,3143.0,3031.0,0.810181,-0.177551,-0.558655,-0.006714,0.0,0.0,0.0,7384.0,-2248.0,1738.0,-51.0,47.0,-824.0,734.0,-208.0,-317.0,0.907607,-0.280196,0.312818,14694.0,-4536.0,3478.0,10.0,17.0,6.0
2864.0,2807.0,2902.0,3147.0,3035.0,0.809998,-0.177612,-0.558899,-0.006653,0.0,0.0,0.0,7382.0,-2251.0,1731.0,-54.0,45.0,-826.0,735.0,-211.0,-319.0,0.907777,-0.280295,0.312226,14778.0,-4492.0,3444.0,8.0,11.0,5.0
2869.0,2807.0,2895.0,3147.0,3038.0,0.809631,-0.177734,-0.559326,-0.006653,-1.0,0.0,0.0,7378.0,-2242.0,1749.0,-60.0,54.0,-799.0,710.0,-196.0,-318.0,0.908061,-0.280356,0.311112,14674.0,-4420.0,3560.0,-1.0,11.0,7.0
2875.0,2815.0,2895.0,3139.0,3035.0,0.809448,-0.177856,-0.55957,-0.006653,-1.0,0.0,0.0,7371.0,-2246.0,1755.0,-69.0,51.0,-788.0,696.0,-197.0,-321.0,0.908253,-0.280486,0.310499,14732.0,-4560.0,3516.0,-15.0,3.0,4.0
2875.0,2815.0,2901.0,3135.0,3031.0,0.809021,-0.178162,-0.560059,-0.006653,0.0,0.0,0.0,7386.0,-2276.0,1772.0,-56.0,24.0,-760.0,671.0,-212.0,-292.0,0.908569,-0.280821,0.309152,14824.0,-4572.0,3616.0,1.0,4.0,4.0
2867.0,2811.0,2893.0,3147.0,3053.0,0.808899,-0.178223,-0.560303,-0.006653,0.0,0.0,0.0,7392.0,-2265.0,1780.0,-53.0,35.0,-748.0,663.0,-198.0,-288.0,0.908828,-0.280873,0.308659,14790.0,-4452.0,3582.0,12.0,3.0,0.0
2865.0,2807.0,2896.0,3139.0,3039.0,0.808533,-0.178223,-0.560791,-0.006653,0.0,-1.0,0.0,7389.0,-2223.0,1802.0,-59.0,76.0,-717.0,642.0,-151.0,-295.0,0.909207,-0.280736,0.30752,14786.0,-4352.0,3704.0,1.0,-1.0,3.0
2869.0,2811.0,2899.0,3147.0,3031.0,0.80835,-0.178284,-0.560974,-0.006653,-1.0,0.0,0.0,7390.0,-2218.0,1801.0,-58.0,82.0,-713.0,640.0,-145.0,-294.0,0.909299,-0.280767,0.306996,14794.0,-4424.0,3634.0,-8.0,1.0,7.0
2870.0,2811.0,2895.0,3143.0,3027.0,0.807983,-0.178589,-0.561462,-0.006714,-1.0,-1.0,0.0,7380.0,-2238.0,1795.0,-72.0,64.0,-709.0,628.0,-163.0,-300.0,0.909703,-0.281054,0.305748,14728.0,-4600.0,3566.0,-12.0,-4.0,5.0
2867.0,2811.0,2896.0,3135.0,3025.0,0.807739,-0.178711,-0.561768,-0.006653,-1.0,-1.0,0.0,7381.0,-2258.0,1789.0,-72.0,45.0,-709.0,624.0,-181.0,-294.0,0.909901,-0.281229,0.304967,14770.0,-4612.0,3550.0,-1.0,-5.0,4.0
2871.0,2807.0,2891.0,3147.0,3031.0,0.807373,-0.178772,-0.562256,-0.006592,0.0,0.0,0.0,7397.0,-2265.0,1802.0,-59.0,39.0,-686.0,607.0,-177.0,-273.0,0.910257,-0.281259,0.303804,14808.0,-4520.0,3668.0,11.0,1.0,0.0
2871.0,2811.0,2893.0,3147.0,3027.0,0.807251,-0.178833,-0.562439,-0.006592,0.0,0.0,0.0,7399.0,-2266.0,1801.0,-59.0,38.0,-684.0,605.0,-178.0,-271.0,0.910416,-0.281311,0.303379,14822.0,-4492.0,3570.0,8.0,9.0,3.0
2870.0,2813.0,2895.0,3139.0,3027.0,0.806946,-0.178955,-0.562866,-0.006592,-1.0,0.0,0.0,7405.0,-2271.0,1789.0,-55.0,34.0,-687.0,609.0,-182.0,-267.0,0.910764,-0.281393,0.302362,14824.0,-4598.0,3502.0,-4.0,11.0,0.0
2867.0,2805.0,2893.0,3143.0,3024.0,0.806763,-0.179016,-0.563049,-0.006592,-1.0,0.0,-1.0,7392.0,-2269.0,1779.0,-69.0,36.0,-693.0,610.0,-184.0,-282.0,0.910854,-0.281424,0.301838,14690.0,-4500.0,3500.0,0.0,16.0,-2.0
2865.0,2807.0,2895.0,3143.0,3035.0,0.806458,-0.179199,-0.563416,-0.006714,-1.0,0.0,-1.0,7371.0,-2272.0,1776.0,-93.0,33.0,-688.0,596.0,-190.0,-301.0,0.911148,-0.281468,0.300869,14724.0,-4610.0,3514.0,-8.0,8.0,-3.0
2871.0,2809.0,2899.0,3143.0,3031.0,0.806335,-0.179321,-0.563599,-0.006714,-1.0,0.0,-1.0,7370.0,-2273.0,1776.0,-95.0,34.0,-685.0,593.0,-189.0,-301.0,0.911307,-0.281618,0.300422,14740.0,-4518.0,3580.0,-5.0,6.0,-2.0
2873.0,2811.0,2896.0,3149.0,3031.0,0.805969,-0.179504,-0.564087,-0.006775,-1.0,-1.0,-1.0,7366.0,-2252.0,1782.0,-102.0,55.0,-669.0,581.0,-166.0,-308.0,0.911706,-0.281707,0.299216,14776.0,-4478.0,3614.0,-11.0,-7.0,-2.0
2866.0,2805.0,2896.0,3147.0,3031.0,0.805725,-0.179565,-0.564331,-0.006836,-1.0,-1.0,-1.0,7379.0,-2253.0,1783.0,-90.0,54.0,-662.0,579.0,-163.0,-294.0,0.911846,-0.281645,0.298526,14848.0,-4516.0,3600.0,-8.0,-8.0,-1.0
2875.0,2806.0,2891.0,3139.0,3027.0,0.80542,-0.179688,-0.564758,-0.006836,0.0,0.0,0.0,7387.0,-2237.0,1787.0,-85.0,70.0,-650.0,573.0,-144.0,-290.0,0.912192,-0.281726,0.297508,14748.0,-4314.0,3578.0,7.0,3.0,6.0
2871.0,2815.0,2902.0,3147.0,3031.0,0.805237,-0.179749,-0.565002,-0.006836,-1.0,-1.0,0.0,7385.0,-2210.0,1793.0,-89.0,98.0,-639.0,568.0,-115.0,-298.0,0.912379,-0.281756,0.296916,14794.0,-4274.0,3670.0,-4.0,0.0,3.0
2871.0,2811.0,2896.0,3147.0,3035.0,0.804932,-0.179932,-0.56543,-0.006958,-1.0,0.0,0.0,7385.0,-2211.0,1792.0,-92.0,97.0,-631.0,560.0,-114.0,-298.0,0.912768,-0.281797,0.295877,14714.0,-4436.0,3540.0,-17.0,3.0,7.0
2871.0,2807.0,2891.0,3143.0,3029.0,0.804749,-0.180054,-0.565613,-0.006958,-1.0,0.0,0.0,7379.0,-2224.0,1789.0,-99.0,85.0,-630.0,554.0,-127.0,-300.0,0.912858,-0.281925,0.295331,14712.0,-4544.0,3548.0,-9.0,1.0,5.0
2874.0,2805.0,2891.0,3143.0,3027.0,0.804443,-0.180237,-0.565979,-0.006897,0.0,-1.0,0.0,7371.0,-2241.0,1800.0,-108.0,70.0,-611.0,531.0,-137.0,-298.0,0.913082,-0.282174,0.294359,14744.0,-4506.0,3650.0,3.0,-5.0,13.0
2871.0,2814.0,2899.0,3143.0,3035.0,0.80426,-0.180298,-0.566223,-0.006836,0.0,-1.0,0.0,7370.0,-2242.0,1796.0,-111.0,70.0,-610.0,529.0,-137.0,-300.0,0.913247,-0.282271,0.293765,14724.0,-4488.0,3558.0,4.0,-2.0,12.0
2871.0,2814.0,2897.0,3143.0,3031.0,0.803894,-0.180481,-0.566711,-0.006775,-1.0,-1.0,0.0,7361.0,-2240.0,1788.0,-123.0,74.0,-608.0,524.0,-135.0,-311.0,0.913597,-0.282496,0.292556,14764.0,-4484.0,3628.0,-12.0,-15.0,6.0
2869.0,2809.0,2896.0,3141.0,3039.0,0.803711,-0.180603,-0.566956,-0.006775,-1.0,-1.0,0.0,7359.0,-2242.0,1793.0,-126.0,73.0,-598.0,514.0,-134.0,-310.0,0.913784,-0.282623,0.291941,14704.0,-4500.0,3598.0,-18.0,-16.0,1.0
2869.0,2807.0,2889.0,3141.0,3031.0,0.803223,-0.180908,-0.567505,-0.006897,-1.0,-2.0,-1.0,7374.0,-2276.0,1789.0,-114.0,40.0,-590.0,504.0,-160.0,-286.0,0.914161,-0.282791,0.290425,14806.0,-4724.0,3512.0,-21.0,-23.0,-6.0
2871.0,2814.0,2897.0,3143.0,3031.0,0.802979,-0.181091,-0.56781,-0.006958,-1.0,-1.0,-1.0,7386.0,-2280.0,1802.0,-104.0,37.0,-570.0,489.0,-155.0,-270.0,0.914399,-0.282923,0.289621,14852.0,-4500.0,3750.0,-13.0,-20.0,-6.0
2875.0,2809.0,2885.0,3141.0,3033.0,0.802612,-0.181213,-0.568237,-0.007019,-1.0,-1.0,-1.0,7383.0,-2278.0,1790.0,-110.0,39.0,-573.0,490.0,-156.0,-276.0,0.914692,-0.282911,0.288504,14742.0,-4508.0,3534.0,-7.0,-5.0,-3.0
2875.0,2811.0,2894.0,3143.0,3027.0,0.802429,-0.181274,-0.568481,-0.00708,-1.0,-1.0,0.0,7381.0,-2264.0,1791.0,-113.0,53.0,-567.0,487.0,-142.0,-281.0,0.914899,-0.28287,0.287911,14758.0,-4466.0,3638.0,-11.0,-6.0,0.0
2874.0,2810.0,2895.0,3135.0,3023.0,0.802124,-0.181458,-0.568909,-0.00708,0.0,-1.0,0.0,7386.0,-2269.0,1787.0,-111.0,49.0,-563.0,483.0,-144.0,-276.0,0.91524,-0.283047,0.286869,14824.0,-4572.0,3570.0,1.0,-7.0,2.0
2871.0,2811.0,2897.0,3143.0,3027.0,0.801941,-0.181458,-0.569092,-0.00708,0.0,-1.0,0.0,7394.0,-2252.0,1785.0,-104.0,66.0,-560.0,487.0,-126.0,-274.0,0.915325,-0.282978,0.286367,14842.0,-4422.0,3556.0,10.0,-1.0,1.0
2870.0,2811.0,2896.0,3139.0,3039.0,0.801697,-0.181458,-0.569458,-0.00708,0.0,0.0,0.0,7396.0,-2222.0,1783.0,-104.0,95.0,-556.0,490.0,-97.0,-280.0,0.915635,-0.282884,0.285559,14788.0,-4356.0,3592.0,4.0,8.0,3.0
2869.0,2805.0,2896.0,3139.0,3027.0,0.801575,-0.181458,-0.569641,-0.00708,-1.0,0.0,0.0,7388.0,-2219.0,1785.0,-114.0,98.0,-550.0,482.0,-95.0,-288.0,0.915789,-0.282837,0.285154,14732.0,-4424.0,3612.0,0.0,4.0,6.0
2870.0,2807.0,2891.0,3141.0,3035.0,0.801331,-0.18158,-0.569946,-0.007019,0.0,0.0,0.0,7387.0,-2217.0,1792.0,-116.0,101.0,-537.0,470.0,-88.0,-287.0,0.91598,-0.28301,0.28437,14786.0,-4398.0,3612.0,6.0,3.0,9.0
2871.0,2814.0,2896.0,3151.0,3035.0,0.801208,-0.18158,-0.570129,-0.006958,0.0,-1.0,0.0,7378.0,-2207.0,1792.0,-126.0,111.0,-534.0,466.0,-80.0,-298.0,0.916112,-0.283032,0.283965,14698.0,-4328.0,3600.0,2.0,-1.0,13.0
2871.0,2810.0,2897.0,3143.0,3031.0,0.800964,-0.181824,-0.570435,-0.006836,-1.0,-1.0,1.0,7376.0,-2217.0,1796.0,-130.0,105.0,-523.0,454.0,-83.0,-296.0,0.916281,-0.28347,0.283135,14760.0,-4450.0,3614.0,-3.0,-10.0,26.0
2875.0,2811.0,2896.0,3135.0,3031.0,0.800781,-0.181946,-0.570618,-0.006775,-1.0,-1.0,0.0,7373.0,-2217.0,1803.0,-133.0,106.0,-511.0,442.0,-80.0,-296.0,0.916345,-0.283666,0.282588,14652.0,-4374.0,3536.0,-8.0,-8.0,21.0
2871.0,2811.0,2894.0,3135.0,3067.0,0.800354,-0.182312,-0.571045,-0.006714,-2.0,-1.0,1.0,7381.0,-2229.0,1793.0,-127.0,98.0,-511.0,443.0,-86.0,-287.0,0.916524,-0.28416,0.281282,14752.0,-4522.0,3516.0,-27.0,-13.0,24.0
2873.0,2811.0,2898.0,3147.0,3031.0,0.800171,-0.182556,-0.571289,-0.006714,-2.0,-1.0,0.0,7383.0,-2235.0,1780.0,-126.0,95.0,-518.0,449.0,-91.0,-287.0,0.916709,-0.284481,0.280621,14774.0,-4510.0,3454.0,-28.0,-12.0,20.0
2875.0,2811.0,2897.0,3143.0,3035.0,0.799805,-0.182983,-0.571655,-0.006653,-1.0,-1.0,0.0,7388.0,-2272.0,1755.0,-122.0,63.0,-534.0,458.0,-125.0,-279.0,0.91686,-0.285096,0.279459,14774.0,-4608.0,3422.0,-14.0,-6.0,16.0
2871.0,2810.0,2896.0,3143.0,3027.0,0.799622,-0.183105,-0.571838,-0.006592,-1.0,-1.0,0.0,7388.0,-2282.0,1754.0,-123.0,55.0,-530.0,452.0,-132.0,-276.0,0.916923,-0.285291,0.278911,14788.0,-4620.0,3516.0,-5.0,-3.0,14.0
2871.0,2810.0,2893.0,3119.0,3031.0,0.799377,-0.183289,-0.572205,-0.006409,0.0,0.0,0.0,7382.0,-2306.0,1732.0,-131.0,34.0,-545.0,459.0,-158.0,-281.0,0.917164,-0.285699,0.278033,14756.0,-4694.0,3438.0,14.0,5.0,13.0
2871.0,2811.0,2896.0,3146.0,3031.0,0.799255,-0.183289,-0.572327,-0.006287,1.0,0.0,0.0,7378.0,-2309.0,1724.0,-135.0,32.0,-550.0,462.0,-162.0,-285.0,0.917175,-0.285793,0.277696,14730.0,-4606.0,3430.0,23.0,9.0,10.0
2870.0,2811.0,2896.0,3143.0,3031.0,0.799072,-0.183228,-0.572571,-0.006104,0.0,0.0,0.0,7350.0,-2276.0,1729.0,-164.0,65.0,-541.0,451.0,-134.0,-318.0,0.917288,-0.285835,0.277144,14650.0,-4452.0,3472.0,17.0,3.0,8.0
2871.0,2807.0,2895.0,3143.0,3031.0,0.79895,-0.183289,-0.572754,-0.006042,-1.0,-1.0,0.0,7364.0,-2276.0,1751.0,-151.0,66.0,-515.0,432.0,-123.0,-299.0,0.917419,-0.285955,0.276716,14872.0,-4596.0,3656.0,-3.0,-7.0,11.0
2873.0,2815.0,2896.0,3147.0,3031.0,0.798706,-0.183533,-0.572998,-0.006042,-1.0,0.0,0.0,7375.0,-2296.0,1773.0,-141.0,48.0,-487.0,406.0,-129.0,-277.0,0.917532,-0.286253,0.275957,14686.0,-4618.0,3568.0,-10.0,5.0,9.0
2871.0,2811.0,2896.0,3147.0,3035.0,0.798584,-0.183655,-0.57312,-0.006042,-1.0,-1.0,0.0,7370.0,-2292.0,1787.0,-146.0,54.0,-470.0,390.0,-120.0,-278.0,0.917589,-0.286401,0.275577,14738.0,-4576.0,3668.0,-11.0,-3.0,4.0
2871.0,2813.0,2897.0,3147.0,3033.0,0.79834,-0.183716,-0.573425,-0.006104,0.0,0.0,-1.0,7390.0,-2285.0,1797.0,-128.0,60.0,-454.0,384.0,-106.0,-259.0,0.917819,-0.286335,0.274816,14822.0,-4520.0,3580.0,2.0,4.0,-6.0
2875.0,2810.0,2893.0,3143.0,3031.0,0.798279,-0.183716,-0.573547,-0.006104,0.0,0.0,-1.0,7384.0,-2277.0,1804.0,-135.0,68.0,-445.0,375.0,-97.0,-265.0,0.917944,-0.286312,0.274578,14718.0,-4488.0,3658.0,1.0,5.0,-5.0
2873.0,2809.0,2895.0,3139.0,3035.0,0.798035,-0.183777,-0.573853,-0.006165,0.0,-1.0,-1.0,7372.0,-2270.0,1802.0,-149.0,74.0,-441.0,368.0,-93.0,-278.0,0.918174,-0.286246,0.273817,14696.0,-4506.0,3582.0,3.0,-6.0,-2.0
2870.0,2811.0,2882.0,3150.0,3035.0,0.797913,-0.183777,-0.574036,-0.006165,0.0,-1.0,-1.0,7376.0,-2268.0,1804.0,-146.0,76.0,-435.0,364.0,-89.0,-274.0,0.918326,-0.286198,0.273412,14786.0,-4534.0,3658.0,5.0,-11.0,-2.0
2871.0,2811.0,2897.0,3143.0,3035.0,0.797668,-0.183777,-0.574402,-0.006104,0.0,-1.0,-1.0,7377.0,-2251.0,1788.0,-148.0,93.0,-445.0,376.0,-76.0,-283.0,0.918608,-0.286174,0.272601,14768.0,-4458.0,3526.0,2.0,-7.0,-2.0
2871.0,2810.0,2893.0,3135.0,3027.0,0.797485,-0.183777,-0.574585,-0.006165,-1.0,-1.0,0.0,7368.0,-2250.0,1776.0,-158.0,93.0,-453.0,381.0,-81.0,-295.0,0.918712,-0.286035,0.272099,14654.0,-4480.0,3482.0,-2.0,-4.0,1.0
2871.0,2811.0,2907.0,3143.0,3035.0,0.79718,-0.18396,-0.575012,-0.006165,-1.0,-1.0,0.0,7372.0,-2264.0,1765.0,-156.0,80.0,-455.0,380.0,-93.0,-289.0,0.919045,-0.286209,0.271054,14856.0,-4610.0,3540.0,-9.0,-17.0,3.0
2871.0,2810.0,2895.0,3143.0,3039.0,0.796997,-0.184021,-0.575195,-0.006165,-1.0,-1.0,0.0,7384.0,-2272.0,1758.0,-145.0,72.0,-458.0,385.0,-99.0,-277.0,0.919127,-0.286237,0.270529,14828.0,-4544.0,3452.0,-1.0,-3.0,5.0
2871.0,2811.0,2897.0,3143.0,3031.0,0.796814,-0.184143,-0.5755,-0.006104,-1.0,0.0,0.0,7383.0,-2268.0,1745.0,-148.0,78.0,-465.0,392.0,-96.0,-283.0,0.919381,-0.28643,0.26984,14758.0,-4544.0,3426.0,-2.0,4.0,8.0
2871.0,2807.0,2869.0,3145.0,3035.0,0.796692,-0.184204,-0.575623,-0.006104,0.0,0.0,0.0,7385.0,-2279.0,1732.0,-147.0,67.0,-475.0,399.0,-110.0,-282.0,0.919436,-0.286481,0.269483,14780.0,-4634.0,3388.0,2.0,5.0,7.0
2874.0,2806.0,2895.0,3143.0,3031.0,0.796509,-0.184265,-0.575867,-0.006042,0.0,0.0,-1.0,7373.0,-2281.0,1724.0,-160.0,66.0,-478.0,398.0,-114.0,-294.0,0.919593,-0.286578,0.268887,14722.0,-4508.0,3464.0,10.0,5.0,-2.0
2875.0,2811.0,2896.0,3147.0,3031.0,0.796387,-0.184265,-0.575989,-0.006042,-1.0,0.0,-1.0,7374.0,-2274.0,1731.0,-159.0,73.0,-468.0,391.0,-104.0,-292.0,0.919646,-0.286532,0.268552,14776.0,-4516.0,3498.0,-1.0,2.0,-1.0
2874.0,2811.0,2891.0,3143.0,3031.0,0.796204,-0.184326,-0.576233,-0.006165,-1.0,0.0,-1.0,7390.0,-2270.0,1742.0,-145.0,76.0,-453.0,382.0,-94.0,-276.0,0.91987,-0.286418,0.267958,14834.0,-4534.0,3500.0,-9.0,14.0,-6.0
2873.0,2811.0,2893.0,3143.0,3029.0,0.796143,-0.184448,-0.576294,-0.006226,-1.0,0.0,-1.0,7391.0,-2279.0,1742.0,-144.0,68.0,-451.0,379.0,-101.0,-272.0,0.919921,-0.286519,0.267746,14754.0,-4622.0,3494.0,-12.0,21.0,-6.0
2873.0,2807.0,2907.0,3139.0,3031.0,0.796021,-0.18457,-0.576355,-0.006348,0.0,0.0,-1.0,7370.0,-2291.0,1750.0,-166.0,56.0,-440.0,359.0,-113.0,-286.0,0.919924,-0.286527,0.267438,14726.0,-4596.0,3570.0,1.0,17.0,-3.0
2875.0,2813.0,2896.0,3143.0,3031.0,0.796021,-0.184509,-0.576416,-0.006348,0.0,0.0,-1.0,7366.0,-2272.0,1755.0,-170.0,74.0,-435.0,357.0,-96.0,-293.0,0.92002,-0.286429,0.26739,14678.0,-4406.0,3530.0,8.0,19.0,-2.0
2871.0,2811.0,2895.0,3142.0,3031.0,0.795898,-0.18457,-0.576599,-0.006409,-1.0,0.0,0.0,7366.0,-2245.0,1790.0,-172.0,101.0,-396.0,327.0,-60.0,-292.0,0.920194,-0.286408,0.266963,14782.0,-4526.0,3692.0,-8.0,7.0,1.0
2875.0,2807.0,2897.0,3147.0,3033.0,0.795837,-0.184631,-0.57666,-0.006409,-1.0,0.0,0.0,7376.0,-2258.0,1797.0,-162.0,88.0,-388.0,320.0,-67.0,-277.0,0.920222,-0.286482,0.266773,14792.0,-4586.0,3620.0,-2.0,7.0,7.0
2853.0,2807.0,2895.0,3139.0,3031.0,0.795715,-0.184631,-0.576843,-0.006348,0.0,0.0,0.0,7376.0,-2253.0,1812.0,-163.0,94.0,-370.0,305.0,-56.0,-275.0,0.92035,-0.286505,0.266366,14712.0,-4440.0,3666.0,13.0,4.0,7.0
2871.0,2811.0,2898.0,3143.0,3031.0,0.795654,-0.184631,-0.576904,-0.006287,0.0,0.0,0.0,7376.0,-2246.0,1815.0,-163.0,101.0,-365.0,302.0,-48.0,-276.0,0.920354,-0.286552,0.266198,14750.0,-4436.0,3662.0,10.0,1.0,9.0
2871.0,2810.0,2895.0,3142.0,3033.0,0.795471,-0.184692,-0.577087,-0.006226,0.0,0.0,0.0,7373.0,-2251.0,1808.0,-167.0,97.0,-368.0,302.0,-54.0,-279.0,0.920412,-0.28665,0.265672,14728.0,-4538.0,3532.0,2.0,1.0,7.0
2871.0,2803.0,2895.0,3143.0,3035.0,0.79541,-0.184692,-0.577209,-0.006226,0.0,0.0,0.0,7377.0,-2259.0,1798.0,-164.0,89.0,-376.0,309.0,-63.0,-276.0,0.920536,-0.286625,0.265434,14798.0,-4580.0,3510.0,2.0,6.0,10.0
2871.0,2812.0,2896.0,3141.0,3030.0,0.795227,-0.184814,-0.577393,-0.006104,0.0,0.0,0.0,7357.0,-2262.0,1780.0,-184.0,88.0,-389.0,314.0,-72.0,-297.0,0.920572,-0.286891,0.264885,14620.0,-4554.0,3464.0,1.0,6.0,11.0
2875.0,2813.0,2896.0,3149.0,3035.0,0.795166,-0.184875,-0.577515,-0.006104,-1.0,-1.0,0.0,7363.0,-2278.0,1767.0,-179.0,72.0,-400.0,322.0,-89.0,-291.0,0.920697,-0.286964,0.264624,14784.0,-4680.0,3488.0,-2.0,0.0,9.0
2875.0,2813.0,2895.0,3143.0,3031.0,0.794983,-0.184998,-0.577698,-0.006042,-1.0,0.0,-1.0,7362.0,-2306.0,1760.0,-180.0,46.0,-403.0,319.0,-115.0,-285.0,0.920755,-0.287158,0.264076,14718.0,-4710.0,3574.0,-2.0,10.0,-2.0
2871.0,2810.0,2894.0,3103.0,3031.0,0.794922,-0.185059,-0.577759,-0.006042,-1.0,0.0,0.0,7362.0,-2312.0,1765.0,-181.0,41.0,-396.0,311.0,-118.0,-282.0,0.920783,-0.287232,0.263885,14734.0,-4646.0,3562.0,-2.0,9.0,1.0
2871.0,2807.0,2896.0,3139.0,3031.0,0.7948,-0.18512,-0.577881,-0.006104,-1.0,0.0,-1.0,7375.0,-2306.0,1789.0,-168.0,46.0,-369.0,292.0,-102.0,-265.0,0.920859,-0.287212,0.263528,14816.0,-4632.0,3628.0,-1.0,13.0,-6.0
2877.0,2811.0,2898.0,3147.0,3037.0,0.7948,-0.185181,-0.577942,-0.006104,0.0,0.0,-1.0,7372.0,-2297.0,1791.0,-172.0,56.0,-367.0,291.0,-93.0,-271.0,0.920957,-0.287308,0.263435,14694.0,-4516.0,3566.0,2.0,12.0,-4.0
2873.0,2815.0,2900.0,3147.0,3031.0,0.794678,-0.185181,-0.578064,-0.006226,-1.0,0.0,-1.0,7372.0,-2274.0,1814.0,-173.0,78.0,-341.0,272.0,-65.0,-271.0,0.921055,-0.28712,0.263102,14770.0,-4492.0,3694.0,0.0,11.0,-3.0
2877.0,2811.0,2893.0,3143.0,3035.0,0.794617,-0.185181,-0.578125,-0.006226,-1.0,0.0,0.0,7370.0,-2266.0,1808.0,-175.0,85.0,-345.0,277.0,-60.0,-276.0,0.921081,-0.287097,0.262934,14726.0,-4480.0,3586.0,0.0,12.0,0.0
2871.0,2807.0,2896.0,3141.0,3035.0,0.794495,-0.185242,-0.578308,-0.006226,-1.0,-1.0,0.0,7359.0,-2262.0,1818.0,-187.0,90.0,-332.0,262.0,-54.0,-285.0,0.921232,-0.287146,0.262506,14776.0,-4538.0,3626.0,-2.0,-3.0,1.0
2874.0,2815.0,2897.0,3149.0,3037.0,0.794434,-0.185242,-0.578369,-0.006287,0.0,-1.0,0.0,7358.0,-2262.0,1819.0,-189.0,89.0,-330.0,259.0,-55.0,-286.0,0.921281,-0.287052,0.262339,14666.0,-4500.0,3622.0,1.0,-1.0,1.0
2874.0,2811.0,2897.0,3143.0,3035.0,0.79425,-0.185303,-0.578674,-0.006287,-1.0,-1.0,0.0,7360.0,-2250.0,1808.0,-189.0,101.0,-335.0,267.0,-45.0,-290.0,0.921555,-0.287078,0.261672,14776.0,-4480.0,3544.0,-7.0,-9.0,0.0
2875.0,2807.0,2895.0,3143.0,3031.0,0.794128,-0.185364,-0.578796,-0.006348,-1.0,-1.0,0.0,7374.0,-2258.0,1804.0,-175.0,93.0,-336.0,271.0,-50.0,-275.0,0.921631,-0.287057,0.261315,14810.0,-4574.0,3556.0,-10.0,-5.0,3.0
2875.0,2807.0,2895.0,3139.0,3030.0,0.793945,-0.185486,-0.578979,-0.006287,-1.0,-1.0,0.0,7366.0,-2275.0,1794.0,-184.0,78.0,-342.0,270.0,-68.0,-281.0,0.921688,-0.287252,0.260766,14678.0,-4508.0,3614.0,0.0,0.0,6.0
2873.0,2810.0,2896.0,3143.0,3029.0,0.793823,-0.185547,-0.579102,-0.006287,-1.0,-1.0,0.0,7353.0,-2270.0,1797.0,-197.0,83.0,-336.0,261.0,-64.0,-292.0,0.921741,-0.287302,0.260409,14676.0,-4496.0,3632.0,-3.0,-5.0,3.0
2875.0,2811.0,2895.0,3149.0,3037.0,0.79364,-0.185669,-0.579346,-0.006348,-1.0,0.0,0.0,7364.0,-2280.0,1803.0,-188.0,74.0,-325.0,252.0,-67.0,-279.0,0.921941,-0.287354,0.259791,14678.0,-4528.0,3578.0,-5.0,2.0,1.0
2869.0,2815.0,2895.0,3141.0,3027.0,0.793579,-0.185669,-0.579468,-0.006348,-1.0,-1.0,-1.0,7362.0,-2274.0,1803.0,-191.0,79.0,-323.0,251.0,-63.0,-282.0,0.922064,-0.287329,0.259552,14732.0,-4544.0,3642.0,-8.0,-8.0,-4.0
2871.0,2812.0,2901.0,3143.0,3031.0,0.793335,-0.185791,-0.579712,-0.00647,-1.0,-1.0,-1.0,7365.0,-2286.0,1808.0,-189.0,67.0,-312.0,239.0,-70.0,-274.0,0.922215,-0.287288,0.258838,14720.0,-4632.0,3616.0,-13.0,-8.0,-5.0
2875.0,2807.0,2896.0,3151.0,3035.0,0.793213,-0.185913,-0.579834,-0.006531,-1.0,-1.0,-1.0,7367.0,-2299.0,1805.0,-188.0,55.0,-312.0,237.0,-81.0,-269.0,0.922292,-0.287364,0.258458,14760.0,-4670.0,3588.0,-7.0,-8.0,-3.0
2878.0,2811.0,2895.0,3147.0,3031.0,0.79303,-0.185913,-0.580078,-0.00647,0.0,-1.0,-1.0,7376.0,-2295.0,1807.0,-180.0,59.0,-305.0,234.0,-74.0,-261.0,0.922444,-0.287363,0.257884,14778.0,-4522.0,3656.0,5.0,-6.0,-3.0
2875.0,2809.0,2895.0,3147.0,3031.0,0.792908,-0.185913,-0.5802,-0.006531,-1.0,-1.0,-1.0,7375.0,-2282.0,1802.0,-182.0,71.0,-307.0,238.0,-64.0,-267.0,0.922519,-0.287246,0.257549,14742.0,-4540.0,3576.0,-3.0,-6.0,-5.0
2869.0,2811.0,2864.0,3143.0,3029.0,0.792786,-0.185913,-0.580444,-0.006592,0.0,-1.0,-1.0,7375.0,-2274.0,1792.0,-184.0,78.0,-313.0,244.0,-59.0,-272.0,0.922787,-0.287126,0.257073,14702.0,-4514.0,3512.0,7.0,-2.0,-3.0
2873.0,2811.0,2896.0,3143.0,3031.0,0.792664,-0.185913,-0.580566,-0.006592,0.0,-1.0,-1.0,7374.0,-2253.0,1782.0,-185.0,98.0,-321.0,256.0,-43.0,-281.0,0.922839,-0.287079,0.256738,14768.0,-4378.0,3516.0,4.0,-3.0,-6.0
2871.0,2811.0,2896.0,3147.0,3035.0,0.792542,-0.185913,-0.580811,-0.006714,-1.0,0.0,0.0,7374.0,-2223.0,1777.0,-188.0,127.0,-322.0,263.0,-17.0,-292.0,0.923129,-0.286889,0.256263,14772.0,-4368.0,3510.0,-12.0,1.0,0.0
2871.0,2813.0,2896.0,3141.0,3034.0,0.792419,-0.185974,-0.580872,-0.006775,-1.0,-1.0,0.0,7372.0,-2221.0,1774.0,-190.0,129.0,-322.0,263.0,-16.0,-294.0,0.923108,-0.286868,0.255976,14716.0,-4444.0,3520.0,-17.0,-1.0,3.0
2871.0,2807.0,2895.0,3143.0,3027.0,0.792236,-0.186157,-0.581116,-0.006836,-1.0,-1.0,0.0,7378.0,-2254.0,1781.0,-185.0,97.0,-310.0,246.0,-41.0,-277.0,0.923307,-0.287016,0.255335,14782.0,-4632.0,3586.0,-5.0,-4.0,8.0
2873.0,2811.0,2895.0,3149.0,3039.0,0.792175,-0.186157,-0.581177,-0.006714,0.0,0.0,0.0,7369.0,-2269.0,1795.0,-194.0,83.0,-295.0,226.0,-51.0,-278.0,0.923287,-0.287134,0.255166,14614.0,-4586.0,3680.0,13.0,2.0,12.0
2875.0,2814.0,2897.0,3149.0,3031.0,0.792053,-0.186279,-0.58136,-0.006531,0.0,-1.0,0.0,7357.0,-2269.0,1810.0,-207.0,86.0,-276.0,205.0,-46.0,-286.0,0.923369,-0.287493,0.254712,14690.0,-4566.0,3660.0,5.0,-15.0,20.0
2873.0,2811.0,2896.0,3139.0,3029.0,0.791931,-0.186279,-0.581482,-0.006348,0.0,-1.0,1.0,7362.0,-2287.0,1817.0,-202.0,69.0,-266.0,194.0,-57.0,-274.0,0.923352,-0.287659,0.254374,14758.0,-4696.0,3708.0,16.0,-18.0,25.0
2874.0,2811.0,2896.0,3147.0,3031.0,0.791809,-0.186218,-0.581665,-0.005859,2.0,-1.0,1.0,7372.0,-2303.0,1823.0,-191.0,56.0,-257.0,187.0,-65.0,-257.0,0.923318,-0.288082,0.253985,14730.0,-4484.0,3578.0,54.0,-12.0,25.0
2873.0,2814.0,2896.0,3121.0,3027.0,0.791748,-0.186035,-0.581787,-0.005615,2.0,-1.0,0.0,7375.0,-2268.0,1816.0,-189.0,91.0,-263.0,201.0,-33.0,-267.0,0.923347,-0.288052,0.253811,14790.0,-4330.0,3584.0,55.0,-13.0,20.0
2871.0,2815.0,2899.0,3143.0,3037.0,0.791626,-0.185852,-0.582031,-0.00531,0.0,-1.0,0.0,7367.0,-2236.0,1814.0,-198.0,123.0,-261.0,203.0,-5.0,-284.0,0.923476,-0.288069,0.253398,14636.0,-4456.0,3620.0,17.0,-11.0,8.0
2871.0,2807.0,2895.0,3143.0,3027.0,0.791504,-0.185852,-0.582153,-0.00531,-1.0,-1.0,0.0,7354.0,-2252.0,1809.0,-211.0,107.0,-264.0,198.0,-23.0,-292.0,0.923527,-0.288023,0.253063,14636.0,-4632.0,3622.0,-1.0,-19.0,1.0
2871.0,2811.0,2895.0,3138.0,3029.0,0.79126,-0.185852,-0.58252,-0.00531,0.0,-1.0,-1.0,7365.0,-2299.0,1797.0,-202.0,59.0,-269.0,195.0,-67.0,-271.0,0.923822,-0.287928,0.25225,14814.0,-4686.0,3554.0,5.0,-22.0,-12.0
2871.0,2811.0,2896.0,3143.0,3035.0,0.791138,-0.185852,-0.582703,-0.00531,0.0,-1.0,-1.0,7367.0,-2310.0,1792.0,-202.0,48.0,-271.0,195.0,-78.0,-268.0,0.92397,-0.287881,0.251844,14720.0,-4672.0,3558.0,5.0,-14.0,-13.0
2871.0,2809.0,2895.0,3143.0,3029.0,0.790894,-0.185852,-0.583008,-0.005432,-1.0,-1.0,-1.0,7382.0,-2291.0,1779.0,-189.0,65.0,-278.0,209.0,-62.0,-263.0,0.924213,-0.287644,0.251103,14842.0,-4592.0,3556.0,-13.0,-8.0,-13.0
2873.0,2810.0,2896.0,3143.0,3031.0,0.790833,-0.185913,-0.583069,-0.005493,-1.0,0.0,-1.0,7390.0,-2300.0,1761.0,-181.0,56.0,-294.0,225.0,-73.0,-257.0,0.924262,-0.287646,0.250913,14808.0,-4660.0,3362.0,-11.0,5.0,-11.0
2869.0,2811.0,2896.0,3147.0,3038.0,0.79071,-0.185913,-0.583252,-0.005554,0.0,0.0,-1.0,7390.0,-2282.0,1737.0,-182.0,73.0,-315.0,248.0,-64.0,-268.0,0.924432,-0.287528,0.250507,14824.0,-4452.0,3408.0,6.0,5.0,-3.0
2875.0,2810.0,2895.0,3147.0,3035.0,0.790649,-0.185913,-0.583313,-0.005615,0.0,0.0,-1.0,7394.0,-2256.0,1729.0,-179.0,98.0,-321.0,260.0,-42.0,-274.0,0.92448,-0.287433,0.25034,14772.0,-4354.0,3398.0,5.0,12.0,-5.0
2883.0,2810.0,2896.0,3143.0,3031.0,0.790527,-0.185913,-0.583496,-0.005737,-1.0,0.0,0.0,7366.0,-2234.0,1722.0,-208.0,119.0,-325.0,259.0,-30.0,-307.0,0.924672,-0.287243,0.249935,14630.0,-4456.0,3380.0,-12.0,5.0,0.0
2873.0,2811.0,2891.0,3139.0,3029.0,0.790466,-0.185974,-0.583557,-0.005737,-1.0,-1.0,0.0,7367.0,-2237.0,1731.0,-208.0,116.0,-314.0,248.0,-29.0,-304.0,0.924698,-0.287316,0.249745,14740.0,-4512.0,3546.0,-6.0,-1.0,2.0
2874.0,2807.0,2897.0,3143.0,3038.0,0.790344,-0.185974,-0.58374,-0.005737,0.0,0.0,0.0,7383.0,-2233.0,1749.0,-193.0,120.0,-293.0,235.0,-16.0,-286.0,0.924845,-0.287269,0.249338,14780.0,-4390.0,3478.0,9.0,1.0,3.0
2871.0,2815.0,2903.0,3149.0,3038.0,0.790283,-0.185913,-0.583801,-0.005737,0.0,0.0,0.0,7392.0,-2231.0,1757.0,-184.0,121.0,-284.0,230.0,-11.0,-275.0,0.92487,-0.287149,0.249193,14844.0,-4508.0,3610.0,7.0,1.0,4.0
2875.0,2811.0,2895.0,3143.0,3037.0,0.790222,-0.185913,-0.583923,-0.005676,0.0,0.0,0.0,7395.0,-2235.0,1774.0,-182.0,117.0,-265.0,212.0,-8.0,-267.0,0.924969,-0.287196,0.248953,14770.0,-4516.0,3586.0,9.0,5.0,7.0
2870.0,2807.0,2895.0,3147.0,3034.0,0.790222,-0.185852,-0.583984,-0.005615,0.0,0.0,0.0,7402.0,-2238.0,1774.0,-175.0,114.0,-265.0,214.0,-9.0,-260.0,0.925042,-0.28717,0.248904,14850.0,-4484.0,3558.0,12.0,8.0,7.0
2870.0,2806.0,2892.0,3135.0,3035.0,0.790222,-0.185791,-0.583923,-0.005615,0.0,0.0,0.0,7384.0,-2219.0,1789.0,-193.0,132.0,-250.0,198.0,7.0,-278.0,0.924945,-0.287075,0.248998,14660.0,-4336.0,3652.0,3.0,19.0,4.0
2871.0,2810.0,2897.0,3143.0,3035.0,0.790222,-0.185852,-0.583923,-0.005615,-1.0,0.0,0.0,7379.0,-2227.0,1802.0,-198.0,125.0,-237.0,183.0,3.0,-278.0,0.924946,-0.287171,0.248975,14764.0,-4548.0,3708.0,-17.0,12.0,9.0
2869.0,2813.0,2895.0,3142.0,3025.0,0.790161,-0.186096,-0.583923,-0.005615,-1.0,0.0,0.0,7343.0,-2283.0,1814.0,-233.0,72.0,-224.0,148.0,-48.0,-291.0,0.924877,-0.287534,0.248788,14476.0,-4748.0,3618.0,-10.0,5.0,8.0
2871.0,2811.0,2896.0,3123.0,3037.0,0.7901,-0.186218,-0.583984,-0.005554,-1.0,-1.0,0.0,7329.0,-2309.0,1815.0,-247.0,48.0,-221.0,135.0,-73.0,-297.0,0.924881,-0.287775,0.248574,14634.0,-4772.0,3650.0,-3.0,-19.0,11.0
2875.0,2806.0,2891.0,3183.0,3031.0,0.789917,-0.186218,-0.584229,-0.00531,1.0,-2.0,0.0,7346.0,-2324.0,1820.0,-231.0,35.0,-211.0,128.0,-79.0,-276.0,0.924962,-0.287989,0.247997,14744.0,-4610.0,3608.0,25.0,-24.0,5.0
2871.0,2811.0,2895.0,3147.0,3035.0,0.789795,-0.186157,-0.584412,-0.005188,0.0,-1.0,-1.0,7359.0,-2311.0,1817.0,-219.0,48.0,-211.0,135.0,-64.0,-268.0,0.925062,-0.287988,0.247611,14834.0,-4538.0,3642.0,21.0,-21.0,-2.0
2871.0,2815.0,2896.0,3143.0,3025.0,0.789673,-0.186035,-0.584595,-0.005188,0.0,0.0,-1.0,7384.0,-2286.0,1800.0,-195.0,71.0,-225.0,161.0,-42.0,-256.0,0.925207,-0.287748,0.24725,14764.0,-4520.0,3524.0,5.0,6.0,-4.0
2874.0,2807.0,2896.0,3145.0,3031.0,0.789673,-0.186035,-0.584656,-0.005188,0.0,0.0,-1.0,7380.0,-2285.0,1788.0,-200.0,72.0,-236.0,170.0,-45.0,-264.0,0.925304,-0.287747,0.247179,14738.0,-4592.0,3526.0,4.0,9.0,-5.0
2877.0,2807.0,2897.0,3143.0,3037.0,0.789612,-0.185974,-0.584717,-0.005188,0.0,0.0,0.0,7372.0,-2269.0,1781.0,-208.0,87.0,-242.0,176.0,-35.0,-277.0,0.925328,-0.287628,0.247034,14726.0,-4436.0,3546.0,13.0,9.0,1.0
2875.0,2807.0,2897.0,3143.0,3036.0,0.789612,-0.185913,-0.584717,-0.005188,0.0,0.0,0.0,7386.0,-2252.0,1789.0,-194.0,103.0,-234.0,177.0,-14.0,-266.0,0.925328,-0.287531,0.247056,14950.0,-4412.0,3662.0,8.0,6.0,1.0
2871.0,2807.0,2899.0,3135.0,3031.0,0.789551,-0.185974,-0.584839,-0.005249,-1.0,0.0,0.0,7377.0,-2225.0,1773.0,-204.0,130.0,-248.0,193.0,3.0,-287.0,0.925472,-0.287532,0.246795,14792.0,-4450.0,3490.0,-13.0,10.0,4.0
2871.0,2811.0,2899.0,3135.0,3031.0,0.78949,-0.186035,-0.584839,-0.005249,-1.0,0.0,0.0,7373.0,-2236.0,1768.0,-207.0,120.0,-252.0,193.0,-7.0,-288.0,0.925402,-0.287606,0.246676,14730.0,-4530.0,3558.0,-12.0,9.0,7.0
2869.0,2809.0,2895.0,3135.0,3019.0,0.789429,-0.186157,-0.5849,-0.005249,-1.0,-1.0,0.0,7369.0,-2232.0,1775.0,-212.0,125.0,-244.0,186.0,-1.0,-292.0,0.925428,-0.287775,0.246463,14768.0,-4412.0,3578.0,-5.0,0.0,9.0
2871.0,2813.0,2899.0,3135.0,3029.0,0.789368,-0.186218,-0.585022,-0.00531,-1.0,-1.0,0.0,7373.0,-2230.0,1779.0,-209.0,127.0,-237.0,181.0,3.0,-288.0,0.925573,-0.287776,0.246202,14764.0,-4472.0,3612.0,-7.0,-1.0,5.0
2867.0,2814.0,2895.0,3147.0,3031.0,0.789246,-0.186279,-0.585144,-0.00531,-1.0,-1.0,0.0,7385.0,-2254.0,1779.0,-197.0,103.0,-234.0,176.0,-15.0,-269.0,0.925623,-0.287826,0.245843,14820.0,-4608.0,3574.0,-1.0,-1.0,4.0
2869.0,2807.0,2895.0,3141.0,3039.0,0.789185,-0.186279,-0.585205,-0.005249,0.0,0.0,0.0,7392.0,-2260.0,1777.0,-190.0,98.0,-235.0,178.0,-19.0,-261.0,0.925625,-0.287874,0.245675,14810.0,-4538.0,3558.0,7.0,6.0,3.0
2873.0,2813.0,2901.0,3143.0,3037.0,0.789185,-0.186279,-0.585205,-0.00531,-1.0,0.0,0.0,7380.0,-2253.0,1770.0,-202.0,104.0,-242.0,182.0,-18.0,-276.0,0.925648,-0.287803,0.245676,14684.0,-4526.0,3532.0,-1.0,17.0,1.0
2875.0,2811.0,2896.0,3145.0,3031.0,0.789185,-0.186279,-0.585205,-0.00531,-1.0,0.0,0.0,7368.0,-2261.0,1762.0,-214.0,96.0,-250.0,184.0,-30.0,-287.0,0.925648,-0.287803,0.245676,14694.0,-4578.0,3474.0,-1.0,12.0,3.0
2874.0,2810.0,2896.0,3147.0,3031.0,0.789185,-0.18634,-0.585205,-0.005249,0.0,0.0,0.0,7365.0,-2280.0,1758.0,-217.0,79.0,-254.0,183.0,-48.0,-286.0,0.925626,-0.28797,0.245652,14642.0,-4516.0,3528.0,11.0,20.0,3.0
2869.0,2815.0,2899.0,3143.0,3039.0,0.789185,-0.186279,-0.585205,-0.005249,0.0,0.0,0.0,7355.0,-2277.0,1767.0,-227.0,81.0,-245.0,172.0,-45.0,-293.0,0.925625,-0.287874,0.245675,14662.0,-4514.0,3614.0,5.0,21.0,3.0
2875.0,2811.0,2897.0,3143.0,3045.0,0.789246,-0.18634,-0.585083,-0.005249,-1.0,0.0,0.0,7349.0,-2278.0,1780.0,-232.0,81.0,-234.0,160.0,-43.0,-295.0,0.925505,-0.287994,0.245891,14666.0,-4536.0,3560.0,0.0,22.0,5.0
2867.0,2810.0,2895.0,3151.0,3043.0,0.789246,-0.186401,-0.585083,-0.005249,-1.0,0.0,0.0,7350.0,-2272.0,1790.0,-231.0,88.0,-224.0,153.0,-33.0,-294.0,0.925505,-0.288091,0.245869,14734.0,-4514.0,3638.0,-7.0,13.0,2.0
2877.0,2806.0,2899.0,3135.0,3037.0,0.789246,-0.186462,-0.585083,-0.005371,-1.0,0.0,-1.0,7380.0,-2269.0,1822.0,-202.0,90.0,-191.0,132.0,-16.0,-259.0,0.925551,-0.288044,0.245847,14828.0,-4576.0,3714.0,-5.0,17.0,-1.0
2874.0,2812.0,2897.0,3143.0,3027.0,0.789307,-0.186462,-0.585022,-0.005371,-1.0,0.0,-1.0,7371.0,-2265.0,1823.0,-210.0,94.0,-192.0,131.0,-14.0,-268.0,0.925526,-0.288068,0.246015,14658.0,-4500.0,3648.0,-3.0,20.0,-4.0
2875.0,2813.0,2897.0,3143.0,3031.0,0.789246,-0.186523,-0.585022,-0.005493,-1.0,0.0,0.0,7366.0,-2274.0,1825.0,-215.0,85.0,-189.0,125.0,-22.0,-269.0,0.925501,-0.287998,0.245897,14776.0,-4586.0,3676.0,-5.0,7.0,1.0
2875.0,2806.0,2895.0,3147.0,3037.0,0.789246,-0.186523,-0.585022,-0.005493,-1.0,0.0,0.0,7376.0,-2279.0,1828.0,-205.0,80.0,-186.0,124.0,-24.0,-258.0,0.925501,-0.287998,0.245897,14782.0,-4564.0,3648.0,0.0,10.0,2.0
2863.0,2807.0,2896.0,3135.0,3035.0,0.789246,-0.186523,-0.585022,-0.005432,0.0,0.0,0.0,7352.0,-2268.0,1833.0,-229.0,91.0,-181.0,115.0,-17.0,-282.0,0.925478,-0.28807,0.245896,14634.0,-4494.0,3692.0,3.0,2.0,4.0
2864.0,2810.0,2896.0,3147.0,3039.0,0.789185,-0.186523,-0.585083,-0.005432,-1.0,-1.0,0.0,7355.0,-2266.0,1836.0,-226.0,93.0,-177.0,112.0,-14.0,-279.0,0.925503,-0.288046,0.245729,14752.0,-4530.0,3696.0,-2.0,-4.0,2.0
2875.0,2815.0,2895.0,3143.0,3031.0,0.789124,-0.186523,-0.585144,-0.005371,0.0,0.0,0.0,7370.0,-2276.0,1832.0,-211.0,84.0,-179.0,117.0,-19.0,-263.0,0.925506,-0.288094,0.24556,14754.0,-4556.0,3630.0,9.0,1.0,7.0
2867.0,2811.0,2898.0,3143.0,3029.0,0.789124,-0.186523,-0.585205,-0.00531,0.0,0.0,0.0,7373.0,-2272.0,1826.0,-209.0,88.0,-185.0,124.0,-17.0,-264.0,0.925579,-0.288165,0.245488,14762.0,-4504.0,3646.0,10.0,2.0,7.0
2871.0,2815.0,2897.0,3139.0,3031.0,0.789062,-0.186584,-0.585266,-0.00531,-1.0,-1.0,0.0,7367.0,-2258.0,1830.0,-215.0,103.0,-179.0,120.0,-3.0,-272.0,0.925605,-0.288238,0.245298,14722.0,-4502.0,3686.0,-8.0,0.0,4.0
2877.0,2811.0,2899.0,3143.0,3039.0,0.789001,-0.186646,-0.585327,-0.005371,-1.0,0.0,0.0,7367.0,-2258.0,1822.0,-215.0,103.0,-185.0,126.0,-4.0,-274.0,0.925653,-0.288239,0.245108,14758.0,-4532.0,3578.0,-14.0,4.0,2.0
2871.0,2811.0,2895.0,3139.0,3029.0,0.788879,-0.186768,-0.585388,-0.005493,-1.0,0.0,0.0,7367.0,-2275.0,1821.0,-215.0,86.0,-184.0,121.0,-20.0,-268.0,0.925653,-0.288243,0.244799,14734.0,-4654.0,3632.0,-15.0,2.0,0.0
2871.0,2811.0,2895.0,3143.0,3037.0,0.788879,-0.186829,-0.585449,-0.005493,-1.0,0.0,0.0,7363.0,-2275.0,1813.0,-220.0,87.0,-191.0,126.0,-22.0,-275.0,0.92575,-0.288339,0.244705,14686.0,-4542.0,3602.0,-7.0,4.0,2.0
2870.0,2810.0,2896.0,3147.0,3027.0,0.788818,-0.186951,-0.58551,-0.005615,-1.0,0.0,0.0,7374.0,-2271.0,1821.0,-210.0,91.0,-181.0,121.0,-14.0,-264.0,0.925822,-0.288365,0.244493,14798.0,-4578.0,3650.0,-13.0,5.0,0.0
2869.0,2810.0,2894.0,3143.0,3030.0,0.788757,-0.187012,-0.58551,-0.005615,-1.0,0.0,-1.0,7369.0,-2274.0,1822.0,-214.0,88.0,-179.0,117.0,-17.0,-267.0,0.925751,-0.288438,0.244374,14694.0,-4564.0,3682.0,-7.0,10.0,-1.0
2871.0,2811.0,2897.0,3143.0,3027.0,0.788757,-0.187012,-0.585571,-0.005676,0.0,0.0,0.0,7356.0,-2272.0,1815.0,-228.0,90.0,-186.0,120.0,-20.0,-282.0,0.92587,-0.288366,0.244303,14680.0,-4506.0,3600.0,5.0,7.0,2.0
2877.0,2813.0,2893.0,3151.0,3027.0,0.788757,-0.187012,-0.585571,-0.005676,0.0,0.0,0.0,7346.0,-2249.0,1810.0,-238.0,113.0,-191.0,127.0,-2.0,-299.0,0.92587,-0.288366,0.244303,14640.0,-4344.0,3562.0,5.0,3.0,2.0
2867.0,2813.0,2896.0,3141.0,3027.0,0.788635,-0.187012,-0.585693,-0.005676,-1.0,-1.0,0.0,7366.0,-2239.0,1841.0,-219.0,122.0,-157.0,103.0,20.0,-276.0,0.92592,-0.288319,0.243968,14786.0,-4494.0,3816.0,-11.0,-4.0,10.0
2869.0,2815.0,2897.0,3151.0,3031.0,0.788635,-0.187073,-0.585693,-0.005676,-1.0,-1.0,0.0,7366.0,-2242.0,1847.0,-219.0,120.0,-151.0,97.0,20.0,-274.0,0.925921,-0.288415,0.243945,14726.0,-4502.0,3722.0,-10.0,-1.0,9.0
2874.0,2812.0,2897.0,3142.0,3035.0,0.788574,-0.187134,-0.585754,-0.005676,-1.0,-1.0,0.0,7369.0,-2258.0,1850.0,-216.0,105.0,-146.0,90.0,8.0,-265.0,0.925946,-0.288488,0.243754,14724.0,-4564.0,3666.0,0.0,-2.0,2.0
2875.0,2807.0,2896.0,3141.0,3039.0,0.788513,-0.187134,-0.585815,-0.005676,0.0,-1.0,0.0,7360.0,-2269.0,1845.0,-225.0,94.0,-150.0,89.0,-5.0,-271.0,0.925971,-0.288464,0.243586,14678.0,-4604.0,3624.0,2.0,-5.0,3.0
2866.0,2805.0,2895.0,3135.0,3031.0,0.788391,-0.187134,-0.585938,-0.005615,0.0,-1.0,0.0,7362.0,-2274.0,1848.0,-223.0,89.0,-144.0,83.0,-7.0,-267.0,0.925997,-0.288489,0.24325,14748.0,-4520.0,3688.0,6.0,-7.0,3.0
2870.0,2807.0,2891.0,3143.0,3031.0,0.788391,-0.187134,-0.585999,-0.005615,0.0,-1.0,-1.0,7362.0,-2264.0,1843.0,-224.0,99.0,-149.0,89.0,0.0,-272.0,0.926094,-0.288488,0.243179,14708.0,-4472.0,3652.0,4.0,-6.0,-1.0
2870.0,2806.0,2896.0,3143.0,3035.0,0.788269,-0.187134,-0.586182,-0.005615,0.0,-1.0,0.0,7361.0,-2271.0,1818.0,-226.0,91.0,-170.0,106.0,-14.0,-276.0,0.926239,-0.28844,0.242772,14700.0,-4556.0,3550.0,3.0,-5.0,1.0
2874.0,2811.0,2895.0,3139.0,3043.0,0.788208,-0.187134,-0.586243,-0.005554,0.0,-1.0,0.0,7359.0,-2273.0,1812.0,-228.0,90.0,-175.0,110.0,-17.0,-279.0,0.926241,-0.288488,0.242603,14754.0,-4546.0,3648.0,3.0,-9.0,5.0
2873.0,2811.0,2895.0,3142.0,3038.0,0.788086,-0.187134,-0.586365,-0.005493,0.0,-1.0,0.0,7374.0,-2266.0,1817.0,-213.0,97.0,-167.0,109.0,-5.0,-265.0,0.926268,-0.288513,0.242267,14810.0,-4490.0,3628.0,6.0,-1.0,8.0
2873.0,2809.0,2896.0,3143.0,3031.0,0.788086,-0.187134,-0.586365,-0.005432,0.0,0.0,0.0,7368.0,-2262.0,1822.0,-219.0,102.0,-162.0,104.0,0.0,-271.0,0.926245,-0.288585,0.242266,14678.0,-4508.0,3696.0,1.0,4.0,6.0
2875.0,2811.0,2897.0,3149.0,3037.0,0.788025,-0.187256,-0.586426,-0.005432,-1.0,-1.0,0.0,7359.0,-2288.0,1822.0,-229.0,77.0,-160.0,93.0,-24.0,-273.0,0.926271,-0.288753,0.242053,14762.0,-4706.0,3622.0,-6.0,-6.0,4.0
2875.0,2811.0,2897.0,3135.0,3031.0,0.787964,-0.187256,-0.586487,-0.005432,0.0,-1.0,0.0,7366.0,-2293.0,1820.0,-222.0,72.0,-161.0,95.0,-28.0,-265.0,0.926295,-0.28873,0.241885,14778.0,-4568.0,3596.0,5.0,-7.0,0.0
2871.0,2811.0,2897.0,3150.0,3035.0,0.787903,-0.187195,-0.586609,-0.005432,0.0,-1.0,0.0,7366.0,-2272.0,1829.0,-223.0,92.0,-150.0,89.0,-6.0,-269.0,0.926415,-0.28861,0.241668,14684.0,-4454.0,3660.0,1.0,-7.0,2.0
2095.0,-0.59082,0.02124,1.0,0.0,0.0,7501.0,-483.0,2348.0,-295.0,14.0,-116.0,21.0,-5.0,-316.0,0.951716,-0.060724,0.300874,14996.0,-954.0,4772.0,24.0,2.0,11.0,,,,,,
2868.0,2807.0,2895.0,3139.0,3038.0,0.806274,-0.022034,-0.590698,0.021362,-1.0,0.0,0.0,7475.0,-488.0,2365.0,-320.0,9.0,-101.0,0.0,-11.0,-335.0,0.951588,-0.060768,0.301125,14886.0,-1186.0,4686.0,-3.0,8.0,6.0
2867.0,2806.0,2895.0,3141.0,3031.0,0.806274,-0.022156,-0.590698,0.021423,-1.0,0.0,0.0,7461.0,-510.0,2363.0,-334.0,-9.0,-103.0,-2.0,-30.0,-348.0,0.95158,-0.061037,0.301122,14810.0,-1148.0,4704.0,-2.0,5.0,9.0
2865.0,2803.0,2891.0,3143.0,3037.0,0.806335,-0.022034,-0.590698,0.021545,1.0,-1.0,-1.0,7441.0,-512.0,2352.0,-354.0,-12.0,-115.0,3.0,-34.0,-370.0,0.951652,-0.060987,0.301231,14864.0,-962.0,4688.0,28.0,-1.0,-12.0
2867.0,2807.0,2895.0,3147.0,3030.0,0.806274,-0.021851,-0.590698,0.021545,1.0,-1.0,-1.0,7437.0,-486.0,2354.0,-358.0,11.0,-112.0,-1.0,-11.0,-375.0,0.951588,-0.060689,0.301141,14854.0,-808.0,4740.0,26.0,-5.0,-20.0
2866.0,2806.0,2895.0,3143.0,3027.0,0.806274,-0.021545,-0.590759,0.021423,0.0,-1.0,-1.0,7454.0,-449.0,2358.0,-342.0,42.0,-108.0,0.0,20.0,-360.0,0.951705,-0.060055,0.301077,15042.0,-814.0,4808.0,6.0,-6.0,-14.0
2864.0,2801.0,2901.0,3143.0,3029.0,0.806274,-0.021484,-0.590759,0.021362,0.0,0.0,-1.0,7471.0,-438.0,2365.0,-325.0,52.0,-101.0,-2.0,31.0,-342.0,0.95171,-0.059885,0.301077,15024.0,-802.0,4732.0,8.0,9.0,-15.0
2867.0,2811.0,2895.0,3143.0,3034.0,0.806396,-0.021179,-0.590576,0.021179,0.0,0.0,-1.0,7467.0,-383.0,2376.0,-328.0,101.0,-93.0,-11.0,80.0,-346.0,0.95158,-0.059174,0.301495,14930.0,-584.0,4856.0,6.0,18.0,-17.0
2867.0,2807.0,2895.0,3143.0,3039.0,0.806458,-0.021118,-0.590515,0.021118,-1.0,0.0,-1.0,7465.0,-366.0,2395.0,-330.0,117.0,-76.0,-28.0,96.0,-343.0,0.951559,-0.059003,0.301666,14934.0,-652.0,4960.0,-11.0,16.0,-8.0
2870.0,2811.0,2894.0,3149.0,3031.0,0.80658,-0.021179,-0.590332,0.020996,-1.0,0.0,0.0,7457.0,-401.0,2406.0,-336.0,81.0,-68.0,-37.0,60.0,-344.0,0.95141,-0.058955,0.302071,14928.0,-1004.0,4832.0,-5.0,3.0,2.0
2871.0,2807.0,2894.0,3143.0,3029.0,0.80658,-0.021118,-0.590332,0.020996,0.0,0.0,-1.0,7470.0,-423.0,2415.0,-323.0,59.0,-59.0,-41.0,39.0,-328.0,0.951413,-0.058856,0.302074,15022.0,-906.0,4900.0,17.0,1.0,-1.0
2867.0,2807.0,2896.0,3143.0,3031.0,0.806702,-0.020935,-0.59021,0.021118,0.0,0.0,-1.0,7500.0,-405.0,2441.0,-293.0,75.0,-36.0,-54.0,57.0,-294.0,0.951362,-0.058705,0.302427,15086.0,-734.0,4876.0,15.0,11.0,-1.0
2866.0,2805.0,2896.0,3141.0,3031.0,0.806763,-0.020813,-0.590149,0.021057,0.0,0.0,-1.0,7504.0,-411.0,2444.0,-289.0,67.0,-34.0,-55.0,49.0,-289.0,0.951344,-0.058436,0.3026,15020.0,-918.0,4862.0,5.0,11.0,-2.0
2867.0,2807.0,2896.0,3143.0,3031.0,0.806824,-0.020813,-0.590088,0.021118,0.0,0.0,-1.0,7497.0,-465.0,2415.0,-296.0,14.0,-65.0,-27.0,-3.0,-302.0,0.951315,-0.058508,0.302774,15000.0,-1052.0,4786.0,17.0,6.0,-4.0
2867.0,2807.0,2896.0,3139.0,3035.0,0.806824,-0.020691,-0.590027,0.021179,1.0,0.0,-1.0,7510.0,-469.0,2415.0,-282.0,9.0,-65.0,-23.0,-8.0,-288.0,0.951219,-0.05838,0.302853,15096.0,-926.0,4810.0,25.0,4.0,-12.0
2865.0,2807.0,2897.0,3143.0,3031.0,0.806885,-0.020386,-0.590027,0.021179,0.0,-1.0,-1.0,7507.0,-438.0,2425.0,-286.0,36.0,-56.0,-33.0,18.0,-291.0,0.951304,-0.05789,0.302964,15048.0,-712.0,4934.0,7.0,-5.0,-15.0
2870.0,2815.0,2897.0,3143.0,3039.0,0.806824,-0.020386,-0.590027,0.021057,-1.0,-1.0,-1.0,7522.0,-427.0,2432.0,-270.0,46.0,-49.0,-35.0,29.0,-274.0,0.951237,-0.057744,0.302861,15196.0,-812.0,4920.0,-12.0,-13.0,-14.0
2869.0,2807.0,2896.0,3143.0,3031.0,0.806763,-0.020325,-0.590088,0.020874,-1.0,-1.0,-1.0,7542.0,-432.0,2431.0,-250.0,38.0,-48.0,-30.0,23.0,-254.0,0.951273,-0.057429,0.302685,15082.0,-796.0,4852.0,-1.0,-12.0,-17.0
2867.0,2807.0,2897.0,3139.0,3027.0,0.806763,-0.020203,-0.590149,0.020752,0.0,-1.0,-1.0,7548.0,-415.0,2431.0,-245.0,52.0,-48.0,-28.0,37.0,-250.0,0.951382,-0.057091,0.302613,15150.0,-694.0,4850.0,1.0,-18.0,-19.0
2867.0,2810.0,2896.0,3143.0,3031.0,0.806641,-0.020081,-0.590332,0.020569,-1.0,-1.0,-1.0,7547.0,-363.0,2443.0,-248.0,101.0,-32.0,-45.0,86.0,-251.0,0.951546,-0.056681,0.302197,15058.0,-650.0,4948.0,-10.0,-22.0,-8.0
2874.0,2805.0,2897.0,3143.0,3035.0,0.80658,-0.020081,-0.590393,0.020508,-1.0,-2.0,0.0,7549.0,-346.0,2449.0,-246.0,117.0,-25.0,-51.0,102.0,-248.0,0.951574,-0.056608,0.302024,15140.0,-578.0,4932.0,-12.0,-25.0,6.0
2869.0,2811.0,2895.0,3143.0,3039.0,0.806458,-0.020142,-0.590576,0.020447,-1.0,-1.0,0.0,7551.0,-356.0,2432.0,-245.0,107.0,-38.0,-38.0,92.0,-250.0,0.951726,-0.056637,0.301606,15048.0,-792.0,4776.0,-6.0,-16.0,13.0
2869.0,2807.0,2896.0,3135.0,3031.0,0.806458,-0.020142,-0.590637,0.020508,0.0,-1.0,0.0,7545.0,-386.0,2409.0,-252.0,78.0,-61.0,-18.0,63.0,-262.0,0.951822,-0.056712,0.301536,15056.0,-948.0,4708.0,2.0,-13.0,13.0
2867.0,2807.0,2895.0,3135.0,3035.0,0.806335,-0.020081,-0.590759,0.020752,1.0,-1.0,0.0,7526.0,-410.0,2375.0,-271.0,56.0,-92.0,5.0,39.0,-288.0,0.951867,-0.056902,0.301208,15000.0,-794.0,4670.0,23.0,-8.0,7.0
2867.0,2807.0,2896.0,3139.0,3039.0,0.806335,-0.02002,-0.590759,0.020813,0.0,-1.0,0.0,7516.0,-404.0,2368.0,-281.0,61.0,-99.0,9.0,44.0,-300.0,0.951867,-0.056876,0.301213,14952.0,-782.0,4704.0,7.0,-6.0,8.0
2866.0,2811.0,2896.0,3147.0,3033.0,0.806274,-0.020142,-0.59082,0.020813,-1.0,-1.0,0.0,7517.0,-437.0,2345.0,-280.0,30.0,-121.0,30.0,12.0,-304.0,0.951888,-0.057073,0.301037,15034.0,-1018.0,4590.0,-8.0,0.0,5.0
2867.0,2811.0,2896.0,3135.0,3035.0,0.806274,-0.020142,-0.59082,0.020813,0.0,0.0,0.0,7507.0,-436.0,2338.0,-290.0,31.0,-128.0,34.0,13.0,-316.0,0.951888,-0.057073,0.301037,14936.0,-816.0,4622.0,2.0,5.0,0.0
2866.0,2807.0,2895.0,3135.0,3035.0,0.806274,-0.020081,-0.59082,0.020813,0.0,0.0,0.0,7505.0,-442.0,2342.0,-292.0,24.0,-124.0,30.0,6.0,-316.0,0.951891,-0.056974,0.30104,14982.0,-928.0,4730.0,9.0,8.0,2.0
2867.0,2813.0,2899.0,3143.0,3025.0,0.806335,-0.020081,-0.590759,0.020874,0.0,0.0,0.0,7494.0,-428.0,2352.0,-303.0,39.0,-115.0,18.0,20.0,-325.0,0.951862,-0.057046,0.301213,14898.0,-716.0,4758.0,17.0,15.0,8.0
2869.0,2810.0,2887.0,3151.0,3031.0,0.806396,-0.02002,-0.590637,0.020935,0.0,0.0,0.0,7477.0,-400.0,2358.0,-319.0,67.0,-111.0,9.0,47.0,-340.0,0.951737,-0.057017,0.30146,14908.0,-786.0,4672.0,1.0,11.0,14.0
2867.0,2803.0,2889.0,3135.0,3039.0,0.806396,-0.02002,-0.590637,0.020996,0.0,0.0,0.0,7470.0,-404.0,2361.0,-326.0,63.0,-108.0,4.0,43.0,-346.0,0.951735,-0.05709,0.301463,14890.0,-848.0,4768.0,1.0,7.0,17.0
2874.0,2802.0,2893.0,3147.0,3035.0,0.806396,-0.020081,-0.590637,0.021179,0.0,-1.0,0.0,7459.0,-404.0,2381.0,-337.0,66.0,-88.0,-18.0,45.0,-351.0,0.951725,-0.057404,0.301468,14940.0,-856.0,4816.0,1.0,-10.0,13.0
2870.0,2807.0,2896.0,3143.0,3038.0,0.806396,-0.020081,-0.590637,0.021179,0.0,-1.0,0.0,7466.0,-407.0,2391.0,-330.0,63.0,-78.0,-25.0,43.0,-341.0,0.951725,-0.057404,0.301468,14964.0,-798.0,4802.0,3.0,-12.0,5.0
2871.0,2805.0,2896.0,3143.0,3039.0,0.806335,-0.02002,-0.590759,0.021118,-1.0,-1.0,-1.0,7478.0,-418.0,2380.0,-319.0,50.0,-87.0,-13.0,30.0,-332.0,0.951855,-0.057236,0.301226,14968.0,-876.0,4748.0,0.0,-13.0,-10.0
2871.0,2807.0,2895.0,3147.0,3031.0,0.806274,-0.02002,-0.59082,0.021057,-1.0,-1.0,-1.0,7479.0,-431.0,2372.0,-318.0,37.0,-94.0,-6.0,17.0,-333.0,0.951883,-0.057164,0.301052,14958.0,-952.0,4724.0,-1.0,-14.0,-7.0
2874.0,2807.0,2895.0,3143.0,3023.0,0.806152,-0.019958,-0.590942,0.021118,0.0,-1.0,-1.0,7473.0,-451.0,2369.0,-325.0,17.0,-94.0,-8.0,-2.0,-338.0,0.951936,-0.057138,0.300716,14898.0,-948.0,4726.0,8.0,-13.0,-1.0
2870.0,2811.0,2898.0,3147.0,3037.0,0.806152,-0.019897,-0.591003,0.021179,0.0,-1.0,-1.0,7464.0,-455.0,2368.0,-335.0,12.0,-94.0,-11.0,-8.0,-347.0,0.952035,-0.057115,0.300649,14864.0,-938.0,4720.0,11.0,-13.0,-1.0
2869.0,2813.0,2896.0,3147.0,3039.0,0.80603,-0.019897,-0.591125,0.021179,-1.0,-1.0,-1.0,7450.0,-458.0,2355.0,-349.0,9.0,-105.0,-4.0,-11.0,-364.0,0.952087,-0.057115,0.300308,14932.0,-978.0,4658.0,0.0,-21.0,-7.0
2871.0,2805.0,2895.0,3147.0,3039.0,0.805969,-0.019836,-0.591248,0.021179,0.0,-1.0,-1.0,7468.0,-470.0,2353.0,-332.0,-2.0,-105.0,0.0,-21.0,-347.0,0.952214,-0.057019,0.300068,15030.0,-978.0,4728.0,13.0,-15.0,-11.0
2869.0,2807.0,2899.0,3139.0,3031.0,0.805908,-0.019531,-0.591309,0.021057,0.0,-1.0,-1.0,7482.0,-408.0,2362.0,-318.0,53.0,-94.0,-6.0,34.0,-333.0,0.952258,-0.056383,0.299904,15026.0,-612.0,4748.0,5.0,-5.0,-21.0
2866.0,2807.0,2897.0,3143.0,3035.0,0.805908,-0.01947,-0.591309,0.020935,-1.0,0.0,-1.0,7501.0,-396.0,2370.0,-299.0,63.0,-86.0,-8.0,45.0,-314.0,0.952266,-0.056141,0.299901,15128.0,-738.0,4790.0,-13.0,1.0,-17.0
2870.0,2807.0,2896.0,3139.0,3035.0,0.80603,-0.01947,-0.591187,0.020752,0.0,0.0,-1.0,7507.0,-396.0,2377.0,-293.0,62.0,-82.0,-10.0,44.0,-307.0,0.95222,-0.055924,0.300235,14916.0,-686.0,4710.0,1.0,21.0,-5.0
2869.0,2806.0,2896.0,3135.0,3035.0,0.806091,-0.019409,-0.591125,0.020752,-1.0,0.0,-1.0,7492.0,-367.0,2376.0,-308.0,90.0,-84.0,-13.0,71.0,-323.0,0.952197,-0.055825,0.300408,14946.0,-554.0,4752.0,-2.0,7.0,-3.0
2867.0,2807.0,2893.0,3151.0,3035.0,0.806091,-0.019409,-0.591125,0.020569,-1.0,0.0,-1.0,7519.0,-364.0,2402.0,-281.0,91.0,-58.0,-29.0,74.0,-290.0,0.952204,-0.055609,0.3004,15150.0,-766.0,4908.0,-17.0,2.0,-2.0
2871.0,2807.0,2899.0,3147.0,3035.0,0.806152,-0.01947,-0.591064,0.020508,-1.0,0.0,-1.0,7526.0,-387.0,2404.0,-274.0,68.0,-58.0,-27.0,52.0,-282.0,0.952177,-0.055635,0.300566,15076.0,-910.0,4784.0,-8.0,8.0,-1.0
2867.0,2810.0,2887.0,3149.0,3035.0,0.806152,-0.019409,-0.591003,0.020508,0.0,-1.0,-1.0,7496.0,-390.0,2392.0,-303.0,64.0,-70.0,-24.0,46.0,-313.0,0.952082,-0.055534,0.30064,14898.0,-754.0,4764.0,6.0,-1.0,-6.0
2867.0,2805.0,2896.0,3111.0,3031.0,0.806152,-0.019348,-0.591003,0.020508,0.0,-1.0,-1.0,7511.0,-393.0,2400.0,-288.0,61.0,-62.0,-28.0,44.0,-296.0,0.952084,-0.055435,0.300643,15146.0,-828.0,4822.0,3.0,-8.0,-6.0
2867.0,2806.0,2895.0,3167.0,3035.0,0.806213,-0.019287,-0.590942,0.020386,-1.0,0.0,-1.0,7517.0,-405.0,2410.0,-282.0,47.0,-54.0,-33.0,30.0,-287.0,0.952065,-0.055193,0.300811,14970.0,-876.0,4848.0,-7.0,10.0,-4.0
2875.0,2811.0,2901.0,3143.0,3013.0,0.806274,-0.019348,-0.590881,0.020386,-1.0,0.0,-1.0,7510.0,-418.0,2407.0,-289.0,34.0,-58.0,-31.0,17.0,-294.0,0.952036,-0.055291,0.300979,14982.0,-916.0,4756.0,-8.0,11.0,-1.0
2867.0,2807.0,2896.0,3147.0,3035.0,0.806335,-0.019348,-0.590759,0.020386,0.0,0.0,-1.0,7507.0,-435.0,2397.0,-291.0,17.0,-70.0,-21.0,0.0,-299.0,0.951911,-0.055288,0.301222,15034.0,-976.0,4712.0,2.0,13.0,-1.0
2869.0,2807.0,2891.0,3135.0,3031.0,0.806396,-0.019348,-0.590698,0.020386,0.0,0.0,0.0,7494.0,-442.0,2389.0,-303.0,10.0,-80.0,-15.0,-7.0,-313.0,0.951885,-0.055288,0.301392,14912.0,-910.0,4734.0,15.0,16.0,0.0
2867.0,2803.0,2895.0,3143.0,3031.0,0.806519,-0.019104,-0.590515,0.020569,1.0,1.0,-1.0,7489.0,-453.0,2375.0,-307.0,-1.0,-97.0,0.0,-18.0,-321.0,0.951737,-0.055108,0.301822,14958.0,-946.0,4728.0,38.0,23.0,-2.0
2869.0,2812.0,2897.0,3143.0,3037.0,0.80658,-0.018921,-0.590454,0.020752,1.0,1.0,0.0,7482.0,-440.0,2362.0,-314.0,10.0,-112.0,11.0,-8.0,-333.0,0.951711,-0.055029,0.302007,14926.0,-784.0,4662.0,42.0,26.0,2.0
2871.0,2810.0,2899.0,3143.0,3035.0,0.806763,-0.018616,-0.59021,0.021057,1.0,1.0,0.0,7509.0,-445.0,2358.0,-285.0,4.0,-121.0,29.0,-12.0,-308.0,0.951535,-0.054893,0.302615,15176.0,-856.0,4780.0,45.0,38.0,11.0
2869.0,2807.0,2896.0,3143.0,3039.0,0.806885,-0.018433,-0.589966,0.02124,2.0,2.0,0.0,7526.0,-428.0,2360.0,-266.0,20.0,-123.0,36.0,4.0,-291.0,0.951286,-0.054808,0.303115,15144.0,-724.0,4748.0,49.0,54.0,8.0
2869.0,2801.0,2895.0,3147.0,3038.0,0.807312,-0.018066,-0.589417,0.02124,0.0,3.0,-1.0,7503.0,-362.0,2361.0,-286.0,82.0,-133.0,38.0,65.0,-316.0,0.950919,-0.054209,0.304466,14780.0,-494.0,4710.0,10.0,70.0,-13.0
2866.0,2811.0,2897.0,3141.0,3034.0,0.807495,-0.018066,-0.589233,0.021057,-2.0,1.0,-1.0,7461.0,-332.0,2362.0,-328.0,110.0,-136.0,28.0,91.0,-359.0,0.950845,-0.053992,0.304969,14700.0,-536.0,4736.0,-37.0,45.0,-15.0
2867.0,2810.0,2896.0,3147.0,3035.0,0.807617,-0.018433,-0.58905,0.02063,-2.0,0.0,-1.0,7448.0,-418.0,2398.0,-340.0,24.0,-103.0,-5.0,4.0,-355.0,0.950694,-0.054077,0.305351,14864.0,-1092.0,4912.0,-39.0,4.0,-9.0
2867.0,2807.0,2890.0,3143.0,3039.0,0.807617,-0.018494,-0.58905,0.020569,-1.0,-1.0,-1.0,7442.0,-437.0,2414.0,-346.0,6.0,-87.0,-22.0,-13.0,-355.0,0.950693,-0.054104,0.305346,14848.0,-924.0,4932.0,0.0,-9.0,-14.0
2867.0,2807.0,2898.0,3143.0,3031.0,0.807556,-0.018188,-0.589172,0.020508,0.0,-1.0,-1.0,7470.0,-384.0,2463.0,-319.0,54.0,-36.0,-63.0,36.0,-317.0,0.950833,-0.053542,0.305113,15058.0,-546.0,5090.0,18.0,-18.0,-15.0
2865.0,2805.0,2895.0,3147.0,3031.0,0.807556,-0.018066,-0.589172,0.020447,0.0,-1.0,-1.0,7494.0,-372.0,2467.0,-295.0,64.0,-32.0,-60.0,47.0,-293.0,0.950841,-0.053273,0.305115,15126.0,-718.0,4914.0,7.0,-4.0,-10.0
2867.0,2807.0,2896.0,3141.0,3039.0,0.807556,-0.017822,-0.589111,0.020447,0.0,0.0,-1.0,7506.0,-324.0,2449.0,-282.0,109.0,-51.0,-38.0,93.0,-289.0,0.950752,-0.052876,0.305195,15024.0,-470.0,4864.0,7.0,1.0,-4.0
2869.0,2806.0,2897.0,3139.0,3035.0,0.807556,-0.017761,-0.589111,0.020386,-1.0,-1.0,-1.0,7501.0,-309.0,2444.0,-287.0,122.0,-56.0,-35.0,106.0,-296.0,0.950757,-0.052705,0.305195,14962.0,-570.0,4838.0,-1.0,-6.0,-5.0
2866.0,2805.0,2894.0,3143.0,3031.0,0.807495,-0.0177,-0.589233,0.020325,-1.0,-1.0,0.0,7509.0,-322.0,2432.0,-280.0,108.0,-66.0,-23.0,92.0,-292.0,0.950887,-0.052538,0.304952,15092.0,-778.0,4832.0,-5.0,-15.0,6.0
2871.0,2811.0,2896.0,3143.0,3035.0,0.807434,-0.017761,-0.589294,0.020325,-1.0,-1.0,0.0,7527.0,-339.0,2423.0,-262.0,92.0,-73.0,-11.0,77.0,-276.0,0.950911,-0.052637,0.304779,15152.0,-774.0,4852.0,-2.0,-9.0,7.0
2867.0,2809.0,2899.0,3143.0,3039.0,0.807434,-0.017822,-0.589294,0.020264,-1.0,-1.0,0.0,7511.0,-368.0,2428.0,-278.0,63.0,-68.0,-20.0,47.0,-288.0,0.950911,-0.052663,0.304775,14966.0,-888.0,4844.0,-14.0,-1.0,6.0
2866.0,2805.0,2893.0,3139.0,3031.0,0.807495,-0.017944,-0.589294,0.020325,-1.0,0.0,0.0,7506.0,-401.0,2425.0,-284.0,32.0,-72.0,-18.0,16.0,-293.0,0.950975,-0.052934,0.304872,14964.0,-1016.0,4824.0,-9.0,2.0,9.0
2871.0,2807.0,2893.0,3137.0,3031.0,0.807495,-0.017944,-0.589233,0.020447,0.0,0.0,0.0,7492.0,-420.0,2412.0,-297.0,14.0,-86.0,-8.0,-2.0,-309.0,0.950872,-0.053076,0.304948,14996.0,-806.0,4724.0,15.0,2.0,7.0
2871.0,2811.0,2897.0,3150.0,3035.0,0.807495,-0.017883,-0.589233,0.020508,0.0,0.0,0.0,7495.0,-403.0,2420.0,-294.0,31.0,-78.0,-15.0,14.0,-304.0,0.950873,-0.053049,0.304953,14980.0,-684.0,4886.0,16.0,8.0,3.0
2869.0,2807.0,2897.0,3143.0,3037.0,0.807617,-0.017822,-0.589111,0.020508,-1.0,0.0,0.0,7479.0,-371.0,2423.0,-310.0,62.0,-77.0,-22.0,44.0,-321.0,0.950822,-0.05295,0.305296,14864.0,-736.0,4848.0,-11.0,8.0,5.0
2870.0,2806.0,2894.0,3143.0,3038.0,0.807617,-0.017883,-0.589111,0.020508,-1.0,-1.0,0.0,7474.0,-386.0,2425.0,-315.0,48.0,-75.0,-25.0,30.0,-324.0,0.950819,-0.053048,0.305294,14932.0,-888.0,4842.0,-11.0,-1.0,10.0
2871.0,2803.0,2895.0,3139.0,3035.0,0.807556,-0.017944,-0.589172,0.020508,0.0,-1.0,-1.0,7474.0,-401.0,2412.0,-315.0,34.0,-87.0,-13.0,16.0,-327.0,0.950844,-0.053147,0.305121,15026.0,-838.0,4814.0,5.0,-12.0,-1.0
2868.0,2807.0,2897.0,3142.0,3035.0,0.807556,-0.017883,-0.589172,0.020508,0.0,-1.0,-1.0,7491.0,-391.0,2423.0,-298.0,43.0,-76.0,-19.0,26.0,-308.0,0.950846,-0.053049,0.305124,15064.0,-712.0,4926.0,2.0,-7.0,-3.0
2868.0,2811.0,2897.0,3143.0,3035.0,0.807556,-0.017944,-0.589172,0.020386,-1.0,0.0,-1.0,7494.0,-406.0,2431.0,-295.0,28.0,-68.0,-25.0,11.0,-302.0,0.950848,-0.053004,0.305116,14982.0,-956.0,4838.0,-22.0,3.0,-2.0
2869.0,2807.0,2891.0,3139.0,3035.0,0.807617,-0.018066,-0.589111,0.020325,-1.0,0.0,0.0,7499.0,-433.0,2429.0,-290.0,2.0,-71.0,-20.0,-14.0,-297.0,0.950818,-0.053129,0.30528,15034.0,-1032.0,4834.0,-15.0,10.0,1.0
2867.0,2806.0,2894.0,3143.0,3027.0,0.807678,-0.018127,-0.588989,0.020325,0.0,0.0,-1.0,7476.0,-410.0,2413.0,-312.0,26.0,-89.0,-10.0,8.0,-325.0,0.950691,-0.053224,0.30552,14924.0,-684.0,4826.0,2.0,8.0,-2.0
2869.0,2810.0,2897.0,3149.0,3038.0,0.807678,-0.018066,-0.588989,0.020325,-1.0,0.0,-1.0,7468.0,-386.0,2416.0,-320.0,49.0,-86.0,-16.0,31.0,-333.0,0.950693,-0.053126,0.305522,14894.0,-660.0,4834.0,-7.0,3.0,-2.0
2871.0,2807.0,2883.0,3143.0,3037.0,0.807678,-0.01825,-0.588989,0.020142,-1.0,-1.0,0.0,7478.0,-378.0,2427.0,-310.0,57.0,-75.0,-23.0,39.0,-320.0,0.950692,-0.053206,0.305508,15080.0,-782.0,4904.0,-21.0,-9.0,7.0
2867.0,2806.0,2894.0,3139.0,3035.0,0.807678,-0.018311,-0.588989,0.020142,-1.0,-1.0,0.0,7490.0,-381.0,2426.0,-298.0,55.0,-76.0,-19.0,38.0,-309.0,0.95069,-0.053304,0.305506,15016.0,-706.0,4798.0,-9.0,-3.0,4.0
2865.0,2807.0,2895.0,3143.0,3039.0,0.807617,-0.018311,-0.58905,0.020142,-1.0,0.0,0.0,7510.0,-377.0,2424.0,-278.0,59.0,-77.0,-12.0,43.0,-290.0,0.950717,-0.053305,0.305336,15070.0,-722.0,4848.0,-4.0,2.0,8.0
2871.0,2811.0,2895.0,3154.0,3035.0,0.807678,-0.018372,-0.588989,0.020142,-1.0,0.0,0.0,7508.0,-371.0,2421.0,-280.0,66.0,-81.0,-9.0,50.0,-294.0,0.950688,-0.053403,0.305504,14990.0,-736.0,4832.0,-6.0,9.0,6.0
2868.0,2807.0,2895.0,3143.0,3035.0,0.807678,-0.018372,-0.588928,0.020081,-1.0,0.0,0.0,7506.0,-391.0,2419.0,-281.0,45.0,-84.0,-6.0,29.0,-295.0,0.950591,-0.053329,0.305573,14994.0,-938.0,4836.0,-8.0,13.0,5.0
2867.0,2807.0,2897.0,3141.0,3035.0,0.8078,-0.018433,-0.588867,0.020081,-1.0,0.0,0.0,7473.0,-370.0,2403.0,-314.0,67.0,-102.0,0.0,49.0,-333.0,0.950634,-0.053429,0.30584,14868.0,-670.0,4806.0,-18.0,9.0,2.0
2871.0,2810.0,2896.0,3147.0,3035.0,0.8078,-0.018555,-0.588806,0.019958,-2.0,0.0,0.0,7475.0,-379.0,2405.0,-311.0,59.0,-100.0,0.0,41.0,-329.0,0.950535,-0.05348,0.305903,14988.0,-860.0,4804.0,-36.0,7.0,7.0
2870.0,2811.0,2897.0,3143.0,3031.0,0.8078,-0.018982,-0.588806,0.019836,-2.0,-1.0,0.0,7467.0,-406.0,2413.0,-319.0,36.0,-92.0,-10.0,17.0,-333.0,0.950522,-0.054027,0.305882,14828.0,-904.0,4782.0,-35.0,0.0,10.0
2867.0,2807.0,2895.0,3143.0,3031.0,0.8078,-0.019165,-0.588806,0.019775,-2.0,-1.0,0.0,7460.0,-409.0,2420.0,-326.0,35.0,-85.0,-19.0,16.0,-337.0,0.950518,-0.054251,0.305872,14938.0,-836.0,4906.0,-36.0,-8.0,6.0
2869.0,2807.0,2896.0,3143.0,3035.0,0.807739,-0.019287,-0.588867,0.019653,-1.0,-1.0,-1.0,7479.0,-426.0,2421.0,-307.0,18.0,-83.0,-14.0,0.0,-318.0,0.950544,-0.054304,0.305692,15056.0,-874.0,4880.0,-6.0,-9.0,-8.0
2870.0,2811.0,2898.0,3127.0,3034.0,0.807739,-0.019226,-0.588928,0.019592,0.0,-1.0,-1.0,7484.0,-415.0,2420.0,-303.0,28.0,-83.0,-13.0,10.0,-314.0,0.950648,-0.054136,0.30562,14986.0,-764.0,4838.0,5.0,-4.0,-10.0
2870.0,2810.0,2898.0,3143.0,3035.0,0.807739,-0.019104,-0.588867,0.019531,0.0,0.0,-1.0,7508.0,-393.0,2427.0,-278.0,48.0,-77.0,-12.0,32.0,-290.0,0.950556,-0.053865,0.305695,15034.0,-720.0,4822.0,6.0,11.0,-5.0
2867.0,2807.0,2895.0,3147.0,3056.0,0.8078,-0.019043,-0.588806,0.019531,0.0,0.0,0.0,7511.0,-384.0,2425.0,-275.0,56.0,-80.0,-8.0,40.0,-288.0,0.950532,-0.053766,0.305867,15038.0,-686.0,4882.0,2.0,14.0,0.0
2869.0,2809.0,2895.0,3142.0,3037.0,0.807861,-0.019043,-0.588745,0.01947,-1.0,0.0,0.0,7509.0,-376.0,2416.0,-277.0,63.0,-91.0,1.0,47.0,-294.0,0.950507,-0.053694,0.306036,15032.0,-792.0,4836.0,-7.0,8.0,3.0
2870.0,2809.0,2896.0,3149.0,3035.0,0.807861,-0.019104,-0.588684,0.01947,-1.0,0.0,0.0,7495.0,-374.0,2416.0,-290.0,66.0,-91.0,-2.0,49.0,-307.0,0.950406,-0.05379,0.306105,14876.0,-726.0,4806.0,-10.0,3.0,7.0
2870.0,2812.0,2896.0,3143.0,3037.0,0.807861,-0.019226,-0.588745,0.019409,-1.0,-1.0,0.0,7501.0,-401.0,2427.0,-285.0,40.0,-79.0,-12.0,23.0,-297.0,0.950503,-0.053918,0.306026,15058.0,-890.0,4892.0,-9.0,-10.0,5.0
2869.0,2803.0,2890.0,3139.0,3031.0,0.8078,-0.019226,-0.588806,0.019409,0.0,-1.0,-1.0,7498.0,-407.0,2432.0,-288.0,34.0,-73.0,-18.0,17.0,-297.0,0.950529,-0.053918,0.305856,14976.0,-830.0,4858.0,4.0,-9.0,-1.0
2871.0,2810.0,2896.0,3143.0,3035.0,0.8078,-0.019104,-0.588806,0.01947,0.0,0.0,0.0,7524.0,-394.0,2450.0,-262.0,46.0,-55.0,-28.0,31.0,-268.0,0.950532,-0.053793,0.305863,15094.0,-694.0,4886.0,12.0,2.0,0.0
2870.0,2807.0,2896.0,3147.0,3037.0,0.807861,-0.019104,-0.588745,0.01947,0.0,0.0,0.0,7524.0,-381.0,2450.0,-262.0,59.0,-57.0,-26.0,44.0,-269.0,0.950505,-0.053793,0.306033,15028.0,-678.0,4878.0,4.0,11.0,5.0
2869.0,2810.0,2897.0,3143.0,3038.0,0.807922,-0.019165,-0.588623,0.019531,-1.0,0.0,0.0,7487.0,-375.0,2436.0,-298.0,67.0,-73.0,-22.0,50.0,-309.0,0.950375,-0.053961,0.306276,14850.0,-748.0,4838.0,-10.0,5.0,15.0
2870.0,2801.0,2895.0,3143.0,3037.0,0.807922,-0.019226,-0.588684,0.019531,-1.0,-1.0,0.0,7469.0,-403.0,2435.0,-317.0,39.0,-73.0,-27.0,21.0,-325.0,0.950471,-0.054062,0.306201,14952.0,-1098.0,4942.0,-14.0,-13.0,8.0
2870.0,2807.0,2896.0,3143.0,3031.0,0.8078,-0.019348,-0.588745,0.019653,-1.0,-1.0,-1.0,7464.0,-432.0,2420.0,-321.0,13.0,-86.0,-16.0,-5.0,-332.0,0.950416,-0.0544,0.305932,14914.0,-922.0,4816.0,0.0,-13.0,-2.0
2871.0,2811.0,2896.0,3147.0,3035.0,0.8078,-0.019348,-0.588806,0.019653,0.0,-1.0,-1.0,7472.0,-445.0,2417.0,-314.0,0.0,-88.0,-12.0,-17.0,-325.0,0.950515,-0.054403,0.305861,15000.0,-962.0,4814.0,2.0,-13.0,-6.0
2870.0,2810.0,2896.0,3151.0,3037.0,0.807739,-0.019226,-0.588928,0.019531,-1.0,-1.0,-1.0,7473.0,-409.0,2402.0,-314.0,33.0,-101.0,0.0,15.0,-331.0,0.95065,-0.054064,0.305618,14910.0,-750.0,4692.0,-4.0,-6.0,-13.0
2869.0,2807.0,2893.0,3142.0,3031.0,0.807678,-0.019165,-0.588928,0.01947,-1.0,-1.0,-1.0,7453.0,-399.0,2392.0,-334.0,42.0,-110.0,2.0,23.0,-353.0,0.950583,-0.053891,0.305519,14792.0,-768.0,4746.0,-8.0,-8.0,-14.0
2869.0,2806.0,2896.0,3143.0,3035.0,0.807617,-0.019165,-0.58905,0.019287,-1.0,-1.0,-1.0,7467.0,-376.0,2402.0,-321.0,63.0,-98.0,-5.0,44.0,-338.0,0.950715,-0.053678,0.30527,15014.0,-718.0,4800.0,-8.0,-8.0,-10.0
2871.0,2813.0,2898.0,3143.0,3035.0,0.807617,-0.019104,-0.58905,0.019226,-1.0,0.0,-1.0,7479.0,-366.0,2402.0,-309.0,72.0,-98.0,-1.0,54.0,-327.0,0.95072,-0.053508,0.30527,15018.0,-656.0,4812.0,-1.0,2.0,-4.0
2871.0,2810.0,2897.0,3147.0,3037.0,0.807678,-0.019043,-0.588989,0.019226,0.0,0.0,0.0,7490.0,-345.0,2413.0,-298.0,92.0,-89.0,-7.0,75.0,-315.0,0.950695,-0.053409,0.305443,15034.0,-622.0,4886.0,5.0,8.0,6.0
2867.0,2807.0,2896.0,3143.0,3031.0,0.807739,-0.018982,-0.588928,0.019226,0.0,0.0,0.0,7494.0,-349.0,2413.0,-293.0,87.0,-90.0,-4.0,70.0,-310.0,0.950671,-0.05331,0.305616,15004.0,-764.0,4826.0,2.0,11.0,8.0
2867.0,2807.0,2894.0,3143.0,3031.0,0.8078,-0.019043,-0.588806,0.019287,0.0,0.0,0.0,7500.0,-396.0,2412.0,-286.0,42.0,-93.0,0.0,25.0,-302.0,0.950541,-0.053479,0.305858,15000.0,-970.0,4786.0,9.0,16.0,8.0
2875.0,2811.0,2897.0,3149.0,3039.0,0.807861,-0.018982,-0.588745,0.019409,0.0,0.0,0.0,7495.0,-422.0,2401.0,-291.0,16.0,-106.0,11.0,0.0,-309.0,0.950512,-0.053524,0.306036,14974.0,-980.0,4708.0,17.0,21.0,3.0
2870.0,2807.0,2895.0,3143.0,3035.0,0.807922,-0.018921,-0.588623,0.01947,1.0,1.0,0.0,7486.0,-431.0,2394.0,-299.0,7.0,-115.0,17.0,-9.0,-319.0,0.950387,-0.053494,0.306283,14904.0,-872.0,4706.0,24.0,27.0,0.0
2871.0,2807.0,2896.0,3143.0,3031.0,0.808044,-0.018799,-0.588501,0.01947,-1.0,0.0,-1.0,7444.0,-394.0,2379.0,-341.0,42.0,-132.0,20.0,22.0,-366.0,0.950338,-0.053297,0.306628,14824.0,-704.0,4718.0,-7.0,16.0,-11.0
2871.0,2811.0,2896.0,3143.0,3035.0,0.808105,-0.018799,-0.58844,0.019287,-1.0,0.0,-1.0,7447.0,-389.0,2383.0,-338.0,45.0,-130.0,19.0,25.0,-363.0,0.950318,-0.053081,0.306791,14948.0,-774.0,4834.0,-20.0,11.0,-18.0
2871.0,2811.0,2919.0,3151.0,3035.0,0.808167,-0.01886,-0.588379,0.018982,-1.0,0.0,-1.0,7430.0,-411.0,2388.0,-354.0,21.0,-126.0,11.0,1.0,-376.0,0.9503,-0.052821,0.306948,14804.0,-954.0,4790.0,-16.0,9.0,-22.0
2867.0,2805.0,2887.0,3139.0,3031.0,0.808167,-0.018799,-0.588318,0.018921,0.0,0.0,-1.0,7442.0,-421.0,2404.0,-342.0,10.0,-111.0,0.0,-8.0,-359.0,0.950206,-0.052648,0.30702,14994.0,-854.0,4888.0,3.0,11.0,-12.0
2867.0,2807.0,2896.0,3146.0,3035.0,0.80835,-0.018616,-0.588074,0.018921,0.0,1.0,-1.0,7453.0,-360.0,2440.0,-329.0,68.0,-79.0,-26.0,50.0,-340.0,0.950034,-0.05235,0.30761,14892.0,-492.0,4978.0,9.0,23.0,-4.0
2871.0,2813.0,2895.0,3147.0,3035.0,0.808472,-0.018555,-0.587952,0.01886,-1.0,0.0,0.0,7442.0,-330.0,2450.0,-340.0,97.0,-72.0,-37.0,78.0,-350.0,0.949985,-0.052179,0.307951,14812.0,-520.0,4954.0,-6.0,14.0,6.0
2869.0,2811.0,2897.0,3143.0,3035.0,0.808472,-0.018677,-0.587891,0.018799,-1.0,-1.0,0.0,7452.0,-320.0,2469.0,-329.0,108.0,-54.0,-50.0,90.0,-334.0,0.949884,-0.052303,0.308016,14914.0,-626.0,4928.0,-20.0,-8.0,17.0
2871.0,2807.0,2895.0,3141.0,3035.0,0.808472,-0.018799,-0.587952,0.018799,-2.0,-1.0,0.0,7469.0,-330.0,2473.0,-313.0,100.0,-49.0,-50.0,83.0,-317.0,0.949978,-0.052502,0.307939,15100.0,-774.0,4992.0,-28.0,-18.0,11.0
2871.0,2811.0,2896.0,3143.0,3030.0,0.808472,-0.018982,-0.587952,0.018738,-1.0,0.0,-1.0,7527.0,-396.0,2477.0,-255.0,35.0,-45.0,-35.0,21.0,-257.0,0.949973,-0.052727,0.30793,15136.0,-992.0,4916.0,-2.0,13.0,-1.0
2871.0,2810.0,2896.0,3143.0,3035.0,0.808533,-0.018982,-0.58783,0.018799,0.0,1.0,0.0,7530.0,-419.0,2474.0,-251.0,13.0,-50.0,-29.0,0.0,-254.0,0.949845,-0.052796,0.308175,15076.0,-928.0,4960.0,8.0,25.0,4.0
2867.0,2807.0,2897.0,3143.0,3038.0,0.808655,-0.018982,-0.587646,0.01886,-1.0,0.0,0.0,7497.0,-393.0,2461.0,-282.0,40.0,-66.0,-24.0,24.0,-290.0,0.94969,-0.052866,0.30859,14910.0,-704.0,4942.0,-3.0,19.0,3.0
2874.0,2811.0,2897.0,3185.0,3031.0,0.808716,-0.018982,-0.587585,0.018799,-1.0,0.0,-1.0,7483.0,-377.0,2459.0,-296.0,55.0,-70.0,-25.0,38.0,-305.0,0.949666,-0.052794,0.308758,14872.0,-640.0,4916.0,-16.0,11.0,-1.0
2867.0,2807.0,2897.0,3143.0,3038.0,0.808777,-0.019165,-0.587524,0.018555,-2.0,-1.0,0.0,7501.0,-394.0,2483.0,-278.0,38.0,-47.0,-41.0,22.0,-280.0,0.949641,-0.052803,0.308912,15106.0,-984.0,5028.0,-33.0,-1.0,1.0
2867.0,2811.0,2934.0,3147.0,3035.0,0.808777,-0.019287,-0.587524,0.018555,-1.0,0.0,0.0,7492.0,-397.0,2475.0,-287.0,37.0,-55.0,-36.0,21.0,-291.0,0.949637,-0.053001,0.308907,14906.0,-734.0,4924.0,-14.0,1.0,7.0
2870.0,2812.0,2896.0,3143.0,3039.0,0.808716,-0.019287,-0.587524,0.018433,-1.0,-1.0,-1.0,7507.0,-383.0,2472.0,-271.0,49.0,-57.0,-29.0,34.0,-277.0,0.94957,-0.052855,0.308804,15122.0,-728.0,4958.0,-1.0,-4.0,-4.0
2871.0,2807.0,2897.0,3139.0,3031.0,0.808777,-0.019287,-0.587524,0.018372,-1.0,0.0,-1.0,7517.0,-369.0,2471.0,-262.0,63.0,-59.0,-25.0,48.0,-270.0,0.949644,-0.052785,0.308901,15082.0,-674.0,4906.0,-8.0,7.0,-5.0
2871.0,2807.0,2895.0,3143.0,3035.0,0.808838,-0.019409,-0.587402,0.018188,-2.0,0.0,0.0,7514.0,-379.0,2470.0,-264.0,53.0,-62.0,-23.0,38.0,-272.0,0.94952,-0.052766,0.309131,15060.0,-926.0,4910.0,-25.0,8.0,1.0
2870.0,2811.0,2895.0,3141.0,3031.0,0.808899,-0.019531,-0.587341,0.018188,-1.0,0.0,0.0,7503.0,-401.0,2460.0,-275.0,32.0,-73.0,-15.0,16.0,-285.0,0.949489,-0.052963,0.309297,14880.0,-914.0,4826.0,-11.0,13.0,8.0
2871.0,2810.0,2897.0,3159.0,3035.0,0.808838,-0.019531,-0.587402,0.01825,-1.0,-1.0,0.0,7454.0,-374.0,2452.0,-324.0,60.0,-80.0,-24.0,42.0,-335.0,0.949514,-0.053035,0.309129,14916.0,-702.0,5006.0,-6.0,-22.0,7.0
2871.0,2810.0,2896.0,3143.0,3031.0,0.808777,-0.019592,-0.587524,0.01825,-1.0,-2.0,0.0,7476.0,-376.0,2470.0,-303.0,59.0,-60.0,-36.0,42.0,-309.0,0.949637,-0.053136,0.308884,15106.0,-792.0,5038.0,-12.0,-24.0,7.0
2871.0,2807.0,2896.0,3147.0,3067.0,0.808716,-0.019653,-0.587646,0.018188,-1.0,-1.0,0.0,7485.0,-385.0,2468.0,-295.0,50.0,-60.0,-34.0,33.0,-301.0,0.949763,-0.053165,0.308637,14966.0,-822.0,4920.0,-7.0,-15.0,4.0
2869.0,2815.0,2899.0,3139.0,3031.0,0.808655,-0.019653,-0.587708,0.018188,0.0,-1.0,0.0,7476.0,-383.0,2461.0,-304.0,52.0,-65.0,-32.0,35.0,-311.0,0.94979,-0.053165,0.308467,14884.0,-712.0,4920.0,7.0,-16.0,2.0
2871.0,2813.0,2894.0,3143.0,3035.0,0.808533,-0.019592,-0.58783,0.018188,-1.0,-1.0,-1.0,7481.0,-367.0,2448.0,-300.0,67.0,-76.0,-20.0,50.0,-311.0,0.949846,-0.053065,0.308128,15016.0,-816.0,4836.0,-7.0,-17.0,-2.0
2869.0,2810.0,2896.0,3143.0,3039.0,0.808533,-0.019592,-0.587891,0.018188,-1.0,-1.0,0.0,7489.0,-399.0,2439.0,-292.0,35.0,-84.0,-10.0,18.0,-305.0,0.949945,-0.053068,0.308057,15048.0,-998.0,4834.0,-3.0,-7.0,3.0
2867.0,2807.0,2899.0,3149.0,3031.0,0.808533,-0.019592,-0.58783,0.018311,0.0,0.0,0.0,7458.0,-382.0,2418.0,-323.0,53.0,-106.0,0.0,34.0,-342.0,0.949841,-0.053209,0.308133,14756.0,-546.0,4768.0,12.0,3.0,3.0
2871.0,2813.0,2901.0,3143.0,3035.0,0.808533,-0.019531,-0.587891,0.01825,-1.0,-1.0,0.0,7450.0,-365.0,2420.0,-331.0,69.0,-103.0,-4.0,50.0,-349.0,0.949945,-0.053041,0.308061,14928.0,-680.0,4896.0,-9.0,-10.0,5.0
2869.0,2811.0,2901.0,3147.0,3035.0,0.808472,-0.019653,-0.587891,0.018188,-1.0,-1.0,-1.0,7466.0,-385.0,2415.0,-315.0,50.0,-107.0,4.0,32.0,-334.0,0.949871,-0.053164,0.307956,14922.0,-838.0,4792.0,-14.0,-1.0,-1.0
2871.0,2805.0,2896.0,3142.0,3039.0,0.808472,-0.019714,-0.587952,0.018127,-1.0,-1.0,-1.0,7454.0,-395.0,2413.0,-328.0,40.0,-109.0,2.0,21.0,-347.0,0.94997,-0.053193,0.307879,14848.0,-836.0,4814.0,-12.0,-4.0,-5.0
2871.0,2807.0,2895.0,3143.0,3031.0,0.808411,-0.019775,-0.588013,0.018005,-1.0,-1.0,-1.0,7461.0,-411.0,2427.0,-321.0,24.0,-93.0,-10.0,6.0,-334.0,0.949999,-0.053148,0.307702,14928.0,-958.0,4808.0,-4.0,-12.0,-2.0
2869.0,2815.0,2896.0,3143.0,3039.0,0.80835,-0.019714,-0.588074,0.018066,0.0,-1.0,-1.0,7476.0,-411.0,2446.0,-306.0,24.0,-73.0,-24.0,7.0,-314.0,0.950026,-0.053121,0.307536,15066.0,-828.0,5020.0,4.0,-7.0,-3.0
2866.0,2812.0,2897.0,3141.0,3031.0,0.808472,-0.019531,-0.587891,0.018127,0.0,1.0,-1.0,7481.0,-390.0,2463.0,-300.0,43.0,-59.0,-36.0,26.0,-305.0,0.949878,-0.052895,0.307958,14806.0,-526.0,4922.0,22.0,23.0,-4.0
2867.0,2809.0,2896.0,3143.0,3037.0,0.808533,-0.01947,-0.58783,0.018066,-1.0,0.0,-1.0,7479.0,-364.0,2460.0,-302.0,67.0,-64.0,-32.0,50.0,-310.0,0.949855,-0.052725,0.308129,15110.0,-658.0,4922.0,-5.0,14.0,-5.0
2869.0,2811.0,2893.0,3143.0,3031.0,0.808655,-0.019531,-0.587646,0.018066,0.0,0.0,0.0,7472.0,-416.0,2445.0,-307.0,16.0,-82.0,-16.0,0.0,-317.0,0.949701,-0.052821,0.308539,14902.0,-828.0,4838.0,10.0,22.0,8.0
2869.0,2809.0,2896.0,3143.0,3033.0,0.808716,-0.01947,-0.587585,0.018127,0.0,0.0,-1.0,7457.0,-402.0,2445.0,-322.0,30.0,-83.0,-20.0,12.0,-333.0,0.949673,-0.052795,0.308714,14822.0,-734.0,4866.0,11.0,17.0,-2.0
2871.0,2811.0,2898.0,3147.0,3039.0,0.808777,-0.019409,-0.587463,0.018127,0.0,0.0,0.0,7471.0,-380.0,2459.0,-307.0,51.0,-71.0,-27.0,34.0,-316.0,0.94955,-0.052694,0.308959,15012.0,-692.0,4978.0,1.0,2.0,3.0
2870.0,2807.0,2897.0,3143.0,3031.0,0.808777,-0.019409,-0.587463,0.018127,-1.0,0.0,0.0,7473.0,-384.0,2463.0,-305.0,47.0,-67.0,-30.0,30.0,-312.0,0.94955,-0.052694,0.308959,14936.0,-792.0,4948.0,0.0,1.0,0.0
2867.0,2807.0,2897.0,3143.0,3039.0,0.808777,-0.019409,-0.587524,0.018005,-1.0,-1.0,-1.0,7466.0,-350.0,2466.0,-313.0,80.0,-64.0,-36.0,62.0,-321.0,0.949653,-0.052553,0.308883,14972.0,-672.0,4946.0,-17.0,-16.0,-1.0
2871.0,2813.0,2899.0,3150.0,3039.0,0.808716,-0.01947,-0.587585,0.017944,-1.0,-1.0,0.0,7480.0,-366.0,2464.0,-299.0,64.0,-64.0,-31.0,47.0,-307.0,0.949681,-0.052579,0.308708,15042.0,-848.0,4908.0,-17.0,-17.0,2.0
2871.0,2809.0,2899.0,3149.0,3039.0,0.808655,-0.01947,-0.587708,0.018005,0.0,-1.0,0.0,7495.0,-369.0,2459.0,-285.0,62.0,-67.0,-24.0,46.0,-294.0,0.949804,-0.052653,0.308468,15008.0,-666.0,4924.0,9.0,-12.0,1.0
2871.0,2805.0,2869.0,3141.0,3057.0,0.808594,-0.019409,-0.587769,0.018005,-1.0,-1.0,0.0,7491.0,-351.0,2452.0,-290.0,79.0,-73.0,-20.0,63.0,-302.0,0.949833,-0.052554,0.308299,14932.0,-624.0,4864.0,0.0,-14.0,4.0
2875.0,2810.0,2898.0,3143.0,3031.0,0.808472,-0.019531,-0.587891,0.017944,-1.0,-1.0,0.0,7499.0,-361.0,2438.0,-282.0,70.0,-84.0,-7.0,54.0,-297.0,0.949885,-0.05268,0.307952,15072.0,-840.0,4824.0,-20.0,-16.0,10.0
2866.0,2813.0,2895.0,3142.0,3039.0,0.808472,-0.019592,-0.587952,0.017883,-1.0,-1.0,0.0,7501.0,-360.0,2436.0,-281.0,71.0,-86.0,-5.0,55.0,-297.0,0.949984,-0.052709,0.307875,15006.0,-668.0,4884.0,-16.0,-3.0,10.0
2867.0,2811.0,2896.0,3143.0,3039.0,0.808472,-0.019897,-0.587952,0.017822,-2.0,-1.0,0.0,7478.0,-381.0,2431.0,-304.0,54.0,-90.0,-8.0,37.0,-319.0,0.949975,-0.05313,0.307861,14920.0,-900.0,4826.0,-27.0,-3.0,15.0
2869.0,2803.0,2895.0,3143.0,3037.0,0.808411,-0.02002,-0.587952,0.017822,-1.0,-1.0,0.0,7467.0,-399.0,2425.0,-314.0,37.0,-96.0,-5.0,19.0,-329.0,0.949899,-0.053325,0.307757,14870.0,-914.0,4796.0,-19.0,-3.0,14.0
2869.0,2807.0,2895.0,3147.0,3035.0,0.808411,-0.020203,-0.588013,0.017944,0.0,-1.0,0.0,7450.0,-418.0,2422.0,-332.0,22.0,-98.0,-9.0,3.0,-346.0,0.949986,-0.053767,0.307683,14868.0,-840.0,4824.0,2.0,-9.0,15.0
2864.0,2811.0,2900.0,3134.0,3039.0,0.80835,-0.020203,-0.588074,0.018066,0.0,-1.0,0.0,7445.0,-416.0,2421.0,-337.0,25.0,-98.0,-10.0,5.0,-351.0,0.950008,-0.05391,0.307517,14886.0,-812.0,4818.0,12.0,-9.0,9.0
2867.0,2810.0,2897.0,3143.0,3031.0,0.808289,-0.020081,-0.588135,0.018127,0.0,-1.0,0.0,7445.0,-400.0,2409.0,-337.0,40.0,-108.0,-1.0,20.0,-355.0,0.950037,-0.053785,0.307353,14906.0,-748.0,4822.0,14.0,-9.0,4.0
2869.0,2807.0,2896.0,3143.0,3029.0,0.808289,-0.02002,-0.588135,0.018188,0.0,-1.0,0.0,7444.0,-388.0,2409.0,-338.0,52.0,-108.0,-1.0,32.0,-357.0,0.950037,-0.053758,0.307358,14890.0,-716.0,4816.0,8.0,-9.0,1.0
2867.0,2807.0,2899.0,3151.0,3035.0,0.808289,-0.019958,-0.588196,0.018188,-1.0,0.0,0.0,7450.0,-392.0,2404.0,-333.0,47.0,-113.0,4.0,28.0,-353.0,0.950138,-0.053661,0.307289,14866.0,-776.0,4810.0,-2.0,2.0,0.0
2871.0,2811.0,2895.0,3151.0,3030.0,0.808289,-0.019958,-0.588196,0.018127,-1.0,0.0,-1.0,7433.0,-391.0,2398.0,-350.0,48.0,-119.0,5.0,28.0,-371.0,0.95014,-0.053589,0.307286,14774.0,-780.0,4782.0,-8.0,3.0,-2.0
2871.0,2813.0,2899.0,3139.0,3031.0,0.808289,-0.02002,-0.588196,0.018066,-1.0,-1.0,-1.0,7425.0,-406.0,2413.0,-358.0,33.0,-104.0,-11.0,12.0,-373.0,0.950141,-0.053616,0.307282,14816.0,-932.0,4954.0,-13.0,-7.0,-5.0
2869.0,2807.0,2899.0,3147.0,3035.0,0.808289,-0.02002,-0.588196,0.018005,0.0,0.0,-1.0,7468.0,-429.0,2452.0,-315.0,9.0,-65.0,-35.0,-8.0,-319.0,0.950143,-0.053544,0.30728,15064.0,-890.0,5004.0,2.0,1.0,-13.0
2867.0,2807.0,2895.0,3147.0,3037.0,0.808289,-0.02002,-0.588135,0.017944,-1.0,0.0,-1.0,7483.0,-431.0,2466.0,-299.0,7.0,-51.0,-43.0,-9.0,-300.0,0.950047,-0.05347,0.307349,15046.0,-868.0,5030.0,0.0,6.0,-10.0
2869.0,2807.0,2898.0,3147.0,3035.0,0.80835,-0.02002,-0.588074,0.017883,-1.0,0.0,-1.0,7503.0,-432.0,2478.0,-279.0,5.0,-41.0,-46.0,-10.0,-277.0,0.950022,-0.053399,0.307517,15092.0,-888.0,4952.0,-2.0,3.0,-8.0
2871.0,2811.0,2896.0,3139.0,3029.0,0.808411,-0.019958,-0.588013,0.017822,0.0,0.0,-1.0,7522.0,-437.0,2479.0,-260.0,0.0,-41.0,-41.0,-14.0,-259.0,0.95,-0.053229,0.307688,15168.0,-900.0,4936.0,10.0,12.0,-9.0
2871.0,2813.0,2895.0,3152.0,3031.0,0.808472,-0.019714,-0.587891,0.017761,-1.0,-1.0,-1.0,7493.0,-365.0,2476.0,-288.0,67.0,-46.0,-45.0,51.0,-291.0,0.949886,-0.05276,0.307938,14882.0,-512.0,4954.0,-2.0,0.0,-10.0
2871.0,2811.0,2893.0,3142.0,3035.0,0.808472,-0.019714,-0.587891,0.017639,-1.0,-1.0,-1.0,7492.0,-351.0,2479.0,-289.0,80.0,-43.0,-48.0,64.0,-291.0,0.94989,-0.052617,0.307934,15008.0,-694.0,4968.0,-17.0,-13.0,-8.0
2871.0,2802.0,2896.0,3143.0,3031.0,0.808411,-0.019775,-0.588074,0.017456,-1.0,-2.0,-1.0,7490.0,-373.0,2474.0,-293.0,57.0,-45.0,-47.0,41.0,-295.0,0.95012,-0.052504,0.307611,14950.0,-826.0,4922.0,-10.0,-23.0,-6.0
2867.0,2809.0,2903.0,3147.0,3031.0,0.808289,-0.019775,-0.588135,0.017456,-1.0,-2.0,0.0,7492.0,-377.0,2474.0,-291.0,53.0,-43.0,-48.0,37.0,-292.0,0.950075,-0.052501,0.307342,14998.0,-754.0,4978.0,-1.0,-30.0,0.0
2871.0,2810.0,2897.0,3143.0,3037.0,0.808167,-0.019653,-0.588318,0.017456,-1.0,-1.0,-1.0,7502.0,-363.0,2477.0,-282.0,65.0,-37.0,-51.0,50.0,-282.0,0.950231,-0.052306,0.306934,15028.0,-682.0,4894.0,-2.0,-19.0,-3.0
2871.0,2807.0,2895.0,3143.0,3039.0,0.808167,-0.019653,-0.588379,0.017395,-1.0,-1.0,-1.0,7514.0,-375.0,2474.0,-271.0,52.0,-39.0,-46.0,37.0,-272.0,0.950333,-0.052236,0.30686,15130.0,-848.0,4952.0,-3.0,-16.0,-4.0
2875.0,2807.0,2896.0,3142.0,3039.0,0.808105,-0.019592,-0.588379,0.017395,0.0,0.0,-1.0,7512.0,-368.0,2453.0,-272.0,59.0,-60.0,-26.0,44.0,-279.0,0.950263,-0.052135,0.306763,14878.0,-652.0,4866.0,2.0,3.0,-3.0
2874.0,2810.0,2901.0,3147.0,3035.0,0.808105,-0.019592,-0.588379,0.017334,-1.0,-1.0,-1.0,7481.0,-347.0,2441.0,-303.0,79.0,-71.0,-25.0,62.0,-313.0,0.950265,-0.052063,0.306761,14746.0,-560.0,4834.0,-10.0,-6.0,-2.0
2868.0,2806.0,2896.0,3139.0,3039.0,0.807983,-0.019714,-0.588562,0.017212,-1.0,-2.0,0.0,7493.0,-375.0,2461.0,-292.0,51.0,-48.0,-44.0,35.0,-294.0,0.950418,-0.052118,0.30634,15134.0,-942.0,5008.0,-15.0,-25.0,10.0
2871.0,2809.0,2896.0,3143.0,3035.0,0.807983,-0.019775,-0.588623,0.017334,0.0,-1.0,0.0,7489.0,-386.0,2448.0,-297.0,42.0,-60.0,-34.0,26.0,-302.0,0.95051,-0.052363,0.306269,14888.0,-744.0,4676.0,5.0,-12.0,18.0
2877.0,2807.0,2887.0,3143.0,3039.0,0.807922,-0.019775,-0.588745,0.017456,0.0,-1.0,0.0,7482.0,-381.0,2457.0,-305.0,49.0,-50.0,-46.0,32.0,-307.0,0.95063,-0.052508,0.306031,14918.0,-714.0,4924.0,13.0,-13.0,9.0
2867.0,2807.0,2898.0,3150.0,3035.0,0.807861,-0.019714,-0.588745,0.017517,0.0,-1.0,0.0,7480.0,-368.0,2456.0,-306.0,61.0,-50.0,-46.0,44.0,-309.0,0.950558,-0.052479,0.305937,14984.0,-670.0,4894.0,8.0,-15.0,10.0
2874.0,2811.0,2896.0,3147.0,3029.0,0.8078,-0.019714,-0.588867,0.017517,-1.0,-1.0,0.0,7471.0,-359.0,2447.0,-316.0,70.0,-57.0,-42.0,52.0,-321.0,0.950683,-0.052481,0.305695,14894.0,-660.0,4848.0,-4.0,-11.0,7.0
2871.0,2815.0,2903.0,3151.0,3029.0,0.8078,-0.019775,-0.588867,0.017517,-1.0,-1.0,0.0,7465.0,-353.0,2446.0,-322.0,77.0,-58.0,-43.0,59.0,-327.0,0.950681,-0.05258,0.305693,14876.0,-700.0,4864.0,-14.0,-15.0,5.0
2866.0,2807.0,2899.0,3147.0,3037.0,0.807678,-0.019958,-0.58905,0.017456,-1.0,-1.0,0.0,7468.0,-398.0,2432.0,-321.0,34.0,-68.0,-33.0,16.0,-327.0,0.950829,-0.052805,0.30527,15010.0,-1008.0,4824.0,-17.0,-20.0,5.0
2864.0,2807.0,2895.0,3143.0,3038.0,0.807617,-0.02002,-0.589111,0.017456,-1.0,-1.0,0.0,7480.0,-422.0,2422.0,-309.0,11.0,-77.0,-21.0,-5.0,-317.0,0.950854,-0.052903,0.305097,15032.0,-974.0,4780.0,0.0,-12.0,1.0
2871.0,2811.0,2896.0,3143.0,3035.0,0.807556,-0.019958,-0.589172,0.017395,-1.0,-1.0,-1.0,7477.0,-399.0,2401.0,-312.0,32.0,-96.0,-3.0,14.0,-327.0,0.950885,-0.052733,0.304927,14934.0,-700.0,4766.0,-4.0,-4.0,-11.0
2870.0,2807.0,2899.0,3151.0,3031.0,0.807556,-0.019958,-0.589172,0.017273,-1.0,-1.0,-1.0,7476.0,-407.0,2395.0,-313.0,23.0,-102.0,1.0,5.0,-329.0,0.95089,-0.052589,0.304923,14946.0,-894.0,4748.0,-11.0,-4.0,-15.0
2869.0,2811.0,2903.0,3141.0,3039.0,0.807556,-0.019897,-0.589233,0.017151,0.0,-1.0,-1.0,7467.0,-407.0,2382.0,-323.0,21.0,-115.0,10.0,3.0,-343.0,0.950996,-0.052348,0.304849,14890.0,-744.0,4744.0,3.0,-1.0,-16.0
2867.0,2811.0,2895.0,3151.0,3031.0,0.807495,-0.019775,-0.589233,0.01709,0.0,-1.0,-1.0,7465.0,-384.0,2388.0,-325.0,42.0,-108.0,3.0,24.0,-344.0,0.95093,-0.052077,0.304753,14924.0,-606.0,4836.0,2.0,-4.0,-16.0
2867.0,2811.0,2896.0,3142.0,3039.0,0.807495,-0.019836,-0.589294,0.016785,-2.0,-1.0,-1.0,7466.0,-358.0,2403.0,-324.0,66.0,-92.0,-11.0,48.0,-339.0,0.951039,-0.051818,0.304669,14962.0,-814.0,4818.0,-34.0,-7.0,-6.0
2871.0,2807.0,2897.0,3141.0,3027.0,0.807495,-0.019958,-0.589294,0.016724,-2.0,-1.0,-1.0,7466.0,-396.0,2402.0,-324.0,29.0,-93.0,-10.0,11.0,-337.0,0.951037,-0.051943,0.304662,14924.0,-1018.0,4818.0,-25.0,-7.0,-1.0
2867.0,2807.0,2896.0,3139.0,3031.0,0.807434,-0.019958,-0.589417,0.016663,0.0,-1.0,-1.0,7479.0,-413.0,2395.0,-312.0,11.0,-98.0,-1.0,-5.0,-327.0,0.951165,-0.051873,0.304417,15014.0,-772.0,4768.0,6.0,-13.0,-15.0
2871.0,2813.0,2897.0,3143.0,3037.0,0.807373,-0.019897,-0.589478,0.016541,0.0,-1.0,-1.0,7497.0,-395.0,2397.0,-295.0,27.0,-95.0,0.0,10.0,-310.0,0.951198,-0.05163,0.304245,15102.0,-680.0,4764.0,7.0,-9.0,-21.0
2867.0,2811.0,2896.0,3151.0,3039.0,0.807373,-0.019714,-0.589539,0.016357,-1.0,0.0,-1.0,7502.0,-357.0,2373.0,-291.0,61.0,-118.0,23.0,44.0,-315.0,0.95131,-0.05112,0.304174,14924.0,-598.0,4660.0,-5.0,1.0,-16.0
2870.0,2807.0,2885.0,3149.0,3035.0,0.807312,-0.019653,-0.5896,0.016235,-1.0,-1.0,-1.0,7490.0,-338.0,2350.0,-303.0,78.0,-140.0,40.0,61.0,-334.0,0.951344,-0.050877,0.304002,14942.0,-588.0,4544.0,-15.0,-12.0,-10.0
2873.0,2807.0,2897.0,3135.0,3035.0,0.80719,-0.019714,-0.589722,0.016052,-1.0,-1.0,-1.0,7519.0,-329.0,2369.0,-274.0,86.0,-118.0,28.0,70.0,-300.0,0.951402,-0.050759,0.303653,15120.0,-616.0,4804.0,-9.0,-7.0,-1.0
2873.0,2807.0,2895.0,3143.0,3039.0,0.80719,-0.019714,-0.589783,0.016052,-1.0,-1.0,0.0,7513.0,-325.0,2370.0,-281.0,90.0,-116.0,24.0,74.0,-307.0,0.9515,-0.050761,0.303581,14960.0,-628.0,4728.0,-7.0,-3.0,8.0
2873.0,2811.0,2886.0,3143.0,3031.0,0.807129,-0.019775,-0.589783,0.016113,0.0,-1.0,0.0,7525.0,-345.0,2379.0,-269.0,72.0,-107.0,20.0,57.0,-292.0,0.951424,-0.050929,0.303482,15106.0,-756.0,4776.0,7.0,0.0,15.0
2874.0,2805.0,2896.0,3147.0,3031.0,0.807129,-0.019714,-0.589783,0.016235,0.0,0.0,0.0,7521.0,-349.0,2378.0,-273.0,68.0,-108.0,19.0,53.0,-295.0,0.951421,-0.050975,0.303488,15006.0,-718.0,4718.0,16.0,7.0,12.0
2871.0,2807.0,2897.0,3143.0,3035.0,0.80719,-0.019653,-0.589783,0.016357,0.0,-1.0,0.0,7499.0,-348.0,2384.0,-295.0,69.0,-103.0,8.0,53.0,-315.0,0.95149,-0.051023,0.303593,14972.0,-698.0,4794.0,7.0,-2.0,9.0
2875.0,2810.0,2899.0,3149.0,3039.0,0.807129,-0.019653,-0.589783,0.016357,0.0,-1.0,0.0,7495.0,-353.0,2394.0,-299.0,64.0,-92.0,-3.0,47.0,-315.0,0.951418,-0.05102,0.303495,14972.0,-752.0,4854.0,3.0,-6.0,5.0
2851.0,2810.0,2897.0,3143.0,3031.0,0.807129,-0.019653,-0.589844,0.016357,-1.0,-1.0,0.0,7492.0,-364.0,2404.0,-302.0,53.0,-81.0,-14.0,36.0,-314.0,0.951517,-0.051022,0.303423,14958.0,-800.0,4798.0,-8.0,-14.0,4.0
2871.0,2811.0,2899.0,3139.0,3031.0,0.807068,-0.019714,-0.589905,0.016296,-1.0,-1.0,0.0,7498.0,-393.0,2402.0,-297.0,25.0,-82.0,-12.0,9.0,-308.0,0.951544,-0.051048,0.303248,15084.0,-984.0,4774.0,-12.0,-14.0,0.0
2869.0,2806.0,2896.0,3149.0,3035.0,0.807007,-0.019775,-0.589905,0.016357,0.0,0.0,-1.0,7506.0,-426.0,2390.0,-288.0,-6.0,-93.0,1.0,-21.0,-301.0,0.951467,-0.051216,0.303149,15032.0,-902.0,4762.0,5.0,3.0,-5.0
2871.0,2811.0,2896.0,3143.0,3037.0,0.807068,-0.019714,-0.589905,0.016357,0.0,0.0,-1.0,7501.0,-430.0,2386.0,-294.0,-11.0,-98.0,4.0,-26.0,-308.0,0.951541,-0.05112,0.30325,14940.0,-878.0,4766.0,8.0,11.0,-6.0
2869.0,2813.0,2899.0,3143.0,3039.0,0.807129,-0.019653,-0.589844,0.016357,0.0,0.0,-1.0,7482.0,-408.0,2385.0,-312.0,9.0,-100.0,0.0,-7.0,-327.0,0.951517,-0.051022,0.303423,14998.0,-846.0,4826.0,4.0,2.0,-2.0
2875.0,2811.0,2895.0,3143.0,3039.0,0.807129,-0.019592,-0.589844,0.016418,0.0,-1.0,0.0,7486.0,-400.0,2397.0,-308.0,17.0,-88.0,-9.0,0.0,-320.0,0.951517,-0.050996,0.303427,14998.0,-690.0,4886.0,12.0,0.0,0.0
2875.0,2790.0,2903.0,3147.0,3039.0,0.807129,-0.019531,-0.589844,0.016418,0.0,-1.0,-1.0,7483.0,-375.0,2420.0,-311.0,41.0,-65.0,-32.0,24.0,-317.0,0.951519,-0.050897,0.30343,14950.0,-620.0,4966.0,8.0,-3.0,-6.0
2871.0,2814.0,2899.0,3149.0,3035.0,0.807129,-0.01947,-0.589844,0.016357,0.0,-1.0,-1.0,7483.0,-382.0,2423.0,-311.0,33.0,-62.0,-35.0,16.0,-316.0,0.951523,-0.050727,0.30343,15002.0,-752.0,4794.0,11.0,-8.0,-1.0
2875.0,2811.0,2896.0,3143.0,3035.0,0.807068,-0.019348,-0.589844,0.016418,0.0,-1.0,-1.0,7484.0,-360.0,2425.0,-310.0,54.0,-59.0,-38.0,37.0,-315.0,0.951453,-0.050599,0.303338,14984.0,-564.0,4852.0,21.0,-13.0,-3.0
2871.0,2807.0,2896.0,3141.0,3037.0,0.807068,-0.019104,-0.589966,0.016357,-1.0,-1.0,-1.0,7506.0,-311.0,2422.0,-289.0,99.0,-61.0,-29.0,84.0,-298.0,0.95166,-0.050137,0.303201,15058.0,-516.0,4824.0,-1.0,-7.0,-2.0
2869.0,2811.0,2897.0,3143.0,3031.0,0.807007,-0.019104,-0.589966,0.016296,-1.0,-1.0,0.0,7509.0,-312.0,2425.0,-286.0,98.0,-58.0,-31.0,83.0,-294.0,0.95159,-0.050063,0.303101,15024.0,-648.0,4864.0,-12.0,-7.0,2.0
2867.0,2807.0,2896.0,3147.0,3035.0,0.807007,-0.019165,-0.590027,0.016296,-1.0,-1.0,0.0,7517.0,-339.0,2435.0,-279.0,71.0,-47.0,-40.0,56.0,-283.0,0.951687,-0.050163,0.303027,15084.0,-744.0,4934.0,-7.0,-6.0,6.0
2871.0,2807.0,2896.0,3143.0,3034.0,0.807007,-0.019226,-0.589966,0.016235,-1.0,-1.0,0.0,7520.0,-336.0,2455.0,-275.0,75.0,-27.0,-57.0,61.0,-273.0,0.951589,-0.050188,0.303094,15046.0,-644.0,5112.0,-10.0,-1.0,1.0
2871.0,2807.0,2896.0,3143.0,3035.0,0.807068,-0.019348,-0.589905,0.016235,-1.0,-1.0,0.0,7490.0,-376.0,2433.0,-305.0,36.0,-51.0,-44.0,20.0,-307.0,0.951558,-0.050385,0.30326,14860.0,-814.0,4722.0,-10.0,0.0,10.0
2871.0,2811.0,2899.0,3143.0,3039.0,0.807007,-0.01947,-0.589966,0.016235,-1.0,-1.0,0.0,7469.0,-390.0,2413.0,-326.0,24.0,-69.0,-33.0,7.0,-332.0,0.951581,-0.050582,0.303085,14838.0,-882.0,4734.0,-16.0,-12.0,10.0
2871.0,2807.0,2894.0,3147.0,3031.0,0.806885,-0.019653,-0.590149,0.016174,-1.0,-1.0,0.0,7453.0,-414.0,2381.0,-343.0,2.0,-98.0,-10.0,-16.0,-356.0,0.951729,-0.050806,0.302663,14832.0,-854.0,4636.0,-17.0,-20.0,2.0
2867.0,2805.0,2895.0,3143.0,3035.0,0.806824,-0.019775,-0.59021,0.016113,-1.0,-2.0,-1.0,7452.0,-425.0,2369.0,-344.0,-7.0,-108.0,-1.0,-25.0,-359.0,0.951753,-0.050931,0.302485,14924.0,-950.0,4682.0,-16.0,-25.0,-3.0
2871.0,2811.0,2896.0,3141.0,3031.0,0.806702,-0.019836,-0.590454,0.016113,-1.0,-1.0,-1.0,7464.0,-428.0,2348.0,-334.0,-9.0,-125.0,18.0,-27.0,-355.0,0.952001,-0.051032,0.301998,14920.0,-730.0,4708.0,-2.0,-13.0,-5.0
2869.0,2807.0,2896.0,3143.0,3035.0,0.806641,-0.019836,-0.590515,0.016052,-1.0,-1.0,-1.0,7474.0,-418.0,2349.0,-325.0,0.0,-123.0,19.0,-17.0,-346.0,0.95203,-0.05096,0.301825,15036.0,-816.0,4732.0,-10.0,-11.0,-11.0
2875.0,2803.0,2896.0,3141.0,3039.0,0.80658,-0.019836,-0.590515,0.015869,-1.0,0.0,-1.0,7498.0,-409.0,2350.0,-300.0,6.0,-121.0,24.0,-10.0,-322.0,0.951965,-0.050741,0.301721,15068.0,-734.0,4706.0,-8.0,2.0,-12.0
2867.0,2797.0,2893.0,3143.0,3035.0,0.806641,-0.019836,-0.590515,0.015747,-1.0,0.0,-1.0,7517.0,-397.0,2355.0,-282.0,17.0,-117.0,26.0,1.0,-304.0,0.952042,-0.0506,0.301815,15154.0,-756.0,4744.0,-11.0,8.0,-16.0
2874.0,2805.0,2897.0,3149.0,3026.0,0.806702,-0.019775,-0.590393,0.015564,-1.0,0.0,-1.0,7513.0,-365.0,2367.0,-285.0,46.0,-107.0,15.0,30.0,-305.0,0.951927,-0.050283,0.302055,14984.0,-626.0,4792.0,-8.0,13.0,-11.0
2870.0,2803.0,2896.0,3135.0,3034.0,0.806763,-0.019775,-0.590393,0.015503,-1.0,0.0,-1.0,7509.0,-347.0,2378.0,-289.0,64.0,-97.0,4.0,48.0,-307.0,0.952001,-0.050214,0.302151,14994.0,-596.0,4836.0,-9.0,8.0,-9.0
2870.0,2807.0,2896.0,3147.0,3031.0,0.806763,-0.019714,-0.590332,0.01532,-1.0,-1.0,-1.0,7510.0,-322.0,2396.0,-288.0,86.0,-79.0,-11.0,70.0,-302.0,0.951912,-0.049897,0.30222,15068.0,-604.0,4792.0,-10.0,-6.0,-3.0
2869.0,2809.0,2893.0,3141.0,3015.0,0.806763,-0.019714,-0.590393,0.015259,-1.0,-1.0,0.0,7516.0,-318.0,2403.0,-282.0,90.0,-72.0,-16.0,75.0,-294.0,0.952013,-0.049827,0.302146,15060.0,-614.0,4838.0,-5.0,-6.0,0.0
2869.0,2807.0,2897.0,3143.0,3039.0,0.806702,-0.019714,-0.590393,0.015198,-1.0,-1.0,0.0,7524.0,-322.0,2417.0,-274.0,85.0,-57.0,-28.0,71.0,-282.0,0.951943,-0.049753,0.302046,15082.0,-704.0,4814.0,-2.0,-3.0,6.0
2869.0,2813.0,2898.0,3151.0,3035.0,0.806702,-0.019653,-0.590393,0.015259,0.0,-1.0,0.0,7523.0,-321.0,2418.0,-275.0,86.0,-56.0,-29.0,71.0,-282.0,0.951942,-0.049726,0.30205,15014.0,-620.0,4846.0,9.0,-1.0,13.0
2875.0,2811.0,2899.0,3147.0,3039.0,0.806702,-0.019592,-0.590393,0.015381,0.0,-1.0,0.0,7508.0,-303.0,2410.0,-290.0,104.0,-64.0,-26.0,89.0,-300.0,0.951939,-0.049772,0.302056,15018.0,-596.0,4856.0,2.0,-10.0,17.0
2867.0,2807.0,2902.0,3147.0,3030.0,0.806702,-0.019653,-0.590454,0.015442,-1.0,-1.0,0.0,7508.0,-307.0,2404.0,-291.0,102.0,-69.0,-22.0,86.0,-302.0,0.952034,-0.049944,0.301984,15020.0,-632.0,4758.0,-4.0,-11.0,19.0
2871.0,2805.0,2893.0,3139.0,3039.0,0.806641,-0.019836,-0.590515,0.015564,-1.0,-1.0,0.0,7517.0,-361.0,2380.0,-282.0,51.0,-92.0,2.0,35.0,-298.0,0.95205,-0.050383,0.30181,15052.0,-872.0,4666.0,-1.0,-6.0,16.0
2869.0,2807.0,2899.0,3143.0,3027.0,0.80658,-0.019836,-0.590576,0.015625,0.0,-1.0,0.0,7514.0,-379.0,2376.0,-285.0,34.0,-95.0,4.0,18.0,-301.0,0.952073,-0.050455,0.301641,15026.0,-854.0,4740.0,5.0,-6.0,15.0
2871.0,2806.0,2896.0,3147.0,3035.0,0.80658,-0.019958,-0.590576,0.015747,-1.0,-1.0,0.0,7506.0,-397.0,2384.0,-293.0,19.0,-87.0,-5.0,3.0,-306.0,0.952065,-0.050796,0.30164,14986.0,-926.0,4772.0,-5.0,0.0,10.0
2865.0,2810.0,2891.0,3143.0,3031.0,0.80658,-0.02002,-0.590576,0.015747,-1.0,0.0,0.0,7492.0,-412.0,2383.0,-307.0,4.0,-88.0,-8.0,-12.0,-319.0,0.952063,-0.050894,0.301638,14870.0,-906.0,4748.0,-2.0,3.0,7.0
2871.0,2811.0,2899.0,3150.0,3039.0,0.80658,-0.020081,-0.590576,0.015808,-1.0,-1.0,0.0,7476.0,-414.0,2376.0,-323.0,4.0,-95.0,-6.0,-13.0,-336.0,0.952058,-0.051065,0.301637,14888.0,-826.0,4712.0,-2.0,-2.0,6.0
2871.0,2810.0,2898.0,3147.0,3037.0,0.80658,-0.020081,-0.590576,0.015869,0.0,0.0,0.0,7470.0,-417.0,2366.0,-329.0,1.0,-105.0,0.0,-16.0,-344.0,0.952056,-0.051137,0.301639,14902.0,-762.0,4738.0,7.0,3.0,4.0
2871.0,2805.0,2887.0,3143.0,3031.0,0.80658,-0.020081,-0.590576,0.01593,0.0,0.0,0.0,7454.0,-399.0,2373.0,-345.0,20.0,-98.0,-10.0,1.0,-359.0,0.952054,-0.051209,0.301641,14784.0,-682.0,4802.0,5.0,2.0,2.0
2871.0,2802.0,2896.0,3135.0,3045.0,0.80658,-0.020081,-0.590515,0.015869,-1.0,-1.0,0.0,7446.0,-383.0,2387.0,-352.0,35.0,-84.0,-26.0,16.0,-362.0,0.951958,-0.051135,0.301711,14870.0,-752.0,4836.0,-4.0,-2.0,0.0
2869.0,2811.0,2896.0,3143.0,3033.0,0.80658,-0.020081,-0.590515,0.015869,-1.0,-1.0,-1.0,7446.0,-388.0,2386.0,-352.0,30.0,-85.0,-25.0,11.0,-362.0,0.951958,-0.051135,0.301711,14926.0,-800.0,4744.0,-2.0,-3.0,-5.0
2867.0,2814.0,2899.0,3141.0,3035.0,0.80658,-0.019958,-0.590576,0.015808,0.0,-1.0,-1.0,7458.0,-393.0,2397.0,-341.0,23.0,-74.0,-32.0,5.0,-348.0,0.952062,-0.050868,0.301642,14938.0,-800.0,4818.0,4.0,-4.0,-11.0
2871.0,2807.0,2897.0,3143.0,3035.0,0.80658,-0.019897,-0.590576,0.015747,0.0,-1.0,-1.0,7461.0,-386.0,2403.0,-338.0,29.0,-68.0,-37.0,11.0,-343.0,0.952067,-0.050697,0.301642,14938.0,-718.0,4820.0,4.0,-7.0,-10.0
2870.0,2803.0,2891.0,3141.0,3035.0,0.80658,-0.019775,-0.590576,0.015686,0.0,0.0,-1.0,7496.0,-376.0,2402.0,-303.0,37.0,-69.0,-25.0,21.0,-311.0,0.952073,-0.050428,0.301645,15048.0,-666.0,4752.0,10.0,2.0,-11.0
2871.0,2807.0,2896.0,3143.0,3035.0,0.80658,-0.019714,-0.590515,0.015625,0.0,0.0,-1.0,7506.0,-358.0,2407.0,-292.0,53.0,-64.0,-27.0,37.0,-299.0,0.951979,-0.050256,0.301718,15048.0,-624.0,4848.0,3.0,6.0,-13.0
2875.0,2815.0,2898.0,3147.0,3039.0,0.806702,-0.019653,-0.590454,0.015442,-1.0,0.0,-1.0,7499.0,-368.0,2415.0,-300.0,41.0,-58.0,-35.0,25.0,-305.0,0.952034,-0.049944,0.301984,14966.0,-932.0,4796.0,-20.0,9.0,-8.0
2869.0,2811.0,2895.0,3143.0,3031.0,0.806702,-0.019714,-0.590393,0.015381,-1.0,0.0,-1.0,7484.0,-397.0,2406.0,-314.0,12.0,-68.0,-30.0,-4.0,-320.0,0.951936,-0.049969,0.302051,14878.0,-942.0,4744.0,-8.0,7.0,-8.0
2871.0,2807.0,2896.0,3143.0,3039.0,0.806702,-0.019653,-0.590454,0.015381,0.0,-1.0,-1.0,7489.0,-427.0,2432.0,-310.0,-18.0,-41.0,-54.0,-33.0,-306.0,0.952036,-0.049872,0.301982,15232.0,-948.0,5194.0,14.0,-21.0,-13.0
2870.0,2813.0,2897.0,3147.0,3035.0,0.806641,-0.019531,-0.590454,0.015381,1.0,-1.0,-1.0,7471.0,-397.0,2423.0,-327.0,9.0,-50.0,-51.0,-7.0,-326.0,0.951968,-0.049673,0.301888,15014.0,-544.0,5064.0,25.0,-14.0,-14.0
2870.0,2810.0,2896.0,3143.0,3039.0,0.806641,-0.019226,-0.590515,0.015259,0.0,-1.0,-1.0,7500.0,-390.0,2449.0,-299.0,11.0,-23.0,-68.0,-3.0,-292.0,0.95208,-0.049038,0.301824,15034.0,-720.0,4920.0,14.0,-11.0,-20.0
2870.0,2811.0,2898.0,3142.0,3029.0,0.806641,-0.019104,-0.590515,0.015198,0.0,-1.0,-2.0,7485.0,-369.0,2444.0,-314.0,30.0,-28.0,-68.0,14.0,-308.0,0.952086,-0.048769,0.301827,14858.0,-606.0,4836.0,11.0,-11.0,-24.0
2867.0,2803.0,2893.0,3142.0,3030.0,0.806519,-0.018921,-0.590698,0.015015,-1.0,-2.0,-1.0,7497.0,-358.0,2440.0,-303.0,37.0,-29.0,-63.0,22.0,-299.0,0.95225,-0.048258,0.301415,15066.0,-680.0,4880.0,-2.0,-28.0,-18.0
2871.0,2811.0,2896.0,3151.0,3035.0,0.806458,-0.01886,-0.59082,0.014893,-1.0,-1.0,-1.0,7514.0,-357.0,2439.0,-287.0,36.0,-28.0,-59.0,22.0,-283.0,0.952381,-0.048017,0.301171,15170.0,-708.0,4860.0,-3.0,-22.0,-16.0
2875.0,2811.0,2897.0,3147.0,3035.0,0.806396,-0.018738,-0.590881,0.014771,-1.0,-1.0,-1.0,7525.0,-329.0,2419.0,-277.0,61.0,-46.0,-39.0,47.0,-280.0,0.952416,-0.047675,0.301002,15032.0,-544.0,4784.0,-2.0,-11.0,-11.0
2869.0,2811.0,2897.0,3151.0,3039.0,0.806396,-0.018677,-0.590942,0.014648,-1.0,-1.0,-1.0,7529.0,-326.0,2411.0,-274.0,62.0,-54.0,-31.0,48.0,-280.0,0.952521,-0.047435,0.300928,15126.0,-668.0,4814.0,-11.0,-9.0,-12.0
2867.0,2803.0,2895.0,3139.0,3024.0,0.806335,-0.018677,-0.591003,0.014526,-1.0,-1.0,-1.0,7516.0,-314.0,2371.0,-287.0,73.0,-92.0,1.0,58.0,-304.0,0.952551,-0.04729,0.300754,14954.0,-556.0,4644.0,-9.0,-7.0,-3.0
2871.0,2811.0,2896.0,3143.0,3037.0,0.806274,-0.018677,-0.591064,0.014465,-1.0,-1.0,0.0,7516.0,-323.0,2364.0,-287.0,63.0,-98.0,7.0,48.0,-305.0,0.95258,-0.047217,0.300582,15070.0,-730.0,4690.0,-11.0,-15.0,0.0
2869.0,2811.0,2896.0,3143.0,3035.0,0.806213,-0.018738,-0.591187,0.014465,-1.0,-1.0,0.0,7524.0,-307.0,2371.0,-280.0,80.0,-89.0,0.0,66.0,-297.0,0.952703,-0.047317,0.300337,15040.0,-540.0,4754.0,-2.0,-7.0,6.0
2875.0,2807.0,2894.0,3143.0,3035.0,0.806152,-0.018738,-0.591187,0.014465,-1.0,-1.0,0.0,7516.0,-305.0,2368.0,-287.0,82.0,-91.0,0.0,67.0,-304.0,0.952631,-0.047314,0.300238,14986.0,-628.0,4728.0,-8.0,-3.0,7.0
2871.0,2807.0,2896.0,3143.0,3037.0,0.806091,-0.018799,-0.591248,0.014526,0.0,-1.0,0.0,7509.0,-326.0,2339.0,-295.0,62.0,-119.0,24.0,46.0,-319.0,0.952653,-0.047485,0.300067,15042.0,-688.0,4634.0,2.0,-8.0,12.0
2870.0,2811.0,2899.0,3143.0,3031.0,0.806091,-0.018799,-0.591309,0.014526,0.0,-1.0,0.0,7511.0,-327.0,2339.0,-293.0,62.0,-118.0,24.0,47.0,-317.0,0.952751,-0.047486,0.299995,15028.0,-664.0,4718.0,5.0,-8.0,6.0
2871.0,2811.0,2899.0,3151.0,3039.0,0.80603,-0.01886,-0.59137,0.014465,-1.0,-1.0,0.0,7525.0,-322.0,2339.0,-280.0,67.0,-117.0,27.0,52.0,-305.0,0.952778,-0.047512,0.29982,15126.0,-740.0,4648.0,-19.0,-5.0,2.0
2875.0,2809.0,2897.0,3135.0,3035.0,0.80603,-0.018921,-0.59137,0.014465,-1.0,0.0,0.0,7527.0,-349.0,2341.0,-278.0,41.0,-115.0,26.0,26.0,-301.0,0.952776,-0.04761,0.299818,15052.0,-810.0,4650.0,-11.0,6.0,3.0
2874.0,2807.0,2887.0,3141.0,3031.0,0.806091,-0.018921,-0.591309,0.014526,0.0,0.0,0.0,7505.0,-364.0,2329.0,-299.0,26.0,-128.0,32.0,10.0,-324.0,0.952748,-0.047683,0.29999,14928.0,-700.0,4668.0,10.0,14.0,3.0
2869.0,2811.0,2897.0,3147.0,3035.0,0.806152,-0.018921,-0.591248,0.014526,0.0,0.0,0.0,7499.0,-343.0,2334.0,-305.0,47.0,-124.0,26.0,31.0,-330.0,0.952721,-0.047684,0.300161,14992.0,-566.0,4656.0,2.0,13.0,1.0
2867.0,2823.0,2899.0,3123.0,3039.0,0.806213,-0.018982,-0.591125,0.014465,-1.0,1.0,0.0,7504.0,-335.0,2349.0,-299.0,55.0,-111.0,15.0,39.0,-320.0,0.952597,-0.047709,0.3004,14914.0,-668.0,4692.0,-16.0,24.0,8.0
2874.0,2811.0,2899.0,3111.0,3037.0,0.806274,-0.019104,-0.591003,0.014465,-1.0,0.0,0.0,7484.0,-340.0,2352.0,-318.0,52.0,-110.0,9.0,35.0,-338.0,0.952469,-0.047904,0.300638,14864.0,-720.0,4746.0,-17.0,16.0,10.0
2867.0,2807.0,2896.0,3143.0,3031.0,0.806335,-0.019226,-0.590942,0.014465,-1.0,-1.0,0.0,7478.0,-344.0,2381.0,-324.0,50.0,-83.0,-18.0,33.0,-335.0,0.952439,-0.048102,0.300804,14954.0,-636.0,4852.0,-1.0,-1.0,9.0
2874.0,2811.0,2897.0,3147.0,3039.0,0.806335,-0.019226,-0.590942,0.014465,-1.0,0.0,0.0,7487.0,-343.0,2396.0,-315.0,51.0,-68.0,-30.0,35.0,-322.0,0.952439,-0.048102,0.300804,15040.0,-682.0,4884.0,-1.0,2.0,6.0
2871.0,2810.0,2895.0,3143.0,3038.0,0.806396,-0.019287,-0.590881,0.014526,-1.0,-1.0,0.0,7481.0,-361.0,2425.0,-321.0,34.0,-40.0,-58.0,18.0,-319.0,0.952409,-0.048273,0.300974,14922.0,-764.0,4868.0,-5.0,-6.0,11.0
2870.0,2807.0,2898.0,3139.0,3035.0,0.806396,-0.019348,-0.590881,0.014587,0.0,-1.0,0.0,7483.0,-374.0,2430.0,-319.0,22.0,-35.0,-62.0,6.0,-315.0,0.952405,-0.048443,0.300973,15018.0,-800.0,4880.0,6.0,-9.0,6.0
2870.0,2807.0,2896.0,3135.0,3031.0,0.806396,-0.019165,-0.590881,0.014648,0.0,-1.0,0.0,7488.0,-360.0,2420.0,-314.0,35.0,-45.0,-51.0,19.0,-314.0,0.952408,-0.04822,0.300982,14964.0,-670.0,4808.0,16.0,-5.0,1.0
2871.0,2810.0,2897.0,3143.0,3027.0,0.806396,-0.019104,-0.590881,0.014709,0.0,-1.0,0.0,7485.0,-341.0,2419.0,-317.0,53.0,-46.0,-51.0,37.0,-318.0,0.952407,-0.048194,0.300986,14934.0,-564.0,4810.0,9.0,-7.0,2.0
2871.0,2811.0,2899.0,3143.0,3035.0,0.806335,-0.019165,-0.590942,0.014648,-1.0,-1.0,0.0,7491.0,-320.0,2398.0,-311.0,75.0,-66.0,-30.0,59.0,-319.0,0.952434,-0.04822,0.300811,15004.0,-602.0,4764.0,-16.0,-11.0,9.0
2870.0,2813.0,2897.0,3147.0,3037.0,0.806274,-0.019226,-0.591003,0.014648,-1.0,-1.0,0.0,7490.0,-336.0,2386.0,-312.0,59.0,-76.0,-21.0,43.0,-322.0,0.952459,-0.048318,0.300638,14972.0,-778.0,4682.0,-19.0,-8.0,7.0
2869.0,2806.0,2895.0,3147.0,3031.0,0.806213,-0.019348,-0.591064,0.014648,0.0,-1.0,0.0,7478.0,-366.0,2374.0,-324.0,31.0,-87.0,-14.0,14.0,-336.0,0.952481,-0.048514,0.300463,14936.0,-716.0,4732.0,3.0,-8.0,5.0
2875.0,2810.0,2899.0,3147.0,3039.0,0.806213,-0.019348,-0.591125,0.014648,0.0,-1.0,0.0,7485.0,-359.0,2372.0,-318.0,38.0,-88.0,-11.0,21.0,-331.0,0.95258,-0.048516,0.300391,15026.0,-722.0,4758.0,3.0,-7.0,0.0
2871.0,2807.0,2897.0,3143.0,3039.0,0.806274,-0.019287,-0.591064,0.014648,-1.0,0.0,-1.0,7476.0,-361.0,2365.0,-327.0,35.0,-97.0,-5.0,18.0,-342.0,0.952555,-0.048418,0.300564,14852.0,-724.0,4688.0,-3.0,9.0,-2.0
2879.0,2807.0,2895.0,3139.0,3031.0,0.806274,-0.019348,-0.591064,0.014587,-1.0,0.0,-1.0,7474.0,-375.0,2366.0,-329.0,21.0,-96.0,-7.0,4.0,-343.0,0.952556,-0.048444,0.30056,14954.0,-852.0,4740.0,-8.0,4.0,-4.0
2875.0,2810.0,2896.0,3147.0,3031.0,0.806335,-0.019287,-0.591003,0.014526,0.0,0.0,-1.0,7486.0,-371.0,2375.0,-317.0,24.0,-88.0,-11.0,8.0,-329.0,0.952534,-0.048274,0.300731,14968.0,-686.0,4784.0,1.0,6.0,-12.0
2870.0,2810.0,2896.0,3143.0,3035.0,0.806335,-0.019226,-0.590942,0.014465,-1.0,0.0,-1.0,7491.0,-363.0,2385.0,-311.0,31.0,-79.0,-18.0,15.0,-321.0,0.952439,-0.048102,0.300804,15042.0,-696.0,4816.0,-6.0,2.0,-11.0
2867.0,2811.0,2898.0,3142.0,3039.0,0.806335,-0.019287,-0.590942,0.014282,-1.0,0.0,-1.0,7523.0,-366.0,2417.0,-279.0,27.0,-47.0,-39.0,13.0,-281.0,0.952445,-0.047984,0.300796,15160.0,-794.0,4922.0,-10.0,1.0,-7.0
2871.0,2795.0,2895.0,3143.0,3031.0,0.806396,-0.019287,-0.590881,0.014282,-1.0,0.0,-1.0,7528.0,-366.0,2430.0,-274.0,27.0,-35.0,-49.0,13.0,-272.0,0.952418,-0.047984,0.300967,15056.0,-716.0,4984.0,-2.0,3.0,-2.0
2871.0,2809.0,2895.0,3147.0,3031.0,0.806458,-0.019226,-0.59082,0.014221,-1.0,0.0,-1.0,7525.0,-331.0,2435.0,-277.0,60.0,-31.0,-53.0,46.0,-276.0,0.952396,-0.047814,0.301138,14960.0,-554.0,4878.0,-3.0,6.0,-3.0
2871.0,2807.0,2895.0,3143.0,3031.0,0.806458,-0.019165,-0.590759,0.01416,-1.0,-1.0,0.0,7515.0,-315.0,2437.0,-286.0,75.0,-30.0,-57.0,61.0,-284.0,0.952302,-0.047642,0.30121,14968.0,-514.0,4832.0,-10.0,0.0,0.0
2871.0,2807.0,2896.0,3147.0,3035.0,0.806458,-0.019287,-0.59082,0.014038,-1.0,-1.0,0.0,7522.0,-334.0,2437.0,-280.0,56.0,-29.0,-56.0,42.0,-278.0,0.952401,-0.047696,0.30113,15072.0,-770.0,4842.0,-5.0,-13.0,6.0
2871.0,2805.0,2895.0,3147.0,3031.0,0.806396,-0.019287,-0.590881,0.014099,0.0,-1.0,0.0,7522.0,-328.0,2433.0,-280.0,63.0,-32.0,-53.0,49.0,-279.0,0.952425,-0.047768,0.300961,15046.0,-580.0,4850.0,7.0,-15.0,10.0
2870.0,2807.0,2896.0,3142.0,3035.0,0.806335,-0.019226,-0.590942,0.01416,-1.0,-1.0,0.0,7532.0,-313.0,2437.0,-270.0,78.0,-27.0,-55.0,65.0,-269.0,0.952451,-0.047741,0.300795,15054.0,-616.0,4894.0,-6.0,-14.0,8.0
2875.0,2807.0,2897.0,3147.0,3035.0,0.806335,-0.019287,-0.591003,0.01416,-1.0,-1.0,0.0,7523.0,-320.0,2426.0,-280.0,71.0,-37.0,-49.0,57.0,-281.0,0.952548,-0.047841,0.30072,14980.0,-682.0,4800.0,-14.0,-13.0,6.0
2873.0,2809.0,2898.0,3143.0,3035.0,0.806213,-0.019409,-0.591125,0.014099,-1.0,-1.0,0.0,7512.0,-363.0,2397.0,-291.0,29.0,-63.0,-27.0,14.0,-297.0,0.952599,-0.047965,0.300373,15044.0,-864.0,4748.0,-8.0,-19.0,4.0
2871.0,2807.0,2896.0,3143.0,3035.0,0.806152,-0.01947,-0.591187,0.014099,0.0,-1.0,0.0,7502.0,-377.0,2372.0,-301.0,16.0,-87.0,-7.0,0.0,-313.0,0.952624,-0.048062,0.3002,14848.0,-814.0,4538.0,1.0,-11.0,7.0
2871.0,2811.0,2895.0,3147.0,3035.0,0.806091,-0.019531,-0.591309,0.01416,-1.0,-1.0,0.0,7512.0,-369.0,2364.0,-292.0,26.0,-93.0,1.0,11.0,-307.0,0.952744,-0.048234,0.299956,15068.0,-704.0,4738.0,-10.0,-8.0,6.0
2874.0,2815.0,2897.0,3143.0,3031.0,0.80603,-0.019653,-0.59137,0.014099,-1.0,-1.0,0.0,7506.0,-366.0,2360.0,-299.0,30.0,-95.0,0.0,14.0,-314.0,0.952769,-0.048358,0.299779,14986.0,-708.0,4692.0,-21.0,-6.0,8.0
2871.0,2811.0,2895.0,3147.0,3035.0,0.805969,-0.019897,-0.591431,0.014099,-1.0,-1.0,0.0,7510.0,-387.0,2372.0,-295.0,12.0,-82.0,-10.0,-2.0,-306.0,0.952789,-0.048751,0.299599,15028.0,-812.0,4748.0,-12.0,-7.0,10.0
2869.0,2807.0,2894.0,3142.0,3031.0,0.805969,-0.019958,-0.591431,0.014099,-1.0,-1.0,0.0,7506.0,-383.0,2369.0,-299.0,17.0,-85.0,-8.0,1.0,-311.0,0.952787,-0.048849,0.299597,14994.0,-728.0,4710.0,-1.0,-4.0,7.0
2870.0,2811.0,2897.0,3145.0,3035.0,0.805969,-0.019897,-0.591492,0.01416,-1.0,-1.0,0.0,7489.0,-345.0,2368.0,-317.0,54.0,-85.0,-13.0,37.0,-330.0,0.952885,-0.048825,0.299529,14976.0,-632.0,4786.0,-1.0,-9.0,3.0
