flex_1,flex_2,flex_3,flex_4,flex_5,Qw,Qx,Qy,Qz,GYRx,GYRy,GYRz,ACCx,ACCy,ACCz,ACCx_real,ACCy_real,ACCz_real,ACCx_world,ACCy_world,ACCz_world,GRAx,GRAy,GRAz,ACCx_raw,ACCy_raw,ACCz_raw,GYRx_raw,GYRy_raw,GYRz_raw
2875.0,2767.0,2906.0,3151.0,3043.0,1.0,0.0,0.0,0.0,0.0,0.0,0.0,0.0,0.0,0.0,0.0,0.0,0.0,0.0,0.0,0.0,0.0,0.0,0.0,0.0,0.0,0.0,0.0,0.0,0.0
2878.0,2765.0,2891.0,3153.0,3039.0,0.879761,0.03302,-0.474243,-0.000244,-1.0,0.0,0.0,7659.0,576.0,1809.0,823.0,98.0,-2680.0,2686.0,226.0,-776.0,0.834425,0.058331,0.547982,15304.0,1140.0,3628.0,-4.0,20.0,5.0
2865.0,2766.0,2899.0,3151.0,3045.0,0.878601,0.033203,-0.476318,-0.000122,0.0,0.0,0.0,7637.0,573.0,1815.0,780.0,94.0,-2641.0,2633.0,222.0,-778.0,0.83698,0.058461,0.543958,15226.0,1206.0,3664.0,7.0,14.0,9.0
2877.0,2769.0,2897.0,3143.0,3047.0,0.878052,0.033325,-0.477356,-0.000122,0.0,0.0,0.0,7636.0,581.0,1838.0,768.0,100.0,-2602.0,2596.0,227.0,-760.0,0.838278,0.058639,0.541996,15272.0,1216.0,3812.0,10.0,10.0,9.0
2877.0,2763.0,2906.0,3135.0,3025.0,0.876953,0.033508,-0.479431,0.0,-1.0,0.0,0.0,7623.0,588.0,1862.0,734.0,106.0,-2545.0,2533.0,231.0,-745.0,0.840877,0.05877,0.53807,15186.0,1164.0,3772.0,-3.0,4.0,11.0
2875.0,2767.0,2896.0,3151.0,3039.0,0.876343,0.033569,-0.480469,0.0,-1.0,-1.0,0.0,7621.0,578.0,1877.0,722.0,96.0,-2513.0,2501.0,220.0,-733.0,0.842111,0.058836,0.536,15242.0,1080.0,3844.0,-7.0,-1.0,10.0
2879.0,2771.0,2896.0,3153.0,3031.0,0.875183,0.033569,-0.482605,6.1e-05,-1.0,-1.0,0.0,7602.0,543.0,1874.0,681.0,62.0,-2483.0,2459.0,185.0,-741.0,0.84474,0.0587,0.531911,15140.0,988.0,3718.0,-3.0,-11.0,8.0
2869.0,2768.0,2909.0,3151.0,3031.0,0.874573,0.03363,-0.483704,0.000122,0.0,-1.0,0.0,7608.0,529.0,1873.0,676.0,48.0,-2466.0,2444.0,171.0,-731.0,0.846076,0.058706,0.529777,15302.0,996.0,3774.0,10.0,-18.0,5.0
2875.0,2764.0,2907.0,3143.0,3031.0,0.873413,0.033936,-0.48584,0.000244,0.0,-1.0,0.0,7636.0,549.0,1873.0,683.0,65.0,-2433.0,2423.0,187.0,-695.0,0.848694,0.059042,0.525658,15324.0,1236.0,3754.0,19.0,-2.0,2.0
2871.0,2768.0,2915.0,3152.0,3035.0,0.872803,0.034058,-0.486816,0.000244,0.0,0.0,0.0,7630.0,565.0,1868.0,668.0,79.0,-2421.0,2405.0,201.0,-695.0,0.849806,0.059213,0.523635,15188.0,1224.0,3658.0,5.0,2.0,3.0
2880.0,2763.0,2896.0,3150.0,3027.0,0.871704,0.034241,-0.488831,0.000244,-1.0,-1.0,0.0,7602.0,567.0,1854.0,620.0,79.0,-2403.0,2368.0,202.0,-715.0,0.852248,0.059457,0.51974,15182.0,1116.0,3656.0,-1.0,-10.0,6.0
2882.0,2759.0,2899.0,3152.0,3037.0,0.871094,0.034302,-0.489868,0.000305,0.0,-1.0,0.0,7601.0,566.0,1849.0,609.0,78.0,-2391.0,2354.0,201.0,-713.0,0.853463,0.059461,0.517657,15196.0,1146.0,3694.0,2.0,-13.0,4.0
2875.0,2763.0,2887.0,3135.0,3039.0,0.869934,0.034424,-0.492004,0.000305,-1.0,-1.0,0.0,7612.0,557.0,1835.0,599.0,68.0,-2371.0,2336.0,190.0,-700.0,0.856044,0.059593,0.513532,15256.0,1028.0,3620.0,-5.0,-16.0,4.0
2871.0,2763.0,2907.0,3151.0,3035.0,0.869324,0.034485,-0.493042,0.000305,0.0,-1.0,0.0,7624.0,545.0,1819.0,601.0,56.0,-2370.0,2338.0,178.0,-693.0,0.857247,0.059656,0.511444,15312.0,1038.0,3528.0,3.0,-11.0,4.0
2879.0,2763.0,2901.0,3147.0,3035.0,0.868164,0.034729,-0.495056,0.000366,0.0,-1.0,0.0,7626.0,555.0,1793.0,584.0,63.0,-2363.0,2326.0,186.0,-693.0,0.859605,0.059938,0.507422,15254.0,1232.0,3488.0,12.0,0.0,1.0
2883.0,2767.0,2909.0,3149.0,3051.0,0.867615,0.034851,-0.496033,0.000366,-1.0,0.0,0.0,7630.0,574.0,1786.0,578.0,81.0,-2354.0,2316.0,204.0,-687.0,0.860756,0.060111,0.505492,15270.0,1262.0,3590.0,0.0,5.0,3.0
2877.0,2771.0,2903.0,3151.0,3015.0,0.866516,0.034912,-0.497864,0.000305,-1.0,0.0,0.0,7638.0,564.0,1767.0,569.0,70.0,-2343.0,2305.0,192.0,-680.0,0.862835,0.0602,0.501763,15284.0,1054.0,3472.0,-12.0,8.0,0.0
2870.0,2775.0,2907.0,3147.0,3031.0,0.866028,0.034912,-0.498779,0.000305,-1.0,0.0,0.0,7635.0,552.0,1766.0,557.0,59.0,-2330.0,2290.0,181.0,-680.0,0.863935,0.060165,0.500005,15234.0,1052.0,3514.0,-5.0,11.0,2.0
2869.0,2769.0,2898.0,3151.0,3031.0,0.864929,0.035034,-0.50061,0.000305,0.0,0.0,0.0,7635.0,560.0,1788.0,540.0,66.0,-2277.0,2238.0,185.0,-658.0,0.866006,0.060299,0.496265,15328.0,1140.0,3654.0,1.0,4.0,4.0
2877.0,2755.0,2897.0,3147.0,3015.0,0.864441,0.035156,-0.501465,0.000366,0.0,0.0,0.0,7638.0,570.0,1810.0,535.0,75.0,-2241.0,2206.0,193.0,-639.0,0.866999,0.060414,0.494555,15282.0,1228.0,3754.0,1.0,11.0,3.0
2883.0,2769.0,2897.0,3143.0,3025.0,0.863953,0.035217,-0.502319,0.000305,-1.0,0.0,0.0,7631.0,582.0,1821.0,520.0,86.0,-2216.0,2177.0,203.0,-635.0,0.867982,0.060546,0.492849,15216.0,1240.0,3696.0,-3.0,8.0,3.0
2879.0,2767.0,2911.0,3150.0,3039.0,0.862915,0.035339,-0.504028,0.000305,-1.0,0.0,0.0,7631.0,588.0,1836.0,504.0,90.0,-2172.0,2133.0,205.0,-618.0,0.869889,0.060682,0.489329,15270.0,1164.0,3704.0,-5.0,1.0,4.0
2867.0,2771.0,2903.0,3155.0,3023.0,0.862427,0.0354,-0.504944,0.000305,-1.0,0.0,0.0,7629.0,582.0,1836.0,493.0,84.0,-2158.0,2118.0,198.0,-617.0,0.870976,0.060752,0.487559,15246.0,1122.0,3662.0,0.0,1.0,5.0
2864.0,2769.0,2894.0,3151.0,3051.0,0.861389,0.035522,-0.506714,0.000366,0.0,-1.0,0.0,7619.0,581.0,1838.0,467.0,82.0,-2126.0,2080.0,196.0,-616.0,0.872982,0.060826,0.483971,15196.0,1170.0,3744.0,4.0,-9.0,6.0
2870.0,2769.0,2899.0,3155.0,3039.0,0.86084,0.035645,-0.507568,0.000366,-1.0,-1.0,0.0,7615.0,591.0,1838.0,456.0,91.0,-2111.0,2062.0,204.0,-613.0,0.873896,0.060997,0.482149,15208.0,1242.0,3654.0,0.0,-13.0,10.0
2879.0,2770.0,2902.0,3151.0,3030.0,0.859741,0.035645,-0.50946,0.000366,-1.0,-1.0,0.0,7632.0,570.0,1825.0,455.0,70.0,-2093.0,2049.0,182.0,-598.0,0.876034,0.060917,0.478335,15328.0,1006.0,3652.0,-9.0,-13.0,9.0
2864.0,2767.0,2910.0,3158.0,3035.0,0.859192,0.035645,-0.510315,0.000427,-1.0,-1.0,0.0,7636.0,557.0,1813.0,452.0,58.0,-2090.0,2047.0,170.0,-596.0,0.876947,0.060815,0.476519,15260.0,1054.0,3542.0,-1.0,-5.0,9.0
2871.0,2755.0,2909.0,3145.0,3031.0,0.858215,0.035767,-0.512085,0.000488,0.0,-1.0,0.0,7627.0,552.0,1814.0,426.0,53.0,-2061.0,2012.0,165.0,-597.0,0.878993,0.060891,0.473024,15266.0,1104.0,3654.0,6.0,-7.0,8.0
2882.0,2753.0,2909.0,3157.0,3047.0,0.857666,0.035828,-0.512939,0.000549,0.0,-1.0,0.0,7633.0,556.0,1805.0,424.0,57.0,-2055.0,2006.0,169.0,-591.0,0.879901,0.060893,0.471201,15304.0,1126.0,3570.0,2.0,-2.0,7.0
2879.0,2774.0,2907.0,3157.0,3035.0,0.856689,0.03595,-0.514526,0.000549,-1.0,0.0,0.0,7631.0,569.0,1798.0,408.0,69.0,-2034.0,1982.0,180.0,-587.0,0.881618,0.06103,0.467887,15250.0,1134.0,3576.0,-12.0,6.0,5.0
2865.0,2768.0,2882.0,3127.0,3031.0,0.856201,0.035889,-0.51532,0.000488,-1.0,0.0,0.0,7628.0,554.0,1792.0,398.0,54.0,-2027.0,1973.0,165.0,-590.0,0.88247,0.060953,0.466238,15232.0,1034.0,3558.0,-11.0,6.0,4.0
2879.0,2757.0,2905.0,3134.0,3031.0,0.855286,0.036011,-0.516846,0.000549,0.0,0.0,0.0,7617.0,544.0,1800.0,374.0,44.0,-1993.0,1934.0,154.0,-589.0,0.884141,0.061031,0.463088,15196.0,1090.0,3644.0,4.0,6.0,5.0
2881.0,2774.0,2911.0,3147.0,3031.0,0.854858,0.036072,-0.517639,0.000549,0.0,0.0,0.0,7617.0,556.0,1805.0,366.0,55.0,-1975.0,1915.0,164.0,-584.0,0.885056,0.061104,0.461532,15240.0,1188.0,3654.0,3.0,2.0,7.0
2879.0,2767.0,2915.0,3151.0,3039.0,0.853882,0.036133,-0.519165,0.00061,-1.0,-1.0,0.0,7615.0,558.0,1825.0,351.0,57.0,-1929.0,1869.0,164.0,-569.0,0.886655,0.061073,0.458277,15176.0,1130.0,3702.0,-1.0,-1.0,7.0
2873.0,2759.0,2886.0,3135.0,3039.0,0.853394,0.036194,-0.519958,0.00061,-1.0,-1.0,0.0,7598.0,564.0,1828.0,327.0,63.0,-1912.0,1844.0,170.0,-578.0,0.887503,0.06114,0.456614,15108.0,1170.0,3684.0,-1.0,-19.0,5.0
2883.0,2768.0,2905.0,3142.0,3027.0,0.852356,0.036316,-0.521667,0.00061,-1.0,-2.0,0.0,7643.0,567.0,1868.0,357.0,65.0,-1843.0,1799.0,166.0,-513.0,0.889337,0.061271,0.453055,15488.0,1160.0,3846.0,-3.0,-23.0,1.0
2877.0,2762.0,2915.0,3153.0,3043.0,0.851868,0.036377,-0.522461,0.000549,-1.0,-1.0,-1.0,7657.0,581.0,1869.0,364.0,77.0,-1828.0,1789.0,177.0,-496.0,0.890175,0.061403,0.45139,15334.0,1264.0,3668.0,-6.0,-3.0,-4.0
2870.0,2769.0,2895.0,3143.0,3039.0,0.851013,0.036316,-0.523865,0.000366,-2.0,0.0,0.0,7649.0,568.0,1838.0,344.0,64.0,-1835.0,1788.0,165.0,-512.0,0.891658,0.061427,0.44847,15288.0,990.0,3524.0,-29.0,1.0,1.0
2879.0,2755.0,2903.0,3143.0,3039.0,0.850525,0.036255,-0.524597,0.000305,-1.0,0.0,0.0,7645.0,549.0,1820.0,334.0,46.0,-1840.0,1790.0,147.0,-521.0,0.892388,0.061351,0.446876,15270.0,978.0,3534.0,-20.0,5.0,2.0
2871.0,2768.0,2889.0,3151.0,3035.0,0.84967,0.036316,-0.526001,0.000305,-1.0,0.0,0.0,7629.0,544.0,1794.0,306.0,41.0,-1842.0,1781.0,143.0,-541.0,0.893877,0.061392,0.443944,15226.0,1118.0,3546.0,-1.0,9.0,0.0
2875.0,2768.0,2903.0,3143.0,3031.0,0.849243,0.036377,-0.526733,0.000305,-1.0,0.0,0.0,7624.0,557.0,1790.0,294.0,53.0,-1834.0,1769.0,155.0,-545.0,0.894672,0.061464,0.442443,15222.0,1186.0,3594.0,-5.0,9.0,1.0
2879.0,2770.0,2910.0,3149.0,3045.0,0.84845,0.036438,-0.528076,0.000244,-1.0,0.0,0.0,7613.0,576.0,1785.0,272.0,71.0,-1816.0,1744.0,173.0,-550.0,0.89611,0.061574,0.439675,15236.0,1250.0,3602.0,-10.0,9.0,3.0
2864.0,2759.0,2907.0,3131.0,3023.0,0.848022,0.036438,-0.528687,0.000183,-1.0,0.0,0.0,7626.0,586.0,1793.0,280.0,81.0,-1797.0,1731.0,181.0,-531.0,0.896689,0.061607,0.438305,15350.0,1210.0,3670.0,-12.0,12.0,2.0
2870.0,2765.0,2881.0,3135.0,3035.0,0.84729,0.036438,-0.529907,0.000122,-1.0,1.0,0.0,7640.0,584.0,1800.0,283.0,79.0,-1769.0,1709.0,177.0,-511.0,0.897979,0.061618,0.435771,15236.0,1116.0,3664.0,-16.0,25.0,6.0
2871.0,2768.0,2905.0,3151.0,3031.0,0.846924,0.036438,-0.530457,0.000122,-1.0,1.0,0.0,7634.0,577.0,1801.0,273.0,72.0,-1758.0,1696.0,170.0,-514.0,0.898521,0.061591,0.434568,15168.0,1112.0,3574.0,-10.0,26.0,8.0
2879.0,2767.0,2909.0,3143.0,3039.0,0.84613,0.036499,-0.531738,0.000183,-1.0,0.0,0.0,7594.0,565.0,1791.0,222.0,60.0,-1746.0,1665.0,159.0,-550.0,0.899853,0.061571,0.431859,15114.0,1026.0,3532.0,-1.0,1.0,10.0
2879.0,2770.0,2899.0,3135.0,3027.0,0.845642,0.036499,-0.532471,0.000244,0.0,-1.0,0.0,7591.0,551.0,1794.0,213.0,47.0,-1730.0,1648.0,145.0,-549.0,0.900577,0.06147,0.430253,15168.0,1016.0,3632.0,10.0,-14.0,13.0
2871.0,2759.0,2895.0,3153.0,3030.0,0.844727,0.036682,-0.533936,0.000488,0.0,-2.0,0.0,7606.0,566.0,1813.0,216.0,62.0,-1686.0,1611.0,158.0,-521.0,0.902095,0.061451,0.42713,15306.0,1232.0,3720.0,16.0,-24.0,17.0
2877.0,2768.0,2909.0,3157.0,3039.0,0.844238,0.036743,-0.534668,0.000549,0.0,-1.0,0.0,7635.0,578.0,1828.0,239.0,74.0,-1657.0,1595.0,168.0,-484.0,0.902815,0.061453,0.425519,15454.0,1212.0,3756.0,4.0,-17.0,17.0
2881.0,2768.0,2911.0,3153.0,3039.0,0.843445,0.036804,-0.536011,0.00061,-1.0,0.0,0.0,7677.0,558.0,1831.0,269.0,54.0,-1632.0,1587.0,145.0,-443.0,0.904236,0.06143,0.422737,15456.0,1032.0,3686.0,-2.0,11.0,11.0
2879.0,2767.0,2896.0,3151.0,3023.0,0.843079,0.036804,-0.536499,0.000671,0.0,1.0,0.0,7680.0,546.0,1829.0,268.0,43.0,-1624.0,1580.0,134.0,-439.0,0.904671,0.061337,0.421596,15338.0,1028.0,3636.0,3.0,26.0,6.0
2887.0,2767.0,2897.0,3151.0,3027.0,0.842407,0.036865,-0.537537,0.000671,-1.0,1.0,0.0,7654.0,550.0,1822.0,234.0,47.0,-1613.0,1557.0,139.0,-461.0,0.905699,0.061389,0.419346,15260.0,1104.0,3680.0,-15.0,30.0,1.0
2877.0,2768.0,2899.0,3143.0,3031.0,0.842102,0.036804,-0.538025,0.00061,-2.0,1.0,0.0,7649.0,548.0,1826.0,225.0,45.0,-1600.0,1542.0,136.0,-462.0,0.906189,0.061329,0.418311,15262.0,1078.0,3676.0,-27.0,31.0,0.0
2879.0,2770.0,2903.0,3153.0,3031.0,0.841492,0.036621,-0.539001,0.000427,-2.0,0.0,0.0,7600.0,523.0,1811.0,168.0,21.0,-1598.0,1519.0,113.0,-511.0,0.907162,0.061172,0.416245,15054.0,1010.0,3642.0,-24.0,17.0,2.0
2871.0,2755.0,2899.0,3143.0,3031.0,0.841187,0.03656,-0.539551,0.000427,-1.0,0.0,0.0,7593.0,504.0,1824.0,156.0,3.0,-1576.0,1495.0,94.0,-512.0,0.907757,0.061047,0.415143,15158.0,910.0,3686.0,-19.0,6.0,4.0
2867.0,2762.0,2890.0,3134.0,3027.0,0.840393,0.036621,-0.54071,0.000427,0.0,-1.0,-1.0,7595.0,509.0,1854.0,149.0,8.0,-1525.0,1447.0,96.0,-493.0,0.90885,0.06109,0.412552,15226.0,1116.0,3812.0,8.0,-7.0,-2.0
2875.0,2768.0,2903.0,3151.0,3027.0,0.840027,0.036743,-0.541321,0.000427,0.0,-1.0,-1.0,7611.0,532.0,1869.0,160.0,30.0,-1500.0,1429.0,116.0,-469.0,0.909479,0.061268,0.411267,15326.0,1202.0,3826.0,2.0,-9.0,-4.0
2879.0,2768.0,2903.0,3153.0,3035.0,0.839233,0.036804,-0.542542,0.000305,-1.0,-1.0,0.0,7620.0,550.0,1878.0,159.0,46.0,-1469.0,1401.0,130.0,-452.0,0.91066,0.061443,0.408607,15196.0,1112.0,3762.0,-5.0,-11.0,3.0
2870.0,2765.0,2897.0,3147.0,3031.0,0.838806,0.036865,-0.543152,0.000366,0.0,-1.0,0.0,7603.0,557.0,1870.0,138.0,53.0,-1465.0,1389.0,138.0,-467.0,0.911225,0.061448,0.407223,15068.0,1136.0,3674.0,2.0,-18.0,6.0
2871.0,2765.0,2905.0,3143.0,3031.0,0.837891,0.036987,-0.544617,0.000488,0.0,-2.0,0.0,7613.0,555.0,1872.0,136.0,51.0,-1438.0,1365.0,135.0,-453.0,0.912695,0.061451,0.404086,15332.0,1112.0,3832.0,14.0,-39.0,19.0
2878.0,2767.0,2905.0,3155.0,3031.0,0.837402,0.037048,-0.545288,0.00061,0.0,-2.0,0.0,7615.0,557.0,1869.0,133.0,54.0,-1428.0,1355.0,138.0,-450.0,0.913296,0.061383,0.402531,15194.0,1146.0,3652.0,15.0,-31.0,20.0
2878.0,2767.0,2907.0,3152.0,3029.0,0.836487,0.03717,-0.546692,0.000793,0.0,-2.0,0.0,7621.0,556.0,1861.0,128.0,53.0,-1411.0,1339.0,136.0,-443.0,0.91466,0.061318,0.399457,15290.0,1112.0,3676.0,11.0,-40.0,13.0
2877.0,2755.0,2899.0,3147.0,3035.0,0.835999,0.037231,-0.547424,0.000793,0.0,-2.0,0.0,7633.0,552.0,1857.0,134.0,49.0,-1402.0,1334.0,132.0,-432.0,0.915351,0.061382,0.397835,15340.0,1068.0,3708.0,7.0,-38.0,9.0
2877.0,2769.0,2899.0,3143.0,3031.0,0.835205,0.037292,-0.548706,0.000916,-1.0,-1.0,0.0,7645.0,547.0,1833.0,135.0,44.0,-1403.0,1337.0,127.0,-427.0,0.916632,0.061289,0.395099,15206.0,1082.0,3530.0,-1.0,-8.0,9.0
2874.0,2767.0,2903.0,3147.0,3046.0,0.834778,0.037292,-0.549255,0.000916,-1.0,-1.0,0.0,7637.0,548.0,1821.0,124.0,46.0,-1404.0,1334.0,129.0,-436.0,0.917081,0.061256,0.393783,15252.0,1088.0,3602.0,-9.0,-8.0,7.0
2879.0,2769.0,2903.0,3155.0,3024.0,0.834045,0.037231,-0.550415,0.000854,-1.0,-1.0,0.0,7624.0,525.0,1784.0,102.0,23.0,-1421.0,1343.0,108.0,-460.0,0.918206,0.061165,0.39129,15146.0,980.0,3410.0,-11.0,0.0,5.0
2875.0,2763.0,2879.0,3141.0,3035.0,0.833679,0.037231,-0.550964,0.000916,-1.0,-1.0,0.0,7611.0,519.0,1767.0,84.0,18.0,-1428.0,1343.0,104.0,-478.0,0.918723,0.061069,0.390074,15162.0,1006.0,3460.0,-2.0,-10.0,5.0
2877.0,2767.0,2903.0,3147.0,3035.0,0.832886,0.037415,-0.552185,0.000977,0.0,-1.0,0.0,7644.0,509.0,1772.0,108.0,7.0,-1401.0,1330.0,91.0,-442.0,0.919887,0.061246,0.387391,15386.0,1058.0,3532.0,21.0,-3.0,1.0
2874.0,2768.0,2909.0,3150.0,3039.0,0.83252,0.037537,-0.552673,0.001038,0.0,0.0,0.0,7647.0,531.0,1777.0,107.0,28.0,-1387.0,1316.0,111.0,-435.0,0.920301,0.061353,0.386233,15308.0,1218.0,3618.0,17.0,3.0,0.0
2879.0,2767.0,2907.0,3151.0,3039.0,0.831909,0.037659,-0.55365,0.001038,-1.0,0.0,0.0,7643.0,556.0,1785.0,96.0,52.0,-1361.0,1288.0,134.0,-431.0,0.921251,0.061508,0.384128,15240.0,1090.0,3588.0,-5.0,8.0,4.0
2865.0,2765.0,2899.0,3141.0,3031.0,0.831543,0.037659,-0.554138,0.001038,-1.0,0.0,0.0,7640.0,549.0,1789.0,89.0,45.0,-1348.0,1274.0,127.0,-431.0,0.921658,0.06148,0.382977,15284.0,1046.0,3632.0,-4.0,6.0,3.0
2871.0,2765.0,2901.0,3151.0,3035.0,0.830933,0.037781,-0.555054,0.001038,-1.0,0.0,0.0,7630.0,553.0,1805.0,72.0,48.0,-1315.0,1238.0,129.0,-431.0,0.922503,0.061635,0.380938,15180.0,1146.0,3634.0,0.0,5.0,3.0
2876.0,2766.0,2899.0,3139.0,3039.0,0.830627,0.037781,-0.555542,0.001038,-1.0,-1.0,0.0,7625.0,561.0,1815.0,63.0,56.0,-1297.0,1218.0,136.0,-431.0,0.922975,0.061611,0.379889,15242.0,1166.0,3716.0,0.0,-2.0,5.0
2879.0,2768.0,2903.0,3151.0,3037.0,0.829956,0.037903,-0.556519,0.001099,0.0,-1.0,0.0,7630.0,552.0,1826.0,61.0,46.0,-1267.0,1191.0,124.0,-419.0,0.923855,0.061693,0.377679,15300.0,1082.0,3664.0,6.0,-9.0,11.0
2876.0,2767.0,2898.0,3143.0,3031.0,0.82959,0.037903,-0.557068,0.00116,0.0,-1.0,0.0,7636.0,548.0,1825.0,63.0,43.0,-1258.0,1184.0,121.0,-412.0,0.924364,0.061596,0.376459,15328.0,1098.0,3668.0,11.0,-10.0,11.0
2871.0,2767.0,2903.0,3147.0,3031.0,0.828918,0.038025,-0.558044,0.001282,0.0,0.0,0.0,7653.0,553.0,1831.0,73.0,48.0,-1234.0,1166.0,124.0,-391.0,0.925244,0.061609,0.374248,15362.0,1102.0,3616.0,3.0,1.0,9.0
2879.0,2768.0,2903.0,3147.0,3035.0,0.828613,0.038086,-0.558472,0.001282,0.0,0.0,0.0,7651.0,548.0,1828.0,68.0,42.0,-1229.0,1161.0,118.0,-393.0,0.925612,0.061685,0.37326,15272.0,1072.0,3638.0,2.0,7.0,7.0
2875.0,2769.0,2901.0,3143.0,3039.0,0.828064,0.038086,-0.559326,0.001343,-1.0,-1.0,0.0,7615.0,544.0,1819.0,25.0,39.0,-1223.0,1140.0,116.0,-428.0,0.926418,0.061573,0.371395,15206.0,1084.0,3658.0,-6.0,-6.0,7.0
2874.0,2767.0,2894.0,3143.0,3035.0,0.827698,0.038086,-0.559814,0.001343,-1.0,-1.0,0.0,7617.0,530.0,1820.0,24.0,25.0,-1213.0,1131.0,102.0,-425.0,0.926817,0.061544,0.370243,15262.0,974.0,3646.0,-5.0,-8.0,7.0
2874.0,2759.0,2899.0,3149.0,3039.0,0.827087,0.038147,-0.560791,0.001404,-1.0,-1.0,0.0,7628.0,542.0,1819.0,27.0,37.0,-1196.0,1117.0,113.0,-412.0,0.927753,0.061527,0.368134,15270.0,1180.0,3676.0,-2.0,0.0,3.0
2869.0,2767.0,2909.0,3151.0,3039.0,0.826782,0.038147,-0.561218,0.001343,-1.0,-1.0,0.0,7626.0,565.0,1820.0,22.0,60.0,-1187.0,1106.0,135.0,-411.0,0.928113,0.061571,0.36715,15228.0,1262.0,3682.0,-17.0,-1.0,4.0
2875.0,2767.0,2897.0,3158.0,3047.0,0.826172,0.037903,-0.562134,0.00116,-2.0,-1.0,0.0,7642.0,540.0,1831.0,32.0,37.0,-1160.0,1087.0,109.0,-391.0,0.928926,0.061325,0.36513,15362.0,860.0,3682.0,-37.0,-6.0,8.0
2871.0,2763.0,2909.0,3147.0,3039.0,0.825867,0.037781,-0.562561,0.001099,-1.0,0.0,0.0,7653.0,510.0,1822.0,40.0,8.0,-1161.0,1093.0,80.0,-385.0,0.929284,0.061168,0.364155,15334.0,868.0,3572.0,-16.0,3.0,6.0
2871.0,2763.0,2903.0,3151.0,3039.0,0.825378,0.037781,-0.563354,0.001099,-1.0,0.0,-1.0,7637.0,515.0,1824.0,18.0,14.0,-1145.0,1070.0,86.0,-397.0,0.930044,0.061129,0.362455,15206.0,1006.0,3664.0,-3.0,6.0,-2.0
2879.0,2765.0,2878.0,3151.0,3031.0,0.825073,0.037842,-0.563721,0.001099,-1.0,0.0,0.0,7626.0,509.0,1818.0,4.0,7.0,-1143.0,1064.0,79.0,-409.0,0.930305,0.061206,0.361534,15184.0,990.0,3570.0,-5.0,1.0,1.0
2879.0,2767.0,2899.0,3153.0,3039.0,0.824463,0.037842,-0.564575,0.001038,-1.0,-1.0,0.0,7613.0,536.0,1817.0,-13.0,34.0,-1128.0,1043.0,106.0,-415.0,0.931021,0.061227,0.359563,15174.0,1158.0,3590.0,-13.0,-8.0,3.0
2879.0,2767.0,2898.0,3143.0,3039.0,0.824158,0.037781,-0.565063,0.000977,-1.0,-1.0,0.0,7618.0,535.0,1825.0,-12.0,33.0,-1111.0,1028.0,103.0,-407.0,0.931477,0.061171,0.358513,15298.0,1022.0,3694.0,-19.0,-12.0,3.0
2878.0,2766.0,2901.0,3150.0,3039.0,0.823547,0.037659,-0.565918,0.000916,-1.0,-1.0,0.0,7648.0,506.0,1822.0,11.0,6.0,-1098.0,1027.0,74.0,-380.0,0.932189,0.060991,0.35655,15334.0,972.0,3576.0,-6.0,-2.0,1.0
2875.0,2769.0,2913.0,3151.0,3039.0,0.823303,0.03772,-0.566345,0.000916,0.0,0.0,-1.0,7656.0,504.0,1825.0,16.0,3.0,-1088.0,1020.0,71.0,-371.0,0.932617,0.061073,0.355659,15340.0,1004.0,3658.0,2.0,6.0,-2.0
2879.0,2769.0,2903.0,3151.0,3037.0,0.822815,0.037842,-0.567017,0.000916,-1.0,0.0,0.0,7651.0,534.0,1820.0,6.0,32.0,-1080.0,1008.0,100.0,-374.0,0.933169,0.061235,0.354085,15276.0,1124.0,3598.0,-4.0,11.0,2.0
2874.0,2767.0,2906.0,3147.0,3039.0,0.822571,0.037842,-0.567383,0.000916,-1.0,0.0,0.0,7635.0,532.0,1798.0,-12.0,30.0,-1095.0,1016.0,99.0,-396.0,0.933494,0.061216,0.353268,15184.0,1012.0,3480.0,-2.0,6.0,7.0
2879.0,2765.0,2896.0,3150.0,3039.0,0.82196,0.037903,-0.568237,0.000977,0.0,-1.0,0.0,7622.0,541.0,1784.0,-31.0,39.0,-1093.0,1008.0,109.0,-410.0,0.934211,0.061199,0.35129,15244.0,1072.0,3574.0,5.0,-10.0,3.0
2881.0,2768.0,2903.0,3149.0,3037.0,0.821655,0.037964,-0.568726,0.000977,0.0,-1.0,0.0,7619.0,538.0,1785.0,-37.0,36.0,-1084.0,998.0,106.0,-412.0,0.934667,0.061276,0.350228,15212.0,1064.0,3572.0,2.0,-14.0,3.0
2875.0,2769.0,2911.0,3143.0,3038.0,0.821045,0.038025,-0.56958,0.001038,0.0,-1.0,0.0,7628.0,537.0,1787.0,-34.0,35.0,-1065.0,982.0,104.0,-400.0,0.935381,0.061258,0.348248,15254.0,1054.0,3592.0,4.0,-8.0,10.0
2877.0,2731.0,2905.0,3151.0,3030.0,0.82074,0.038025,-0.570007,0.001099,0.0,-1.0,0.0,7624.0,536.0,1786.0,-41.0,34.0,-1058.0,973.0,102.0,-403.0,0.935739,0.061165,0.347261,15224.0,1060.0,3584.0,5.0,-8.0,11.0
2879.0,2767.0,2897.0,3143.0,3039.0,0.820129,0.038086,-0.570862,0.00116,-1.0,-1.0,0.0,7631.0,541.0,1790.0,-40.0,40.0,-1038.0,956.0,107.0,-393.0,0.936449,0.061147,0.34528,15374.0,1068.0,3690.0,-1.0,-12.0,9.0
2885.0,2765.0,2907.0,3151.0,3039.0,0.819885,0.038086,-0.571289,0.001221,0.0,-1.0,0.0,7643.0,528.0,1800.0,-31.0,27.0,-1021.0,944.0,93.0,-379.0,0.936876,0.061057,0.344392,15324.0,994.0,3640.0,3.0,-2.0,9.0
2882.0,2769.0,2906.0,3151.0,3042.0,0.819336,0.038208,-0.57196,0.001343,0.0,0.0,0.0,7647.0,535.0,1811.0,-31.0,34.0,-996.0,921.0,99.0,-368.0,0.937358,0.061074,0.342715,15344.0,1084.0,3686.0,9.0,5.0,10.0
2871.0,2763.0,2909.0,3151.0,3055.0,0.819153,0.038208,-0.572266,0.001404,0.0,0.0,0.0,7646.0,540.0,1810.0,-35.0,40.0,-992.0,916.0,105.0,-369.0,0.937653,0.06099,0.342066,15256.0,1122.0,3570.0,7.0,13.0,10.0
2879.0,2767.0,2902.0,3151.0,3039.0,0.818726,0.038269,-0.572876,0.001465,-1.0,0.0,0.0,7637.0,549.0,1813.0,-48.0,49.0,-977.0,897.0,113.0,-374.0,0.938169,0.060985,0.340662,15254.0,1102.0,3624.0,-3.0,11.0,9.0
2881.0,2768.0,2899.0,3127.0,3035.0,0.818542,0.038269,-0.573181,0.001465,-1.0,0.0,0.0,7634.0,543.0,1817.0,-53.0,43.0,-968.0,888.0,107.0,-376.0,0.938458,0.06097,0.340013,15264.0,1038.0,3636.0,-6.0,10.0,6.0
2877.0,2769.0,2907.0,3147.0,3034.0,0.818054,0.038269,-0.573792,0.001465,-1.0,-1.0,0.0,7613.0,532.0,1837.0,-78.0,32.0,-936.0,850.0,95.0,-388.0,0.938897,0.060931,0.338514,15218.0,1062.0,3780.0,-4.0,-2.0,4.0
2877.0,2745.0,2897.0,3143.0,3035.0,0.817871,0.038269,-0.574158,0.001465,-1.0,-1.0,0.0,7620.0,536.0,1852.0,-74.0,36.0,-915.0,832.0,97.0,-376.0,0.939286,0.060916,0.337794,15294.0,1100.0,3826.0,-8.0,-3.0,5.0
2875.0,2767.0,2903.0,3143.0,3031.0,0.817383,0.038208,-0.574829,0.001404,-1.0,-1.0,0.0,7645.0,526.0,1866.0,-53.0,27.0,-888.0,815.0,86.0,-346.0,0.939818,0.060847,0.336228,15360.0,1050.0,3786.0,-8.0,-1.0,5.0
2879.0,2768.0,2903.0,3152.0,3039.0,0.8172,0.038208,-0.575134,0.001404,-1.0,0.0,0.0,7641.0,521.0,1866.0,-60.0,22.0,-883.0,808.0,81.0,-351.0,0.940106,0.060832,0.335578,15262.0,1006.0,3718.0,-7.0,2.0,4.0
2867.0,2770.0,2909.0,3143.0,3031.0,0.816711,0.038208,-0.575745,0.001404,-1.0,-1.0,0.0,7623.0,511.0,1864.0,-81.0,12.0,-872.0,792.0,71.0,-366.0,0.940542,0.060793,0.334078,15170.0,996.0,3686.0,-1.0,-10.0,3.0
2870.0,2768.0,2903.0,3149.0,3043.0,0.816406,0.038208,-0.576172,0.001404,-1.0,-2.0,0.0,7607.0,507.0,1855.0,-100.0,9.0,-873.0,787.0,69.0,-384.0,0.940888,0.060769,0.333087,15134.0,1020.0,3652.0,-1.0,-24.0,3.0
2879.0,2767.0,2903.0,3151.0,3035.0,0.815796,0.038269,-0.577087,0.001343,-1.0,-2.0,0.0,7631.0,524.0,1870.0,-83.0,25.0,-841.0,762.0,82.0,-355.0,0.941674,0.06089,0.33103,15386.0,1102.0,3838.0,-5.0,-34.0,1.0
2876.0,2768.0,2911.0,3151.0,3039.0,0.815491,0.038269,-0.577454,0.001343,-1.0,-1.0,-1.0,7665.0,511.0,1859.0,-51.0,12.0,-845.0,778.0,68.0,-326.0,0.941919,0.060865,0.33011,15362.0,988.0,3586.0,-3.0,-13.0,-4.0
2875.0,2768.0,2911.0,3151.0,3035.0,0.815002,0.038391,-0.578125,0.001343,0.0,-1.0,-1.0,7659.0,540.0,1819.0,-61.0,40.0,-872.0,799.0,98.0,-341.0,0.94245,0.061025,0.328528,15242.0,1246.0,3512.0,5.0,-1.0,-1.0
2879.0,2769.0,2907.0,3143.0,3037.0,0.814758,0.038391,-0.578491,0.001282,-1.0,-1.0,0.0,7642.0,551.0,1796.0,-81.0,50.0,-888.0,807.0,110.0,-364.0,0.942759,0.061076,0.327707,15176.0,1160.0,3490.0,-16.0,-5.0,0.0
2870.0,2767.0,2905.0,3143.0,3035.0,0.81427,0.03833,-0.579224,0.001221,-1.0,-1.0,0.0,7635.0,513.0,1765.0,-93.0,13.0,-906.0,823.0,74.0,-382.0,0.943382,0.061008,0.326068,15278.0,926.0,3512.0,-2.0,-8.0,4.0
2875.0,2764.0,2909.0,3151.0,3047.0,0.814026,0.038391,-0.57959,0.001221,0.0,-1.0,0.0,7640.0,519.0,1749.0,-90.0,18.0,-915.0,832.0,80.0,-381.0,0.943696,0.061088,0.325241,15310.0,1102.0,3402.0,14.0,-3.0,4.0
2877.0,2767.0,2899.0,3141.0,3039.0,0.813782,0.038513,-0.579895,0.001282,0.0,0.0,0.0,7646.0,530.0,1753.0,-86.0,28.0,-905.0,824.0,89.0,-373.0,0.943915,0.061196,0.324481,15300.0,1152.0,3546.0,15.0,5.0,6.0
2875.0,2769.0,2906.0,3143.0,3031.0,0.813354,0.038513,-0.580505,0.001343,-1.0,-1.0,0.0,7619.0,543.0,1769.0,-117.0,42.0,-877.0,787.0,103.0,-391.0,0.944417,0.061091,0.323078,15202.0,1038.0,3642.0,-11.0,-11.0,14.0
2877.0,2765.0,2907.0,3155.0,3051.0,0.813049,0.038452,-0.580872,0.001404,-1.0,-1.0,0.0,7631.0,517.0,1789.0,-107.0,18.0,-850.0,767.0,77.0,-373.0,0.944662,0.060896,0.322161,15352.0,866.0,3632.0,-4.0,-17.0,14.0
2874.0,2767.0,2899.0,3157.0,3039.0,0.812622,0.038574,-0.581543,0.001587,1.0,-1.0,0.0,7663.0,497.0,1819.0,-80.0,-1.0,-807.0,736.0,54.0,-334.0,0.945272,0.060847,0.320677,15392.0,1006.0,3722.0,28.0,-1.0,4.0
2875.0,2767.0,2899.0,3151.0,3038.0,0.812439,0.038696,-0.581787,0.001648,1.0,0.0,0.0,7659.0,511.0,1824.0,-86.0,11.0,-798.0,725.0,66.0,-336.0,0.945461,0.060959,0.320086,15252.0,1130.0,3656.0,27.0,9.0,2.0
2879.0,2767.0,2909.0,3151.0,3035.0,0.812012,0.038879,-0.582336,0.001709,-1.0,-1.0,0.0,7627.0,525.0,1816.0,-121.0,24.0,-795.0,711.0,80.0,-366.0,0.945861,0.061151,0.318739,15168.0,986.0,3592.0,-3.0,-8.0,3.0
2878.0,2769.0,2911.0,3153.0,3030.0,0.811768,0.038818,-0.582642,0.001709,-1.0,-1.0,0.0,7616.0,506.0,1817.0,-134.0,6.0,-787.0,701.0,62.0,-376.0,0.946072,0.061032,0.317991,15186.0,908.0,3584.0,-3.0,-14.0,4.0
2869.0,2768.0,2907.0,3151.0,3039.0,0.811279,0.038879,-0.583313,0.00177,0.0,-1.0,0.0,7638.0,494.0,1821.0,-116.0,-5.0,-771.0,692.0,50.0,-354.0,0.946597,0.061019,0.316412,15402.0,986.0,3694.0,7.0,-8.0,4.0
2879.0,2768.0,2906.0,3150.0,3034.0,0.811096,0.038879,-0.583557,0.001831,0.0,0.0,0.0,7654.0,490.0,1829.0,-102.0,-9.0,-758.0,685.0,44.0,-336.0,0.946784,0.060933,0.31583,15394.0,958.0,3696.0,4.0,5.0,3.0
2879.0,2764.0,2907.0,3147.0,3031.0,0.810791,0.03894,-0.584045,0.001831,-1.0,0.0,-1.0,7618.0,493.0,1807.0,-141.0,-6.0,-771.0,685.0,50.0,-376.0,0.94722,0.061006,0.31476,15036.0,1040.0,3478.0,-3.0,2.0,-2.0
2886.0,2767.0,2899.0,3157.0,3031.0,0.810547,0.03894,-0.584351,0.00177,-1.0,-1.0,-1.0,7603.0,498.0,1809.0,-158.0,-2.0,-763.0,672.0,54.0,-389.0,0.947425,0.061057,0.314007,15174.0,1022.0,3668.0,-5.0,-20.0,-7.0
2878.0,2767.0,2895.0,3147.0,3031.0,0.810059,0.039062,-0.585022,0.001709,0.0,-1.0,-1.0,7626.0,514.0,1838.0,-139.0,11.0,-721.0,638.0,64.0,-356.0,0.947938,0.061286,0.312421,15330.0,1130.0,3788.0,4.0,-19.0,-8.0
2875.0,2750.0,2895.0,3147.0,3039.0,0.809814,0.039124,-0.585327,0.001648,0.0,-1.0,-1.0,7644.0,533.0,1847.0,-123.0,29.0,-706.0,629.0,80.0,-334.0,0.948142,0.061436,0.311664,15372.0,1168.0,3748.0,2.0,-9.0,-6.0
2879.0,2768.0,2902.0,3147.0,3031.0,0.809448,0.039185,-0.585876,0.001587,-1.0,-1.0,0.0,7629.0,551.0,1827.0,-141.0,46.0,-715.0,631.0,98.0,-352.0,0.948598,0.061576,0.310422,15238.0,1116.0,3592.0,-6.0,-11.0,6.0
2881.0,2762.0,2905.0,3163.0,3031.0,0.809204,0.039185,-0.586182,0.001587,-1.0,-1.0,0.0,7630.0,544.0,1819.0,-142.0,39.0,-717.0,633.0,91.0,-354.0,0.948806,0.061556,0.309669,15296.0,1042.0,3588.0,0.0,-18.0,9.0
2882.0,2768.0,2899.0,3135.0,3039.0,0.808716,0.039307,-0.586853,0.001648,0.0,-1.0,0.0,7648.0,571.0,1802.0,-128.0,66.0,-721.0,641.0,118.0,-339.0,0.949324,0.061642,0.308082,15308.0,1296.0,3506.0,6.0,-11.0,5.0
2877.0,2775.0,2911.0,3139.0,3035.0,0.808533,0.039307,-0.587158,0.001648,-1.0,-1.0,0.0,7642.0,573.0,1790.0,-137.0,68.0,-728.0,645.0,121.0,-349.0,0.949603,0.061626,0.307428,15282.0,1098.0,3556.0,-7.0,-13.0,6.0
2875.0,2768.0,2911.0,3147.0,3031.0,0.808044,0.039246,-0.58783,0.001587,-1.0,-1.0,0.0,7651.0,559.0,1771.0,-132.0,54.0,-734.0,653.0,107.0,-346.0,0.950109,0.061559,0.305854,15402.0,1076.0,3570.0,-6.0,-14.0,6.0
2878.0,2769.0,2915.0,3151.0,3031.0,0.8078,0.039246,-0.588135,0.001587,-1.0,-1.0,0.0,7645.0,538.0,1750.0,-139.0,33.0,-749.0,667.0,87.0,-358.0,0.950315,0.061539,0.305101,15200.0,952.0,3376.0,-1.0,-9.0,5.0
2873.0,2767.0,2903.0,3159.0,3039.0,0.807312,0.039307,-0.588745,0.001709,0.0,-1.0,0.0,7646.0,533.0,1746.0,-142.0,29.0,-741.0,659.0,83.0,-358.0,0.950736,0.061453,0.30359,15308.0,1094.0,3586.0,5.0,-14.0,13.0
2874.0,2768.0,2901.0,3151.0,3047.0,0.807129,0.039307,-0.58905,0.00177,-1.0,-1.0,0.0,7647.0,537.0,1743.0,-143.0,34.0,-738.0,656.0,88.0,-357.0,0.951018,0.061366,0.302935,15342.0,1120.0,3468.0,-2.0,-10.0,13.0
2869.0,2770.0,2911.0,3143.0,3039.0,0.806763,0.039185,-0.5896,0.00177,-1.0,0.0,0.0,7649.0,504.0,1733.0,-145.0,3.0,-738.0,657.0,57.0,-360.0,0.951473,0.061138,0.301706,15252.0,846.0,3396.0,-6.0,5.0,5.0
2883.0,2767.0,2897.0,3159.0,3051.0,0.80658,0.039185,-0.589844,0.001831,0.0,0.0,0.0,7642.0,479.0,1729.0,-153.0,-21.0,-737.0,655.0,33.0,-368.0,0.951655,0.061051,0.301123,15226.0,848.0,3432.0,7.0,3.0,9.0
2869.0,2767.0,2893.0,3149.0,3051.0,0.105591,-1.21228,-1.749207,0.464172,-19590.0,-13277.0,17165.0,-31475.0,14305.0,-18154.0,-25281.0,29704.0,17094.0,11804.0,-26378.0,20794.0,-0.756014,-1.879878,-4.302742,15286.0,1192.0,3588.0,6.0,-11.0,5.0
2879.0,2768.0,2896.0,3151.0,3035.0,0.805969,0.039307,-0.590637,0.001953,-1.0,-1.0,0.0,7640.0,523.0,1755.0,-160.0,22.0,-695.0,612.0,74.0,-358.0,0.952224,0.061053,0.299193,15298.0,1010.0,3548.0,-4.0,-5.0,0.0
2883.0,2768.0,2897.0,3135.0,3039.0,0.805664,0.039368,-0.591064,0.001953,0.0,0.0,0.0,7631.0,515.0,1769.0,-172.0,14.0,-673.0,588.0,65.0,-363.0,0.952553,0.061125,0.298191,15224.0,1080.0,3586.0,7.0,1.0,1.0
2879.0,2773.0,2911.0,3135.0,3031.0,0.805481,0.039368,-0.591309,0.001953,0.0,-1.0,0.0,7613.0,514.0,1775.0,-191.0,13.0,-663.0,573.0,64.0,-378.0,0.952729,0.06111,0.297608,15102.0,1024.0,3592.0,7.0,-6.0,4.0
2867.0,2765.0,2903.0,3159.0,3023.0,0.804932,0.03949,-0.592041,0.002197,1.0,-3.0,0.0,7577.0,504.0,1766.0,-232.0,4.0,-657.0,556.0,57.0,-415.0,0.953279,0.060971,0.295848,15160.0,1032.0,3600.0,23.0,-58.0,22.0
2874.0,2770.0,2903.0,3145.0,3030.0,0.804504,0.039551,-0.59259,0.00238,1.0,-4.0,1.0,7581.0,513.0,1783.0,-231.0,14.0,-629.0,530.0,65.0,-404.0,0.953671,0.060816,0.294505,15182.0,1098.0,3712.0,31.0,-74.0,37.0
2875.0,2783.0,2909.0,3147.0,3025.0,0.80365,0.039368,-0.59375,0.003052,0.0,-5.0,3.0,7630.0,557.0,1826.0,-189.0,68.0,-564.0,478.0,113.0,-340.0,0.954575,0.059652,0.291774,15540.0,1238.0,3838.0,16.0,-94.0,91.0
2879.0,2759.0,2895.0,3142.0,3035.0,0.803284,0.039246,-0.594238,0.003418,0.0,-4.0,3.0,7691.0,562.0,1845.0,-131.0,78.0,-535.0,468.0,119.0,-275.0,0.954952,0.058989,0.290617,15770.0,1124.0,3762.0,16.0,-73.0,79.0
2865.0,2763.0,2908.0,3159.0,3025.0,0.802856,0.039307,-0.594849,0.003906,1.0,0.0,1.0,7765.0,534.0,1832.0,-62.0,55.0,-537.0,491.0,93.0,-211.0,0.955463,0.058468,0.289204,15546.0,998.0,3546.0,38.0,9.0,23.0
2887.0,2770.0,2919.0,3135.0,3055.0,0.802795,0.039429,-0.59491,0.004089,1.0,1.0,0.0,7748.0,529.0,1808.0,-79.0,50.0,-559.0,508.0,91.0,-234.0,0.955504,0.058441,0.289025,15362.0,1024.0,3458.0,29.0,29.0,18.0
2877.0,2767.0,2902.0,3155.0,3038.0,0.802673,0.03949,-0.595093,0.004456,0.0,1.0,0.0,7683.0,499.0,1718.0,-145.0,23.0,-646.0,573.0,73.0,-323.0,0.955682,0.058092,0.28861,15312.0,910.0,3266.0,22.0,40.0,22.0
2867.0,2763.0,2907.0,3139.0,3039.0,0.802673,0.039551,-0.595093,0.004578,1.0,2.0,0.0,7676.0,486.0,1691.0,-153.0,10.0,-673.0,597.0,62.0,-339.0,0.955692,0.058044,0.288606,15274.0,906.0,3210.0,24.0,59.0,11.0
2881.0,2770.0,2895.0,3141.0,3047.0,0.802673,0.039734,-0.595093,0.004822,0.0,2.0,0.0,7597.0,470.0,1656.0,-232.0,-5.0,-708.0,608.0,53.0,-426.0,0.955713,0.058048,0.288594,15000.0,868.0,3342.0,19.0,47.0,15.0
2875.0,2767.0,2903.0,3151.0,3024.0,0.802551,0.039734,-0.595215,0.005005,0.0,0.0,0.0,7575.0,471.0,1663.0,-254.0,-2.0,-698.0,592.0,56.0,-444.0,0.955779,0.057819,0.288254,15070.0,950.0,3416.0,15.0,18.0,20.0
2877.0,2765.0,2897.0,3147.0,3046.0,0.802307,0.039795,-0.59552,0.005127,0.0,0.0,0.0,7649.0,469.0,1749.0,-182.0,-4.0,-606.0,526.0,45.0,-348.0,0.955988,0.057749,0.287495,15588.0,968.0,3848.0,13.0,13.0,4.0
2865.0,2767.0,2909.0,3149.0,3035.0,0.802246,0.039856,-0.595581,0.005188,0.0,1.0,-1.0,7671.0,475.0,1782.0,-160.0,1.0,-571.0,498.0,47.0,-316.0,0.956019,0.057769,0.28732,15438.0,996.0,3728.0,9.0,29.0,-2.0
2887.0,2767.0,2885.0,3153.0,3031.0,0.802185,0.039856,-0.595703,0.005127,-1.0,0.0,0.0,7660.0,493.0,1817.0,-172.0,19.0,-534.0,459.0,63.0,-316.0,0.956137,0.057835,0.287076,15330.0,1040.0,3728.0,-7.0,19.0,3.0
2879.0,2759.0,2909.0,3159.0,3031.0,0.802124,0.039856,-0.595764,0.005127,-1.0,0.0,0.0,7647.0,494.0,1823.0,-185.0,20.0,-527.0,448.0,64.0,-326.0,0.956162,0.05783,0.286906,15164.0,994.0,3600.0,-6.0,22.0,5.0
2871.0,2767.0,2918.0,3143.0,3027.0,0.80188,0.039856,-0.596069,0.005188,0.0,-1.0,0.0,7631.0,481.0,1830.0,-203.0,8.0,-514.0,431.0,51.0,-340.0,0.956366,0.057735,0.286151,15340.0,896.0,3686.0,6.0,-8.0,9.0
2890.0,2767.0,2876.0,3151.0,3031.0,0.801758,0.039917,-0.596313,0.005249,0.0,-1.0,0.0,7618.0,479.0,1819.0,-218.0,5.0,-521.0,434.0,50.0,-357.0,0.956617,0.057747,0.28566,15100.0,984.0,3554.0,17.0,-10.0,11.0
2874.0,2762.0,2906.0,3163.0,3039.0,0.801208,0.040039,-0.596985,0.005432,0.0,-3.0,0.0,7602.0,495.0,1797.0,-238.0,22.0,-529.0,436.0,68.0,-376.0,0.957054,0.057673,0.283971,15286.0,1052.0,3594.0,16.0,-54.0,14.0
2877.0,2766.0,2896.0,3143.0,3031.0,0.800903,0.0401,-0.597412,0.005493,0.0,-3.0,0.0,7632.0,497.0,1810.0,-210.0,24.0,-508.0,424.0,68.0,-343.0,0.957379,0.057669,0.282967,15482.0,990.0,3708.0,17.0,-55.0,14.0
2883.0,2773.0,2909.0,3159.0,3019.0,0.800476,0.040283,-0.598022,0.005737,1.0,-1.0,0.0,7681.0,509.0,1804.0,-165.0,36.0,-502.0,431.0,78.0,-297.0,0.957868,0.057629,0.281541,15390.0,1078.0,3510.0,25.0,-18.0,11.0
2873.0,2771.0,2902.0,3159.0,3056.0,0.800293,0.040405,-0.598206,0.005798,0.0,-1.0,0.0,7678.0,529.0,1798.0,-169.0,56.0,-504.0,431.0,98.0,-300.0,0.957948,0.057735,0.28102,15296.0,1190.0,3570.0,17.0,-8.0,13.0
2883.0,2771.0,2879.0,3150.0,3039.0,0.800049,0.040405,-0.598572,0.00592,-1.0,0.0,0.0,7676.0,529.0,1775.0,-173.0,57.0,-520.0,445.0,100.0,-308.0,0.958252,0.057565,0.280192,15336.0,1022.0,3428.0,0.0,11.0,16.0
2879.0,2763.0,2897.0,3147.0,3015.0,0.799927,0.040405,-0.598694,0.005981,-1.0,0.0,0.0,7654.0,516.0,1747.0,-196.0,45.0,-545.0,463.0,91.0,-337.0,0.958306,0.05748,0.279852,15170.0,932.0,3322.0,-5.0,15.0,16.0
2871.0,2759.0,2897.0,3143.0,3038.0,0.799622,0.040283,-0.599121,0.006165,0.0,-1.0,0.0,7599.0,440.0,1714.0,-254.0,-27.0,-570.0,475.0,23.0,-403.0,0.958637,0.057036,0.278864,15110.0,620.0,3454.0,17.0,-16.0,19.0
2871.0,2761.0,2896.0,3158.0,3031.0,0.799377,0.040344,-0.599365,0.006409,1.0,-2.0,0.0,7584.0,415.0,1712.0,-270.0,-50.0,-566.0,469.0,1.0,-419.0,0.958755,0.056818,0.278179,15086.0,732.0,3408.0,37.0,-29.0,17.0
2867.0,2771.0,2919.0,3127.0,3047.0,0.79895,0.040649,-0.600037,0.006775,1.0,-2.0,0.0,7633.0,454.0,1780.0,-225.0,-11.0,-486.0,403.0,33.0,-350.0,0.95935,0.056823,0.276671,15472.0,1140.0,3810.0,42.0,-30.0,9.0
2887.0,2775.0,2895.0,3154.0,3045.0,0.798767,0.040771,-0.60022,0.006836,0.0,-1.0,0.0,7668.0,492.0,1805.0,-191.0,25.0,-457.0,383.0,65.0,-308.0,0.959429,0.056928,0.27615,15524.0,1202.0,3720.0,16.0,-20.0,4.0
2879.0,2768.0,2914.0,3139.0,3039.0,0.798523,0.040771,-0.600586,0.006714,-2.0,-1.0,-1.0,7698.0,497.0,1821.0,-163.0,29.0,-434.0,368.0,66.0,-274.0,0.959711,0.057049,0.275318,15496.0,896.0,3692.0,-23.0,-3.0,-5.0
2870.0,2767.0,2893.0,3152.0,3043.0,0.798401,0.04071,-0.600647,0.006592,-1.0,0.0,-1.0,7712.0,483.0,1817.0,-149.0,15.0,-436.0,375.0,52.0,-262.0,0.959651,0.057088,0.275053,15518.0,888.0,3594.0,-22.0,13.0,-8.0
2881.0,2768.0,2903.0,3135.0,3031.0,0.798462,0.040649,-0.600647,0.006409,-1.0,2.0,-1.0,7681.0,455.0,1773.0,-180.0,-13.0,-481.0,411.0,28.0,-305.0,0.959708,0.057215,0.275153,15062.0,846.0,3280.0,-16.0,50.0,-14.0
2877.0,2755.0,2903.0,3155.0,3024.0,0.798401,0.040649,-0.600708,0.006348,-1.0,1.0,-1.0,7618.0,449.0,1743.0,-244.0,-20.0,-509.0,421.0,26.0,-375.0,0.959728,0.057283,0.274982,14856.0,892.0,3330.0,-14.0,30.0,-6.0
2870.0,2767.0,2911.0,3151.0,3037.0,0.798157,0.040527,-0.601074,0.006287,0.0,-2.0,0.0,7573.0,437.0,1728.0,-291.0,-31.0,-517.0,416.0,17.0,-422.0,0.960012,0.057137,0.274161,15126.0,772.0,3454.0,1.0,-23.0,8.0
2885.0,2775.0,2902.0,3143.0,3039.0,0.797913,0.040588,-0.601379,0.006409,1.0,-2.0,0.0,7596.0,439.0,1736.0,-270.0,-28.0,-503.0,409.0,18.0,-398.0,0.960217,0.057064,0.273401,15372.0,928.0,3598.0,23.0,-31.0,7.0
2871.0,2768.0,2895.0,3159.0,3024.0,0.797546,0.040955,-0.601868,0.006531,1.0,-2.0,0.0,7662.0,524.0,1780.0,-206.0,53.0,-449.0,370.0,93.0,-317.0,0.96057,0.057465,0.272201,15584.0,1376.0,3742.0,25.0,-23.0,2.0
2867.0,2763.0,2905.0,3152.0,3043.0,0.797363,0.041016,-0.602051,0.006531,-1.0,-1.0,0.0,7694.0,560.0,1794.0,-175.0,88.0,-431.0,360.0,126.0,-280.0,0.960642,0.057545,0.271683,15576.0,1268.0,3642.0,-4.0,-8.0,6.0
2843.0,2765.0,2903.0,3135.0,3043.0,0.797241,0.040894,-0.602173,0.00647,-1.0,1.0,0.0,7705.0,531.0,1775.0,-164.0,60.0,-447.0,380.0,98.0,-275.0,0.960683,0.057412,0.271351,15256.0,884.0,3434.0,-15.0,28.0,10.0
2879.0,2762.0,2918.0,3159.0,3047.0,0.797241,0.040833,-0.602234,0.00647,-1.0,0.0,0.0,7673.0,506.0,1749.0,-197.0,36.0,-473.0,397.0,78.0,-315.0,0.96078,0.057314,0.271282,15150.0,906.0,3342.0,-5.0,22.0,10.0
2871.0,2759.0,2911.0,3155.0,3031.0,0.796997,0.040833,-0.602539,0.006592,-1.0,0.0,0.0,7644.0,468.0,1712.0,-228.0,0.0,-504.0,421.0,45.0,-355.0,0.960982,0.057143,0.270527,15256.0,804.0,3342.0,-2.0,6.0,9.0
2877.0,2768.0,2913.0,3159.0,3031.0,0.796936,0.040771,-0.602661,0.006592,-1.0,0.0,0.0,7645.0,443.0,1709.0,-228.0,-24.0,-505.0,423.0,21.0,-356.0,0.961102,0.057039,0.270288,15252.0,754.0,3440.0,0.0,10.0,5.0
2879.0,2765.0,2899.0,3139.0,3035.0,0.796753,0.040771,-0.602905,0.006653,-1.0,0.0,0.0,7620.0,439.0,1726.0,-254.0,-27.0,-483.0,396.0,18.0,-375.0,0.961276,0.056948,0.269702,15222.0,926.0,3520.0,-2.0,3.0,1.0
2871.0,2759.0,2902.0,3151.0,3039.0,0.796631,0.04071,-0.603027,0.006653,-1.0,0.0,-1.0,7624.0,449.0,1748.0,-251.0,-16.0,-458.0,372.0,27.0,-365.0,0.961322,0.056839,0.269366,15250.0,976.0,3612.0,-9.0,1.0,-3.0
2879.0,2767.0,2895.0,3151.0,3043.0,0.796509,0.040588,-0.603271,0.006409,-3.0,-1.0,0.0,7641.0,500.0,1794.0,-235.0,33.0,-408.0,325.0,71.0,-333.0,0.961542,0.056926,0.268883,15336.0,1124.0,3662.0,-46.0,-3.0,5.0
2881.0,2769.0,2911.0,3151.0,3035.0,0.796387,0.040344,-0.603394,0.006226,-3.0,0.0,0.0,7663.0,500.0,1793.0,-214.0,35.0,-407.0,330.0,72.0,-313.0,0.961572,0.056746,0.268559,15482.0,966.0,3574.0,-59.0,3.0,3.0
2879.0,2769.0,2903.0,3147.0,3039.0,0.796265,0.039978,-0.603577,0.00592,-2.0,0.0,-1.0,7680.0,465.0,1762.0,-198.0,1.0,-434.0,363.0,39.0,-306.0,0.961687,0.056519,0.268169,15370.0,874.0,3396.0,-34.0,20.0,-4.0
2879.0,2767.0,2902.0,3143.0,3027.0,0.796265,0.039917,-0.603638,0.005798,-1.0,0.0,-1.0,7683.0,459.0,1758.0,-195.0,-4.0,-438.0,368.0,34.0,-305.0,0.961774,0.056569,0.268099,15370.0,888.0,3524.0,-18.0,22.0,-3.0
2882.0,2759.0,2895.0,3143.0,3039.0,0.796204,0.039978,-0.603638,0.005859,0.0,1.0,0.0,7663.0,466.0,1749.0,-215.0,2.0,-446.0,370.0,41.0,-326.0,0.961706,0.056587,0.267998,15252.0,980.0,3470.0,12.0,32.0,3.0
2874.0,2769.0,2907.0,3151.0,3039.0,0.796204,0.040039,-0.603699,0.00592,0.0,1.0,0.0,7653.0,483.0,1749.0,-226.0,19.0,-445.0,365.0,59.0,-335.0,0.961808,0.05661,0.26792,15268.0,1074.0,3512.0,13.0,27.0,7.0
2875.0,2768.0,2899.0,3151.0,3027.0,0.796082,0.0401,-0.603821,0.00592,-1.0,0.0,0.0,7643.0,511.0,1758.0,-236.0,46.0,-433.0,349.0,85.0,-340.0,0.961856,0.056696,0.267573,15316.0,1046.0,3574.0,-1.0,10.0,7.0
2875.0,2767.0,2914.0,3151.0,3025.0,0.796021,0.0401,-0.603882,0.00592,-1.0,0.0,0.0,7651.0,507.0,1774.0,-228.0,42.0,-416.0,335.0,80.0,-328.0,0.961879,0.056691,0.267402,15336.0,1000.0,3606.0,-3.0,8.0,5.0
2879.0,2759.0,2907.0,3143.0,3035.0,0.795898,0.0401,-0.604004,0.005859,-1.0,0.0,0.0,7632.0,503.0,1792.0,-248.0,38.0,-395.0,310.0,75.0,-341.0,0.961921,0.056753,0.26706,15166.0,976.0,3628.0,-11.0,6.0,2.0
2875.0,2771.0,2917.0,3157.0,3039.0,0.795837,0.040039,-0.604126,0.005859,-1.0,-1.0,0.0,7627.0,491.0,1800.0,-254.0,26.0,-385.0,299.0,63.0,-345.0,0.962041,0.05665,0.26682,15276.0,884.0,3648.0,-14.0,-5.0,4.0
2879.0,2765.0,2902.0,3151.0,3039.0,0.795654,0.039917,-0.604431,0.005798,-1.0,-1.0,0.0,7645.0,481.0,1810.0,-238.0,18.0,-370.0,290.0,53.0,-326.0,0.962299,0.056511,0.266169,15310.0,966.0,3634.0,-14.0,-1.0,2.0
2869.0,2762.0,2903.0,3143.0,3035.0,0.795593,0.039856,-0.604492,0.005737,-1.0,0.0,0.0,7662.0,476.0,1808.0,-221.0,13.0,-371.0,296.0,47.0,-310.0,0.962317,0.056482,0.266002,15458.0,908.0,3608.0,-14.0,3.0,3.0
2875.0,2770.0,2903.0,3159.0,3039.0,0.795471,0.039795,-0.604614,0.005737,-1.0,1.0,0.0,7671.0,473.0,1808.0,-212.0,11.0,-368.0,296.0,45.0,-301.0,0.962363,0.056374,0.265665,15302.0,980.0,3580.0,-6.0,25.0,7.0
2866.0,2766.0,2899.0,3135.0,3043.0,0.795471,0.039734,-0.604614,0.005737,-1.0,1.0,0.0,7651.0,479.0,1804.0,-232.0,17.0,-372.0,294.0,52.0,-321.0,0.962362,0.056277,0.26567,15170.0,980.0,3606.0,-7.0,27.0,6.0
2867.0,2771.0,2886.0,3153.0,3037.0,0.79541,0.039734,-0.604736,0.005737,0.0,-1.0,0.0,7619.0,467.0,1797.0,-265.0,6.0,-377.0,291.0,42.0,-354.0,0.962483,0.05627,0.265425,15238.0,934.0,3622.0,2.0,0.0,6.0
2867.0,2763.0,2895.0,3151.0,3043.0,0.795349,0.039734,-0.604858,0.005798,0.0,-1.0,0.0,7628.0,469.0,1803.0,-257.0,8.0,-369.0,285.0,43.0,-344.0,0.962608,0.05619,0.265181,15320.0,950.0,3650.0,5.0,-2.0,6.0
2867.0,2763.0,2899.0,3139.0,3035.0,0.795227,0.039734,-0.60498,0.005798,-1.0,-1.0,0.0,7625.0,468.0,1809.0,-261.0,7.0,-360.0,275.0,42.0,-346.0,0.962654,0.056179,0.26484,15210.0,918.0,3646.0,0.0,-5.0,6.0
2879.0,2767.0,2885.0,3151.0,3039.0,0.794983,0.039673,-0.605225,0.005798,-1.0,-1.0,0.0,7655.0,459.0,1825.0,-231.0,0.0,-339.0,264.0,32.0,-311.0,0.962747,0.05606,0.264161,15476.0,808.0,3712.0,-7.0,-5.0,6.0
2883.0,2767.0,2891.0,3139.0,3030.0,0.794922,0.039612,-0.605347,0.005798,-1.0,0.0,0.0,7660.0,447.0,1807.0,-227.0,-11.0,-355.0,281.0,22.0,-312.0,0.962866,0.055957,0.263921,15318.0,866.0,3500.0,-2.0,8.0,5.0
2881.0,2767.0,2903.0,3153.0,3047.0,0.7948,0.039612,-0.605591,0.005798,-1.0,-1.0,0.0,7654.0,453.0,1793.0,-235.0,-5.0,-365.0,288.0,29.0,-322.0,0.963106,0.055944,0.263431,15296.0,934.0,3562.0,-7.0,-2.0,3.0
2867.0,2763.0,2903.0,3149.0,3039.0,0.794678,0.039551,-0.605713,0.005798,-1.0,-1.0,0.0,7657.0,453.0,1784.0,-233.0,-4.0,-371.0,295.0,30.0,-322.0,0.963152,0.055836,0.263094,15302.0,876.0,3484.0,-7.0,0.0,4.0
2879.0,2763.0,2899.0,3151.0,3047.0,0.794556,0.039551,-0.605896,0.005798,-1.0,0.0,-1.0,7659.0,463.0,1758.0,-232.0,5.0,-393.0,316.0,41.0,-326.0,0.963295,0.055824,0.262678,15260.0,944.0,3358.0,-1.0,13.0,-1.0
2879.0,2753.0,2919.0,3159.0,3022.0,0.794495,0.039612,-0.605957,0.005798,0.0,0.0,0.0,7646.0,469.0,1747.0,-245.0,10.0,-403.0,322.0,47.0,-341.0,0.963319,0.055916,0.262502,15226.0,996.0,3464.0,5.0,9.0,1.0
2879.0,2759.0,2888.0,3153.0,3039.0,0.794312,0.039734,-0.60614,0.005859,0.0,0.0,0.0,7651.0,494.0,1763.0,-241.0,35.0,-383.0,302.0,71.0,-330.0,0.963394,0.056019,0.26198,15346.0,1074.0,3626.0,6.0,11.0,4.0
2877.0,2767.0,2903.0,3151.0,3031.0,0.794312,0.039734,-0.606201,0.005859,-1.0,0.0,0.0,7657.0,505.0,1775.0,-235.0,46.0,-370.0,291.0,80.0,-320.0,0.963491,0.056018,0.261906,15344.0,1082.0,3632.0,-3.0,20.0,7.0
2881.0,2767.0,2897.0,3151.0,3047.0,0.794312,0.039673,-0.606201,0.00592,-1.0,1.0,0.0,7655.0,474.0,1777.0,-237.0,16.0,-368.0,290.0,50.0,-323.0,0.963495,0.055847,0.261912,15294.0,780.0,3632.0,0.0,26.0,16.0
2863.0,2758.0,2895.0,3153.0,3030.0,0.794312,0.039612,-0.60614,0.006042,0.0,1.0,0.0,7647.0,449.0,1778.0,-245.0,-6.0,-368.0,289.0,29.0,-332.0,0.963407,0.055603,0.261992,15220.0,740.0,3520.0,15.0,30.0,14.0
2879.0,2772.0,2913.0,3135.0,3051.0,0.79425,0.039734,-0.606201,0.006348,1.0,0.0,0.0,7623.0,464.0,1792.0,-269.0,9.0,-352.0,267.0,44.0,-350.0,0.963456,0.055421,0.261815,15246.0,1056.0,3722.0,23.0,7.0,15.0
2882.0,2771.0,2899.0,3153.0,3031.0,0.794189,0.039795,-0.606262,0.006409,0.0,0.0,0.0,7644.0,480.0,1815.0,-248.0,25.0,-328.0,248.0,57.0,-323.0,0.963484,0.055439,0.26164,15448.0,1044.0,3748.0,6.0,8.0,10.0
2864.0,2767.0,2887.0,3127.0,3043.0,0.794189,0.039795,-0.606262,0.006409,0.0,1.0,0.0,7656.0,472.0,1826.0,-236.0,17.0,-317.0,241.0,48.0,-309.0,0.963484,0.055439,0.26164,15326.0,852.0,3682.0,1.0,23.0,11.0
2859.0,2767.0,2885.0,3141.0,3051.0,0.794128,0.039734,-0.606384,0.006531,-1.0,-1.0,0.0,7591.0,465.0,1812.0,-302.0,12.0,-329.0,236.0,46.0,-376.0,0.963613,0.055187,0.261402,15112.0,934.0,3718.0,-3.0,-9.0,14.0
2881.0,2775.0,2895.0,3151.0,3039.0,0.794067,0.039673,-0.606506,0.006592,-1.0,-1.0,0.0,7605.0,453.0,1826.0,-289.0,2.0,-313.0,224.0,35.0,-360.0,0.963737,0.05501,0.261163,15364.0,818.0,3730.0,-3.0,-21.0,13.0
2883.0,2768.0,2903.0,3159.0,3037.0,0.793884,0.039673,-0.60675,0.006714,0.0,0.0,0.0,7656.0,438.0,1844.0,-240.0,-11.0,-290.0,216.0,18.0,-307.0,0.963912,0.054844,0.260577,15442.0,906.0,3746.0,13.0,3.0,3.0
2864.0,2759.0,2929.0,3151.0,3039.0,0.793823,0.039734,-0.60675,0.006714,0.0,0.0,0.0,7663.0,464.0,1851.0,-232.0,13.0,-282.0,209.0,41.0,-296.0,0.963839,0.054936,0.260475,15354.0,1092.0,3710.0,3.0,15.0,1.0
2865.0,2769.0,2883.0,3147.0,3043.0,0.793823,0.039612,-0.606812,0.006592,-2.0,0.0,0.0,7620.0,454.0,1832.0,-276.0,4.0,-301.0,216.0,35.0,-344.0,0.963924,0.05489,0.260409,15054.0,806.0,3550.0,-27.0,10.0,7.0
2883.0,2762.0,2911.0,3151.0,3039.0,0.793762,0.03949,-0.606934,0.006531,-1.0,-1.0,0.0,7608.0,436.0,1822.0,-289.0,-12.0,-309.0,222.0,20.0,-359.0,0.964038,0.054763,0.260173,15214.0,782.0,3604.0,-18.0,-8.0,9.0
2879.0,2767.0,2919.0,3153.0,3043.0,0.79364,0.039368,-0.607056,0.006531,-1.0,0.0,-1.0,7657.0,440.0,1838.0,-240.0,-6.0,-290.0,216.0,23.0,-307.0,0.964082,0.054558,0.259841,15470.0,970.0,3696.0,-8.0,14.0,-4.0
2886.0,2757.0,2909.0,3139.0,3027.0,0.79364,0.039368,-0.607056,0.00647,-1.0,1.0,-1.0,7648.0,456.0,1832.0,-249.0,8.0,-296.0,219.0,38.0,-316.0,0.964077,0.054633,0.25984,15168.0,1008.0,3628.0,-14.0,24.0,-5.0
2875.0,2767.0,2893.0,3139.0,3043.0,0.793579,0.039246,-0.607178,0.006287,-1.0,-1.0,0.0,7618.0,461.0,1820.0,-280.0,13.0,-306.0,220.0,44.0,-348.0,0.964181,0.054655,0.259602,15262.0,934.0,3688.0,-20.0,-3.0,1.0
2879.0,2771.0,2907.0,3147.0,3039.0,0.793518,0.039246,-0.607239,0.006226,-1.0,-1.0,-1.0,7633.0,461.0,1829.0,-265.0,12.0,-296.0,214.0,42.0,-331.0,0.964199,0.054723,0.259431,15372.0,928.0,3708.0,-12.0,0.0,-4.0
2871.0,2770.0,2899.0,3149.0,3039.0,0.793457,0.039185,-0.607361,0.006104,-1.0,0.0,-1.0,7640.0,463.0,1826.0,-259.0,14.0,-297.0,217.0,44.0,-325.0,0.964308,0.054768,0.259189,15240.0,904.0,3616.0,-8.0,9.0,-2.0
2871.0,2763.0,2906.0,3151.0,3035.0,0.793396,0.039185,-0.607422,0.006104,-1.0,0.0,0.0,7639.0,460.0,1822.0,-260.0,11.0,-299.0,219.0,41.0,-327.0,0.96433,0.054763,0.259018,15264.0,888.0,3650.0,-1.0,7.0,4.0
2879.0,2771.0,2897.0,3147.0,3031.0,0.793335,0.039246,-0.607483,0.006165,0.0,0.0,0.0,7632.0,463.0,1822.0,-268.0,14.0,-298.0,216.0,44.0,-334.0,0.964359,0.05478,0.258843,15206.0,998.0,3668.0,6.0,7.0,7.0
2879.0,2769.0,2903.0,3152.0,3039.0,0.793213,0.039185,-0.607605,0.006104,-1.0,-1.0,0.0,7620.0,488.0,1835.0,-280.0,39.0,-282.0,196.0,69.0,-340.0,0.964399,0.054746,0.258505,15322.0,862.0,3708.0,-20.0,-8.0,9.0
2864.0,2767.0,2907.0,3151.0,3069.0,0.793152,0.039062,-0.607727,0.006104,-1.0,-1.0,0.0,7631.0,465.0,1837.0,-270.0,18.0,-278.0,196.0,47.0,-331.0,0.964517,0.054546,0.258269,15332.0,824.0,3668.0,-13.0,-3.0,12.0
2875.0,2769.0,2895.0,3151.0,3050.0,0.79303,0.039001,-0.607849,0.006165,-1.0,0.0,0.0,7648.0,464.0,1841.0,-253.0,18.0,-271.0,194.0,46.0,-312.0,0.964566,0.054364,0.257933,15370.0,912.0,3718.0,-5.0,7.0,10.0
2879.0,2765.0,2917.0,3151.0,3039.0,0.79303,0.03894,-0.60791,0.006165,-1.0,0.0,0.0,7655.0,464.0,1843.0,-247.0,19.0,-269.0,193.0,46.0,-306.0,0.964662,0.054267,0.257863,15324.0,950.0,3678.0,-8.0,15.0,11.0
2879.0,2767.0,2899.0,3149.0,3029.0,0.79303,0.038757,-0.60791,0.006165,-1.0,0.0,0.0,7651.0,435.0,1817.0,-251.0,-7.0,-295.0,219.0,22.0,-318.0,0.96466,0.053976,0.257877,15282.0,688.0,3478.0,-13.0,22.0,15.0
2882.0,2767.0,2896.0,3151.0,3054.0,0.79303,0.038696,-0.60791,0.006287,0.0,1.0,0.0,7660.0,409.0,1822.0,-242.0,-31.0,-290.0,218.0,-1.0,-309.0,0.964668,0.053731,0.257884,15396.0,680.0,3700.0,3.0,24.0,17.0
2864.0,2767.0,2903.0,3150.0,3039.0,0.793091,0.038757,-0.607788,0.006653,1.0,1.0,0.0,7641.0,419.0,1811.0,-260.0,-18.0,-303.0,225.0,12.0,-329.0,0.964578,0.053389,0.258129,15204.0,994.0,3620.0,30.0,33.0,20.0
2878.0,2775.0,2917.0,3151.0,3039.0,0.793152,0.038818,-0.607788,0.006775,0.0,1.0,0.0,7636.0,447.0,1814.0,-266.0,10.0,-301.0,220.0,40.0,-333.0,0.964662,0.053342,0.258223,15282.0,1054.0,3664.0,18.0,25.0,21.0
2877.0,2771.0,2903.0,3147.0,3035.0,0.793213,0.038696,-0.607666,0.006897,-1.0,1.0,0.0,7644.0,479.0,1830.0,-257.0,44.0,-287.0,206.0,73.0,-319.0,0.964551,0.053007,0.258479,15260.0,996.0,3694.0,-13.0,31.0,17.0
2875.0,2785.0,2901.0,3135.0,3027.0,0.793274,0.038635,-0.607605,0.006836,-1.0,1.0,0.0,7648.0,467.0,1843.0,-253.0,32.0,-275.0,196.0,60.0,-313.0,0.964523,0.05299,0.258654,15374.0,846.0,3818.0,-16.0,27.0,11.0
2895.0,2763.0,2895.0,3135.0,3019.0,0.793396,0.038513,-0.607422,0.006897,-1.0,1.0,0.0,7649.0,454.0,1866.0,-251.0,22.0,-256.0,179.0,48.0,-307.0,0.964383,0.052734,0.25908,15292.0,924.0,3812.0,-7.0,37.0,9.0
2877.0,2775.0,2914.0,3153.0,3034.0,0.793457,0.038452,-0.607361,0.006897,-1.0,1.0,0.0,7633.0,443.0,1865.0,-267.0,11.0,-258.0,177.0,38.0,-323.0,0.96436,0.052642,0.259256,15132.0,818.0,3688.0,-10.0,36.0,13.0
2871.0,2771.0,2907.0,3155.0,3031.0,0.793457,0.038269,-0.607361,0.007019,-1.0,-1.0,0.0,7583.0,434.0,1872.0,-317.0,6.0,-251.0,158.0,34.0,-370.0,0.964367,0.052203,0.259272,15068.0,860.0,3798.0,-11.0,-4.0,21.0
2865.0,2766.0,2903.0,3143.0,3043.0,0.793396,0.038147,-0.607483,0.007019,-1.0,-1.0,0.0,7588.0,429.0,1884.0,-313.0,2.0,-238.0,147.0,29.0,-363.0,0.964485,0.052003,0.259036,15228.0,792.0,3824.0,-9.0,-18.0,20.0
2875.0,2757.0,2903.0,3141.0,3031.0,0.793152,0.038025,-0.607788,0.007202,0.0,-2.0,0.0,7603.0,417.0,1903.0,-299.0,-5.0,-212.0,126.0,20.0,-343.0,0.964684,0.051564,0.25829,15272.0,830.0,3854.0,5.0,-27.0,17.0
2880.0,2768.0,2907.0,3155.0,3035.0,0.79303,0.038025,-0.607971,0.007263,0.0,-2.0,0.0,7613.0,421.0,1901.0,-290.0,0.0,-211.0,127.0,24.0,-334.0,0.964831,0.051478,0.257874,15276.0,886.0,3766.0,8.0,-23.0,18.0
2881.0,2770.0,2910.0,3153.0,3039.0,0.792786,0.037964,-0.608276,0.007446,-1.0,-1.0,0.0,7647.0,448.0,1891.0,-258.0,29.0,-215.0,138.0,52.0,-302.0,0.965031,0.051136,0.257123,15444.0,988.0,3778.0,0.0,-18.0,21.0
2879.0,2767.0,2893.0,3152.0,3031.0,0.792725,0.037964,-0.608337,0.007507,-1.0,0.0,0.0,7658.0,459.0,1879.0,-247.0,40.0,-225.0,150.0,63.0,-294.0,0.965058,0.051056,0.256953,15338.0,974.0,3624.0,-3.0,2.0,18.0
2879.0,2768.0,2899.0,3147.0,3039.0,0.792725,0.037781,-0.608398,0.007507,-1.0,0.0,0.0,7666.0,443.0,1847.0,-240.0,27.0,-257.0,183.0,52.0,-296.0,0.965152,0.050765,0.256893,15340.0,750.0,3592.0,-17.0,22.0,12.0
2881.0,2769.0,2907.0,3147.0,3043.0,0.792725,0.037659,-0.608337,0.007507,-1.0,1.0,0.0,7653.0,430.0,1824.0,-252.0,15.0,-281.0,204.0,42.0,-314.0,0.965053,0.050572,0.256976,15182.0,806.0,3472.0,-11.0,32.0,12.0
2879.0,2763.0,2899.0,3151.0,3039.0,0.792786,0.037476,-0.608276,0.007507,-2.0,1.0,0.0,7608.0,429.0,1806.0,-297.0,17.0,-300.0,211.0,47.0,-362.0,0.965028,0.050287,0.257161,15072.0,864.0,3560.0,-23.0,23.0,20.0
2879.0,2768.0,2901.0,3149.0,3031.0,0.792725,0.037292,-0.608337,0.007507,-2.0,0.0,0.0,7589.0,435.0,1803.0,-316.0,25.0,-302.0,207.0,56.0,-381.0,0.965048,0.049991,0.257004,15068.0,908.0,3610.0,-29.0,6.0,22.0
2878.0,2767.0,2901.0,3150.0,3035.0,0.792603,0.037048,-0.608582,0.007507,-1.0,-2.0,0.0,7591.0,422.0,1834.0,-316.0,15.0,-267.0,174.0,43.0,-372.0,0.965283,0.049592,0.256531,15314.0,820.0,3812.0,-13.0,-25.0,14.0
2875.0,2768.0,2902.0,3151.0,3039.0,0.79248,0.037048,-0.608704,0.007507,0.0,-1.0,0.0,7628.0,431.0,1860.0,-279.0,24.0,-238.0,155.0,49.0,-329.0,0.965328,0.049581,0.256189,15498.0,952.0,3862.0,1.0,-20.0,10.0
2879.0,2770.0,2913.0,3153.0,3031.0,0.792358,0.036987,-0.608887,0.007568,-1.0,-1.0,0.0,7660.0,462.0,1904.0,-249.0,57.0,-191.0,116.0,78.0,-286.0,0.965473,0.049398,0.255778,15454.0,996.0,3920.0,-10.0,-11.0,18.0
2870.0,2768.0,2896.0,3143.0,3031.0,0.792297,0.036926,-0.608948,0.007568,-1.0,-1.0,0.0,7670.0,450.0,1910.0,-239.0,46.0,-183.0,112.0,66.0,-275.0,0.965494,0.049296,0.255611,15362.0,790.0,3826.0,-15.0,0.0,21.0
2879.0,2767.0,2943.0,3142.0,3043.0,0.792236,0.036682,-0.60907,0.007629,-1.0,-1.0,0.0,7623.0,422.0,1883.0,-287.0,21.0,-209.0,126.0,44.0,-329.0,0.965614,0.048828,0.255385,15164.0,768.0,3738.0,-16.0,-15.0,22.0
2877.0,2771.0,2911.0,3153.0,3037.0,0.792114,0.036499,-0.609192,0.00769,-1.0,-1.0,0.0,7636.0,398.0,1889.0,-274.0,1.0,-200.0,122.0,23.0,-315.0,0.965661,0.048453,0.255057,15366.0,658.0,3812.0,-17.0,-17.0,20.0
2875.0,2768.0,2901.0,3143.0,3037.0,0.791992,0.036316,-0.609375,0.007812,-1.0,0.0,0.0,7642.0,380.0,1876.0,-269.0,-13.0,-210.0,134.0,9.0,-313.0,0.965808,0.048002,0.254656,15310.0,768.0,3752.0,-3.0,2.0,14.0
2876.0,2765.0,2903.0,3147.0,3043.0,0.791992,0.036255,-0.609375,0.007874,-1.0,0.0,0.0,7647.0,380.0,1874.0,-264.0,-11.0,-212.0,137.0,11.0,-309.0,0.965811,0.047831,0.254661,15336.0,764.0,3772.0,-2.0,12.0,11.0
2879.0,2763.0,2903.0,3143.0,3038.0,0.791992,0.036194,-0.609436,0.007874,-1.0,0.0,0.0,7617.0,405.0,1852.0,-295.0,13.0,-233.0,148.0,37.0,-343.0,0.965907,0.047734,0.254591,15172.0,850.0,3638.0,-14.0,3.0,13.0
2878.0,2770.0,2907.0,3151.0,3042.0,0.791931,0.036072,-0.609497,0.007874,-1.0,-1.0,0.0,7622.0,402.0,1857.0,-290.0,12.0,-227.0,143.0,36.0,-337.0,0.965927,0.047535,0.254429,15306.0,784.0,3718.0,-15.0,-2.0,12.0
2876.0,2768.0,2909.0,3151.0,3039.0,0.791809,0.035889,-0.60968,0.007874,-1.0,-1.0,0.0,7603.0,409.0,1859.0,-311.0,22.0,-221.0,132.0,46.0,-355.0,0.966066,0.047233,0.254026,15124.0,840.0,3764.0,-19.0,-21.0,15.0
2876.0,2768.0,2903.0,3143.0,3035.0,0.791626,0.035767,-0.609863,0.007812,-2.0,-2.0,0.0,7597.0,412.0,1857.0,-317.0,26.0,-219.0,128.0,50.0,-360.0,0.966126,0.047098,0.25352,15216.0,840.0,3682.0,-25.0,-37.0,18.0
2871.0,2767.0,2900.0,3149.0,3036.0,0.791382,0.035522,-0.610229,0.007812,-1.0,-1.0,0.0,7656.0,395.0,1883.0,-260.0,12.0,-187.0,113.0,32.0,-297.0,0.966404,0.046689,0.252704,15458.0,730.0,3806.0,-5.0,-21.0,13.0
2879.0,2768.0,2907.0,3153.0,3035.0,0.79126,0.035522,-0.610352,0.007874,0.0,-1.0,0.0,7652.0,400.0,1872.0,-265.0,18.0,-195.0,119.0,38.0,-304.0,0.966453,0.046604,0.252363,15268.0,856.0,3690.0,1.0,-11.0,14.0
2879.0,2767.0,2908.0,3149.0,3037.0,0.791138,0.035339,-0.610535,0.007874,-2.0,0.0,0.0,7673.0,413.0,1863.0,-245.0,33.0,-201.0,129.0,53.0,-285.0,0.96659,0.046302,0.251959,15432.0,770.0,3702.0,-25.0,1.0,18.0
2877.0,2768.0,2907.0,3147.0,3039.0,0.791138,0.035217,-0.610535,0.007874,-2.0,0.0,0.0,7671.0,402.0,1851.0,-247.0,24.0,-213.0,141.0,45.0,-291.0,0.966589,0.046109,0.251968,15262.0,762.0,3634.0,-24.0,16.0,17.0
2875.0,2767.0,2898.0,3143.0,3039.0,0.791138,0.034912,-0.610596,0.007812,-2.0,0.0,0.0,7643.0,379.0,1826.0,-276.0,4.0,-237.0,158.0,27.0,-326.0,0.966676,0.0457,0.251914,15268.0,684.0,3578.0,-23.0,9.0,7.0
2879.0,2767.0,2911.0,3154.0,3035.0,0.791138,0.034851,-0.610596,0.007751,-1.0,0.0,0.0,7634.0,366.0,1816.0,-284.0,-8.0,-247.0,166.0,16.0,-337.0,0.966671,0.045678,0.251917,15210.0,642.0,3594.0,-17.0,6.0,5.0
2879.0,2768.0,2902.0,3151.0,3037.0,0.790955,0.034729,-0.610779,0.007751,0.0,-1.0,0.0,7612.0,352.0,1809.0,-307.0,-20.0,-250.0,164.0,5.0,-360.0,0.966735,0.045469,0.251412,15216.0,730.0,3696.0,1.0,-14.0,1.0
2879.0,2768.0,2897.0,3143.0,3031.0,0.790894,0.03479,-0.610901,0.007812,0.0,-1.0,-1.0,7636.0,357.0,1827.0,-284.0,-15.0,-230.0,150.0,8.0,-333.0,0.966859,0.045485,0.251163,15462.0,726.0,3782.0,9.0,-11.0,-1.0
2879.0,2765.0,2897.0,3147.0,3037.0,0.790894,0.034912,-0.610901,0.007812,0.0,0.0,0.0,7653.0,377.0,1841.0,-267.0,2.0,-216.0,140.0,24.0,-312.0,0.966861,0.045678,0.251155,15264.0,840.0,3668.0,7.0,13.0,0.0
2881.0,2768.0,2907.0,3147.0,3035.0,0.790894,0.034912,-0.610901,0.007812,-1.0,0.0,-1.0,7659.0,394.0,1856.0,-261.0,19.0,-201.0,126.0,39.0,-301.0,0.966861,0.045678,0.251155,15348.0,886.0,3770.0,-10.0,8.0,-1.0
2875.0,2768.0,2910.0,3157.0,3035.0,0.790955,0.034851,-0.61084,0.007629,-1.0,1.0,-1.0,7657.0,378.0,1849.0,-263.0,2.0,-209.0,135.0,23.0,-306.0,0.966825,0.045811,0.251327,15224.0,692.0,3608.0,-14.0,26.0,-5.0
2883.0,2768.0,2897.0,3143.0,3031.0,0.790955,0.034851,-0.61084,0.007568,-1.0,1.0,-1.0,7640.0,378.0,1842.0,-280.0,2.0,-216.0,137.0,24.0,-324.0,0.966821,0.045885,0.251327,15184.0,792.0,3658.0,-11.0,23.0,-7.0
2875.0,2767.0,2901.0,3143.0,3031.0,0.791016,0.03479,-0.610779,0.007446,-1.0,0.0,-1.0,7609.0,381.0,1841.0,-310.0,4.0,-219.0,132.0,27.0,-354.0,0.966789,0.045943,0.2515,15114.0,760.0,3744.0,-16.0,14.0,-5.0
2883.0,2771.0,2902.0,3151.0,3031.0,0.791016,0.034729,-0.610779,0.007324,-1.0,0.0,-1.0,7599.0,378.0,1835.0,-320.0,1.0,-225.0,136.0,25.0,-365.0,0.96678,0.045995,0.251503,15162.0,714.0,3618.0,-15.0,2.0,-2.0
2878.0,2771.0,2911.0,3151.0,3035.0,0.790894,0.034729,-0.610962,0.007385,0.0,-1.0,0.0,7624.0,364.0,1857.0,-297.0,-12.0,-199.0,117.0,9.0,-337.0,0.966925,0.04591,0.251087,15392.0,822.0,3866.0,13.0,-7.0,2.0
2875.0,2763.0,2898.0,3143.0,3035.0,0.790833,0.03479,-0.610962,0.007385,0.0,0.0,0.0,7651.0,394.0,1880.0,-269.0,17.0,-176.0,100.0,36.0,-303.0,0.966851,0.046002,0.250986,15484.0,974.0,3874.0,13.0,3.0,0.0
2879.0,2763.0,2898.0,3151.0,3039.0,0.790955,0.034851,-0.61084,0.007385,-1.0,1.0,0.0,7671.0,413.0,1889.0,-249.0,35.0,-169.0,98.0,53.0,-281.0,0.966808,0.046109,0.251324,15360.0,848.0,3768.0,-8.0,30.0,2.0
2879.0,2771.0,2907.0,3152.0,3042.0,0.791016,0.034851,-0.610718,0.007324,-1.0,1.0,0.0,7668.0,412.0,1878.0,-251.0,33.0,-182.0,110.0,52.0,-286.0,0.966685,0.046189,0.251569,15274.0,822.0,3660.0,-8.0,39.0,2.0
2879.0,2768.0,2903.0,3155.0,3043.0,0.791199,0.03479,-0.610474,0.007324,-1.0,1.0,0.0,7641.0,394.0,1868.0,-276.0,16.0,-197.0,119.0,37.0,-315.0,0.966522,0.046109,0.252161,15150.0,724.0,3700.0,-7.0,38.0,6.0
2881.0,2766.0,2896.0,3147.0,3039.0,0.79126,0.034729,-0.610413,0.007324,-1.0,1.0,0.0,7611.0,390.0,1860.0,-306.0,13.0,-207.0,121.0,35.0,-347.0,0.966499,0.046018,0.252336,15042.0,786.0,3658.0,-6.0,25.0,4.0
2877.0,2767.0,2902.0,3147.0,3031.0,0.79126,0.034607,-0.610474,0.007324,-1.0,-1.0,0.0,7593.0,365.0,1872.0,-325.0,-10.0,-194.0,105.0,12.0,-363.0,0.966593,0.045824,0.25227,15170.0,616.0,3728.0,-7.0,-4.0,5.0
2879.0,2771.0,2903.0,3127.0,3037.0,0.791199,0.034607,-0.610535,0.007385,0.0,-1.0,0.0,7599.0,349.0,1877.0,-319.0,-25.0,-188.0,101.0,-3.0,-356.0,0.96662,0.045744,0.2521,15238.0,626.0,3828.0,8.0,-6.0,6.0
2875.0,2768.0,2911.0,3147.0,3039.0,0.791077,0.034729,-0.610718,0.007507,0.0,-1.0,0.0,7620.0,365.0,1883.0,-299.0,-10.0,-178.0,96.0,10.0,-334.0,0.966771,0.045777,0.251676,15334.0,804.0,3768.0,16.0,-10.0,2.0
2879.0,2767.0,2896.0,3143.0,3039.0,0.791016,0.03479,-0.610779,0.007507,0.0,-1.0,0.0,7635.0,386.0,1887.0,-284.0,10.0,-173.0,94.0,29.0,-317.0,0.966794,0.045868,0.251501,15330.0,922.0,3800.0,9.0,-5.0,3.0
2879.0,2765.0,2899.0,3151.0,3037.0,0.790955,0.034729,-0.61084,0.007446,-1.0,0.0,0.0,7629.0,400.0,1873.0,-291.0,24.0,-185.0,103.0,44.0,-326.0,0.96681,0.045841,0.251333,15222.0,726.0,3706.0,-21.0,3.0,1.0
2879.0,2773.0,2910.0,3151.0,3037.0,0.790894,0.034668,-0.610901,0.007385,-1.0,-1.0,0.0,7616.0,381.0,1861.0,-304.0,5.0,-196.0,111.0,26.0,-342.0,0.966827,0.045814,0.251165,15142.0,658.0,3652.0,-17.0,-2.0,4.0
2884.0,2773.0,2903.0,3147.0,3039.0,0.790771,0.034668,-0.611023,0.007446,0.0,-1.0,0.0,7616.0,370.0,1854.0,-304.0,-4.0,-200.0,116.0,18.0,-344.0,0.966875,0.045729,0.250824,15272.0,818.0,3780.0,20.0,-8.0,5.0
2875.0,2767.0,2909.0,3149.0,3039.0,0.79071,0.034729,-0.611145,0.007507,0.0,-1.0,0.0,7624.0,387.0,1860.0,-297.0,12.0,-192.0,109.0,33.0,-334.0,0.966999,0.045745,0.250575,15296.0,890.0,3776.0,18.0,-7.0,4.0
2879.0,2768.0,2899.0,3151.0,3039.0,0.790588,0.03479,-0.611267,0.007629,-1.0,-1.0,0.0,7613.0,403.0,1892.0,-309.0,28.0,-157.0,72.0,47.0,-336.0,0.967052,0.045682,0.25023,15276.0,770.0,3908.0,0.0,-22.0,14.0
2876.0,2768.0,2910.0,3151.0,3045.0,0.790527,0.034729,-0.611389,0.00769,0.0,-1.0,0.0,7617.0,390.0,1898.0,-306.0,17.0,-149.0,65.0,35.0,-332.0,0.967174,0.045505,0.24999,15250.0,686.0,3826.0,9.0,-22.0,16.0
2877.0,2768.0,2911.0,3151.0,3037.0,0.790344,0.034729,-0.611633,0.007935,0.0,-2.0,0.0,7624.0,386.0,1923.0,-300.0,15.0,-120.0,39.0,31.0,-319.0,0.967353,0.04519,0.249406,15352.0,782.0,3948.0,16.0,-29.0,21.0
2881.0,2763.0,2903.0,3147.0,3039.0,0.790222,0.034729,-0.611755,0.008057,0.0,-2.0,0.0,7646.0,387.0,1936.0,-278.0,18.0,-104.0,29.0,32.0,-294.0,0.967405,0.04503,0.249065,15408.0,792.0,3892.0,17.0,-23.0,22.0
2875.0,2767.0,2897.0,3155.0,3045.0,0.7901,0.03479,-0.611938,0.00824,-1.0,-1.0,0.0,7667.0,403.0,1922.0,-259.0,35.0,-114.0,43.0,49.0,-277.0,0.967559,0.044891,0.248647,15418.0,792.0,3794.0,-1.0,-15.0,12.0
2885.0,2767.0,2903.0,3149.0,3039.0,0.790039,0.034729,-0.612,0.00824,-1.0,-1.0,0.0,7662.0,385.0,1899.0,-264.0,18.0,-136.0,64.0,34.0,-288.0,0.967579,0.044789,0.24848,15214.0,626.0,3628.0,-10.0,-4.0,8.0
2887.0,2768.0,2909.0,3147.0,3039.0,0.789795,0.034546,-0.612305,0.00824,0.0,-2.0,0.0,7617.0,326.0,1845.0,-310.0,-38.0,-184.0,102.0,-16.0,-347.0,0.96776,0.044478,0.247733,15228.0,464.0,3592.0,1.0,-30.0,6.0
2879.0,2767.0,2907.0,3142.0,3039.0,0.789673,0.034607,-0.612488,0.008362,0.0,-2.0,0.0,7624.0,323.0,1821.0,-305.0,-40.0,-204.0,123.0,-17.0,-347.0,0.967909,0.044413,0.247314,15310.0,684.0,3528.0,15.0,-23.0,3.0
2875.0,2770.0,2903.0,3143.0,3027.0,0.789551,0.034668,-0.612671,0.008362,-1.0,-1.0,0.0,7622.0,361.0,1785.0,-308.0,-3.0,-237.0,152.0,21.0,-356.0,0.968049,0.044498,0.246893,15134.0,820.0,3420.0,-2.0,-1.0,1.0
2875.0,2778.0,2907.0,3159.0,3031.0,0.789429,0.034668,-0.612793,0.008362,-1.0,-1.0,0.0,7610.0,368.0,1761.0,-320.0,3.0,-258.0,169.0,29.0,-373.0,0.968093,0.044488,0.246551,15164.0,770.0,3362.0,-6.0,-7.0,7.0
2882.0,2773.0,2911.0,3147.0,3038.0,0.789246,0.034729,-0.613037,0.008423,0.0,-1.0,0.0,7633.0,402.0,1770.0,-298.0,37.0,-244.0,159.0,61.0,-346.0,0.968259,0.044492,0.245959,15406.0,972.0,3668.0,11.0,-9.0,10.0
2871.0,2768.0,2903.0,3151.0,3037.0,0.789246,0.034729,-0.613037,0.008484,0.0,0.0,0.0,7655.0,441.0,1800.0,-277.0,77.0,-214.0,133.0,98.0,-317.0,0.968263,0.044418,0.24596,15446.0,1092.0,3816.0,1.0,2.0,13.0
2879.0,2769.0,2899.0,3150.0,3039.0,0.789246,0.034607,-0.612976,0.008362,-2.0,0.0,0.0,7666.0,474.0,1826.0,-265.0,110.0,-189.0,110.0,129.0,-298.0,0.968156,0.044376,0.246041,15372.0,888.0,3704.0,-25.0,16.0,20.0
2886.0,2768.0,2899.0,3143.0,3047.0,0.789307,0.034485,-0.612976,0.008423,-1.0,0.0,1.0,7675.0,456.0,1836.0,-256.0,94.0,-180.0,105.0,112.0,-288.0,0.968233,0.044112,0.246147,15396.0,802.0,3704.0,-14.0,21.0,25.0
2878.0,2768.0,2903.0,3135.0,3062.0,0.789429,0.034424,-0.612854,0.008606,0.0,1.0,1.0,7665.0,449.0,1832.0,-266.0,90.0,-187.0,109.0,109.0,-299.0,0.968202,0.043802,0.246497,15304.0,946.0,3650.0,11.0,25.0,24.0
2887.0,2771.0,2906.0,3135.0,3027.0,0.789429,0.034424,-0.612793,0.008728,0.0,0.0,1.0,7666.0,449.0,1829.0,-264.0,91.0,-190.0,112.0,110.0,-298.0,0.968114,0.043653,0.246574,15352.0,872.0,3646.0,6.0,18.0,29.0
2881.0,2769.0,2907.0,3147.0,3031.0,0.78949,0.034241,-0.612732,0.008972,-1.0,1.0,1.0,7668.0,419.0,1815.0,-262.0,66.0,-206.0,130.0,86.0,-301.0,0.968106,0.04307,0.246762,15304.0,706.0,3586.0,-1.0,30.0,35.0
2875.0,2773.0,2911.0,3152.0,3026.0,0.789551,0.03418,-0.61261,0.009155,0.0,1.0,1.0,7662.0,389.0,1820.0,-267.0,38.0,-203.0,127.0,58.0,-306.0,0.967999,0.042756,0.247015,15260.0,558.0,3672.0,6.0,34.0,33.0
2883.0,2765.0,2909.0,3151.0,3047.0,0.789734,0.033997,-0.612366,0.009521,0.0,1.0,1.0,7636.0,355.0,1837.0,-292.0,10.0,-191.0,111.0,30.0,-329.0,0.967859,0.042035,0.247623,15156.0,658.0,3738.0,14.0,41.0,33.0
2879.0,2769.0,2897.0,3143.0,3031.0,0.789856,0.033936,-0.612244,0.009705,0.0,1.0,1.0,7624.0,347.0,1862.0,-304.0,5.0,-169.0,87.0,24.0,-335.0,0.967827,0.041725,0.247973,15194.0,646.0,3868.0,5.0,40.0,28.0
2885.0,2768.0,2891.0,3147.0,3046.0,0.7901,0.033752,-0.611938,0.009888,-1.0,1.0,0.0,7598.0,300.0,1894.0,-329.0,-37.0,-143.0,57.0,-19.0,-355.0,0.967653,0.041234,0.248748,15096.0,462.0,3872.0,-5.0,35.0,18.0
2877.0,2773.0,2923.0,3155.0,3023.0,0.790161,0.03363,-0.611877,0.01001,-1.0,1.0,0.0,7580.0,292.0,1911.0,-346.0,-43.0,-128.0,39.0,-25.0,-368.0,0.967637,0.040897,0.24893,15038.0,588.0,3960.0,-1.0,23.0,16.0
2881.0,2765.0,2915.0,3142.0,3030.0,0.790222,0.033508,-0.611816,0.010254,0.0,-1.0,1.0,7588.0,306.0,1957.0,-338.0,-25.0,-83.0,-3.0,-11.0,-348.0,0.967629,0.040411,0.249114,15252.0,780.0,4096.0,10.0,-3.0,29.0
2879.0,2767.0,2895.0,3139.0,3035.0,0.790222,0.033447,-0.611816,0.010376,0.0,-1.0,1.0,7605.0,327.0,1990.0,-321.0,-2.0,-50.0,-32.0,9.0,-323.0,0.967636,0.040165,0.249121,15316.0,770.0,4134.0,12.0,-6.0,41.0
2887.0,2770.0,2901.0,3143.0,3043.0,0.790222,0.033264,-0.611816,0.010864,0.0,-1.0,2.0,7645.0,393.0,2016.0,-282.0,71.0,-24.0,-51.0,79.0,-276.0,0.967665,0.039278,0.249143,15382.0,972.0,4100.0,3.0,-1.0,54.0
2881.0,2771.0,2919.0,3153.0,3051.0,0.790222,0.033142,-0.611755,0.010986,-1.0,-1.0,2.0,7645.0,414.0,2006.0,-281.0,95.0,-35.0,-42.0,103.0,-276.0,0.967574,0.038937,0.249229,15258.0,936.0,3920.0,-8.0,-1.0,48.0
2883.0,2763.0,2903.0,3151.0,3035.0,0.7901,0.032715,-0.611938,0.011169,-1.0,-2.0,1.0,7620.0,361.0,1955.0,-307.0,49.0,-83.0,0.0,61.0,-315.0,0.967716,0.038026,0.248844,15136.0,472.0,3786.0,-22.0,-26.0,45.0
2879.0,2768.0,2911.0,3155.0,3019.0,0.789978,0.032532,-0.612122,0.011353,-1.0,-2.0,1.0,7629.0,327.0,1938.0,-299.0,19.0,-97.0,17.0,31.0,-312.0,0.967864,0.0375,0.248443,15342.0,464.0,3814.0,-10.0,-37.0,41.0
2877.0,2761.0,2917.0,3147.0,3047.0,0.789795,0.032288,-0.612427,0.011597,-1.0,-1.0,1.0,7622.0,300.0,1885.0,-308.0,-1.0,-144.0,62.0,14.0,-333.0,0.968132,0.036797,0.247801,15220.0,598.0,3574.0,-5.0,-20.0,27.0
2879.0,2769.0,2897.0,3155.0,3051.0,0.789673,0.032104,-0.612549,0.011658,-1.0,-1.0,0.0,7629.0,285.0,1873.0,-302.0,-13.0,-154.0,74.0,3.0,-330.0,0.968175,0.036422,0.247472,15296.0,472.0,3636.0,-18.0,-11.0,21.0
2882.0,2759.0,2915.0,3143.0,3039.0,0.789612,0.031799,-0.612671,0.011597,-2.0,0.0,0.0,7629.0,255.0,1852.0,-303.0,-39.0,-173.0,94.0,-21.0,-337.0,0.968282,0.036008,0.247244,15294.0,372.0,3652.0,-33.0,4.0,8.0
2877.0,2768.0,2914.0,3149.0,3039.0,0.789612,0.031616,-0.612671,0.011536,-2.0,0.0,0.0,7631.0,234.0,1843.0,-301.0,-59.0,-182.0,104.0,-41.0,-338.0,0.968274,0.035794,0.247255,15246.0,332.0,3622.0,-32.0,13.0,2.0
2883.0,2767.0,2903.0,3135.0,3043.0,0.789673,0.031372,-0.612671,0.011414,-1.0,0.0,-1.0,7606.0,213.0,1850.0,-326.0,-78.0,-176.0,93.0,-59.0,-361.0,0.968335,0.035562,0.247364,15180.0,372.0,3740.0,-16.0,5.0,-5.0
2891.0,2767.0,2903.0,3155.0,3024.0,0.789612,0.031311,-0.612671,0.011414,-1.0,-1.0,-1.0,7608.0,220.0,1863.0,-323.0,-70.0,-162.0,80.0,-52.0,-355.0,0.968259,0.035462,0.247271,15270.0,502.0,3862.0,-5.0,-1.0,-6.0
2879.0,2773.0,2925.0,3143.0,3031.0,0.789673,0.031372,-0.612671,0.011353,-1.0,0.0,-1.0,7629.0,275.0,1896.0,-303.0,-16.0,-130.0,51.0,-1.0,-326.0,0.968331,0.035637,0.247362,15342.0,762.0,3888.0,-1.0,7.0,-5.0
2883.0,2768.0,2903.0,3149.0,3045.0,0.789673,0.031372,-0.61261,0.01123,-1.0,0.0,-1.0,7640.0,295.0,1913.0,-291.0,1.0,-113.0,36.0,14.0,-309.0,0.968227,0.035788,0.247434,15316.0,668.0,3898.0,-11.0,12.0,-5.0
2883.0,2768.0,2917.0,3147.0,3027.0,0.789734,0.03125,-0.612549,0.011169,-1.0,-1.0,0.0,7615.0,292.0,1921.0,-316.0,0.0,-107.0,24.0,13.0,-332.0,0.968199,0.035675,0.247612,15150.0,586.0,3806.0,-19.0,-1.0,3.0
2881.0,2775.0,2895.0,3151.0,3039.0,0.789673,0.031189,-0.61261,0.011108,-1.0,-1.0,0.0,7616.0,281.0,1925.0,-315.0,-11.0,-102.0,20.0,1.0,-330.0,0.968216,0.035648,0.247443,15274.0,490.0,3912.0,-16.0,-14.0,1.0
2880.0,2771.0,2901.0,3151.0,3037.0,0.789612,0.031067,-0.612732,0.011047,-1.0,-1.0,0.0,7615.0,273.0,1940.0,-317.0,-18.0,-85.0,4.0,-6.0,-328.0,0.968327,0.035523,0.247203,15190.0,558.0,3880.0,-3.0,-20.0,0.0
2879.0,2768.0,2915.0,3142.0,3055.0,0.78949,0.031067,-0.612854,0.011047,-1.0,-2.0,-1.0,7618.0,268.0,1951.0,-314.0,-22.0,-71.0,-8.0,-11.0,-322.0,0.96837,0.035513,0.246861,15274.0,500.0,3926.0,-6.0,-27.0,-3.0
2879.0,2768.0,2907.0,3153.0,3039.0,0.789368,0.031067,-0.612976,0.010986,0.0,-1.0,-1.0,7648.0,278.0,1935.0,-285.0,-13.0,-84.0,11.0,-1.0,-297.0,0.96841,0.035578,0.246517,15370.0,666.0,3862.0,2.0,-10.0,-6.0
2891.0,2770.0,2895.0,3135.0,3039.0,0.789368,0.031128,-0.613037,0.010925,-1.0,-1.0,-1.0,7639.0,300.0,1921.0,-294.0,7.0,-97.0,20.0,19.0,-308.0,0.968504,0.035748,0.246437,15194.0,732.0,3744.0,-9.0,-2.0,-6.0
2882.0,2774.0,2910.0,3151.0,3037.0,0.789307,0.031006,-0.613098,0.010742,-2.0,0.0,-1.0,7638.0,294.0,1894.0,-296.0,0.0,-123.0,45.0,13.0,-316.0,0.968511,0.035774,0.24627,15298.0,532.0,3684.0,-23.0,3.0,-6.0
2885.0,2771.0,2898.0,3149.0,3047.0,0.789307,0.030945,-0.613098,0.01062,-1.0,0.0,-1.0,7636.0,286.0,1873.0,-297.0,-7.0,-144.0,66.0,8.0,-323.0,0.968502,0.035828,0.246271,15222.0,520.0,3594.0,-17.0,12.0,-8.0
2879.0,2773.0,2903.0,3143.0,3039.0,0.789307,0.030884,-0.613159,0.010559,-1.0,-1.0,-1.0,7605.0,276.0,1835.0,-329.0,-17.0,-181.0,94.0,1.0,-363.0,0.968593,0.035805,0.246198,15184.0,584.0,3608.0,-6.0,-1.0,-4.0
2877.0,2770.0,2906.0,3147.0,3039.0,0.789246,0.030884,-0.61322,0.010559,-1.0,-1.0,-1.0,7611.0,281.0,1829.0,-323.0,-12.0,-186.0,100.0,6.0,-359.0,0.968615,0.0358,0.246027,15298.0,586.0,3636.0,0.0,-6.0,-3.0
2874.0,2763.0,2907.0,3163.0,3027.0,0.789124,0.031006,-0.613342,0.010498,0.0,-1.0,-1.0,7633.0,307.0,1842.0,-302.0,11.0,-170.0,89.0,27.0,-333.0,0.968657,0.036057,0.245676,15282.0,710.0,3682.0,7.0,-7.0,-3.0
2880.0,2767.0,2901.0,3151.0,3031.0,0.789062,0.031067,-0.613403,0.010498,0.0,-1.0,-1.0,7637.0,324.0,1850.0,-298.0,27.0,-161.0,80.0,43.0,-327.0,0.968679,0.036148,0.245501,15318.0,770.0,3748.0,7.0,-10.0,-2.0
2869.0,2759.0,2899.0,3153.0,3031.0,0.789001,0.031189,-0.613464,0.010498,0.0,-1.0,-1.0,7663.0,330.0,1865.0,-272.0,32.0,-144.0,70.0,46.0,-297.0,0.968703,0.036336,0.245322,15426.0,640.0,3790.0,11.0,0.0,-4.0
2879.0,2751.0,2897.0,3147.0,3039.0,0.789001,0.031311,-0.613464,0.010498,0.0,0.0,-1.0,7663.0,343.0,1857.0,-272.0,43.0,-152.0,77.0,58.0,-299.0,0.968706,0.036529,0.245315,15268.0,790.0,3606.0,12.0,7.0,-3.0
2879.0,2768.0,2909.0,3147.0,3039.0,0.789001,0.031433,-0.613464,0.010498,-1.0,0.0,-1.0,7645.0,353.0,1856.0,-290.0,52.0,-153.0,73.0,67.0,-316.0,0.968709,0.036721,0.245307,15224.0,726.0,3766.0,0.0,8.0,-2.0
2879.0,2768.0,2905.0,3143.0,3039.0,0.789062,0.031433,-0.613403,0.010437,-1.0,0.0,-1.0,7625.0,362.0,1850.0,-310.0,60.0,-160.0,74.0,76.0,-337.0,0.968683,0.036801,0.245477,15080.0,782.0,3520.0,-9.0,11.0,-1.0
2879.0,2768.0,2902.0,3151.0,3039.0,0.789001,0.031372,-0.613464,0.010315,-1.0,0.0,-1.0,7621.0,301.0,1849.0,-314.0,0.0,-160.0,77.0,16.0,-343.0,0.968696,0.03685,0.245307,15290.0,390.0,3810.0,-7.0,4.0,-6.0
2883.0,2767.0,2903.0,3155.0,3035.0,0.789062,0.031433,-0.613403,0.010376,0.0,0.0,-1.0,7611.0,283.0,1844.0,-324.0,-19.0,-166.0,81.0,-1.0,-355.0,0.968679,0.036876,0.245476,15106.0,494.0,3564.0,11.0,13.0,-7.0
2879.0,2763.0,2895.0,3151.0,3035.0,0.789001,0.031555,-0.613464,0.010376,0.0,-1.0,-1.0,7590.0,296.0,1883.0,-345.0,-7.0,-126.0,37.0,8.0,-365.0,0.968703,0.037064,0.245297,15250.0,650.0,3998.0,10.0,-12.0,-3.0
2879.0,2767.0,2896.0,3153.0,3031.0,0.789001,0.031616,-0.613525,0.010437,0.0,-1.0,0.0,7622.0,293.0,1905.0,-314.0,-10.0,-103.0,22.0,3.0,-329.0,0.968805,0.037084,0.245219,15424.0,544.0,3930.0,8.0,-9.0,0.0
2882.0,2768.0,2899.0,3147.0,3031.0,0.789001,0.031738,-0.613464,0.010498,0.0,0.0,0.0,7645.0,309.0,1934.0,-290.0,4.0,-75.0,0.0,15.0,-299.0,0.968715,0.037203,0.245288,15314.0,746.0,3874.0,15.0,2.0,0.0
2879.0,2767.0,2895.0,3151.0,3035.0,0.789001,0.031799,-0.613464,0.010498,0.0,-1.0,-1.0,7639.0,327.0,1938.0,-296.0,21.0,-71.0,-5.0,32.0,-303.0,0.968716,0.037299,0.245284,15226.0,734.0,3878.0,4.0,-3.0,-2.0
2881.0,2767.0,2903.0,3152.0,3039.0,0.789001,0.031799,-0.613464,0.010437,-1.0,-1.0,-1.0,7640.0,326.0,1952.0,-295.0,19.0,-57.0,-18.0,29.0,-299.0,0.968712,0.037374,0.245283,15312.0,610.0,3932.0,-11.0,-10.0,-1.0
2879.0,2767.0,2903.0,3150.0,3045.0,0.78894,0.031738,-0.613525,0.010376,-1.0,-1.0,0.0,7630.0,320.0,1939.0,-305.0,14.0,-68.0,-10.0,25.0,-311.0,0.968729,0.037347,0.245114,15148.0,660.0,3818.0,-7.0,-8.0,1.0
2869.0,2763.0,2903.0,3150.0,3035.0,0.788879,0.031738,-0.613647,0.010376,-1.0,-1.0,0.0,7622.0,325.0,1936.0,-314.0,19.0,-69.0,-11.0,30.0,-320.0,0.968846,0.037341,0.244868,15208.0,696.0,3842.0,-5.0,-19.0,1.0
2885.0,2767.0,2897.0,3151.0,3031.0,0.788757,0.031738,-0.61377,0.010315,-1.0,-1.0,0.0,7643.0,335.0,1927.0,-294.0,28.0,-76.0,0.0,39.0,-302.0,0.968885,0.037406,0.244524,15426.0,684.0,3790.0,-5.0,-18.0,1.0
2879.0,2769.0,2906.0,3155.0,3031.0,0.788696,0.031677,-0.613892,0.010254,-1.0,-1.0,0.0,7656.0,327.0,1912.0,-282.0,20.0,-89.0,15.0,31.0,-294.0,0.968998,0.037378,0.244281,15344.0,574.0,3704.0,-10.0,-8.0,2.0
2879.0,2773.0,2938.0,3151.0,3035.0,0.788635,0.031616,-0.613953,0.010254,0.0,0.0,0.0,7643.0,306.0,1857.0,-295.0,0.0,-142.0,64.0,15.0,-320.0,0.969018,0.037276,0.244113,15244.0,558.0,3548.0,4.0,2.0,2.0
2885.0,2768.0,2897.0,3149.0,3031.0,0.788574,0.031677,-0.614014,0.010315,0.0,-1.0,0.0,7631.0,321.0,1832.0,-307.0,15.0,-166.0,84.0,32.0,-337.0,0.969044,0.037293,0.243939,15226.0,764.0,3552.0,6.0,-2.0,5.0
2879.0,2767.0,2911.0,3151.0,3039.0,0.788513,0.031616,-0.614075,0.010254,-1.0,0.0,0.0,7639.0,325.0,1814.0,-299.0,19.0,-182.0,101.0,37.0,-333.0,0.96906,0.037266,0.243771,15270.0,608.0,3568.0,-11.0,5.0,4.0
2879.0,2766.0,2902.0,3149.0,3039.0,0.788513,0.031616,-0.614136,0.010254,-1.0,0.0,0.0,7620.0,316.0,1799.0,-319.0,10.0,-197.0,111.0,29.0,-356.0,0.969157,0.037265,0.243696,15106.0,578.0,3536.0,-5.0,2.0,7.0
2887.0,2767.0,2901.0,3152.0,3039.0,0.788391,0.031616,-0.614319,0.010315,0.0,-1.0,0.0,7619.0,316.0,1815.0,-321.0,11.0,-177.0,92.0,29.0,-353.0,0.969299,0.037179,0.24328,15344.0,658.0,3748.0,7.0,-13.0,4.0
2881.0,2769.0,2902.0,3143.0,3039.0,0.78833,0.031616,-0.614319,0.010376,0.0,-1.0,0.0,7630.0,319.0,1834.0,-309.0,15.0,-158.0,76.0,31.0,-337.0,0.969228,0.0371,0.243185,15306.0,670.0,3820.0,10.0,-9.0,4.0
2875.0,2767.0,2903.0,3153.0,3031.0,0.031677,-0.61438,0.010376,0.0,-1.0,0.0,7636.0,328.0,1842.0,-19862.0,333.0,2160.0,-16777.0,87.0,-1470.0,6233.0,-0.000657,-0.038924,-0.376567,15464.0,734.0,3832.0,10.0,-12.0,9.0
2883.0,2771.0,2899.0,3149.0,3035.0,0.788208,0.031738,-0.614502,0.010498,0.0,0.0,0.0,7681.0,351.0,1862.0,-260.0,46.0,-126.0,55.0,59.0,-280.0,0.969377,0.037131,0.242762,15470.0,810.0,3734.0,12.0,1.0,12.0
2881.0,2769.0,2903.0,3143.0,3039.0,0.788269,0.031799,-0.61438,0.010559,-1.0,0.0,0.0,7670.0,386.0,1878.0,-270.0,81.0,-112.0,37.0,93.0,-285.0,0.969265,0.037158,0.243006,15204.0,802.0,3744.0,-10.0,20.0,10.0
2879.0,2770.0,2903.0,3152.0,3035.0,0.78833,0.031738,-0.61438,0.010498,-1.0,0.0,0.0,7651.0,370.0,1867.0,-289.0,65.0,-124.0,45.0,79.0,-307.0,0.969335,0.037141,0.243105,15198.0,578.0,3674.0,-22.0,12.0,12.0
2875.0,2766.0,2909.0,3147.0,3027.0,0.78833,0.031494,-0.614319,0.010559,0.0,0.0,0.0,7633.0,295.0,1850.0,-306.0,-5.0,-142.0,62.0,10.0,-331.0,0.969237,0.036682,0.243196,15216.0,438.0,3654.0,1.0,12.0,13.0
2879.0,2774.0,2903.0,3143.0,3039.0,0.78833,0.031494,-0.614319,0.010681,0.0,0.0,0.0,7616.0,272.0,1849.0,-324.0,-27.0,-143.0,60.0,-10.0,-349.0,0.969245,0.036532,0.243199,15134.0,434.0,3692.0,10.0,5.0,10.0
2881.0,2767.0,2911.0,3147.0,3043.0,0.788269,0.031494,-0.614441,0.010803,0.0,-1.0,0.0,7629.0,279.0,1876.0,-312.0,-18.0,-114.0,35.0,-4.0,-330.0,0.96937,0.036376,0.242955,15426.0,612.0,3908.0,9.0,-9.0,2.0
2881.0,2768.0,2906.0,3149.0,3035.0,0.788269,0.031555,-0.61438,0.010803,0.0,0.0,-1.0,7648.0,293.0,1902.0,-292.0,-5.0,-88.0,13.0,6.0,-304.0,0.969275,0.036473,0.243026,15394.0,682.0,3968.0,3.0,3.0,-2.0
2879.0,2769.0,2901.0,3151.0,3037.0,0.78833,0.031555,-0.61438,0.010742,-1.0,0.0,-1.0,7652.0,304.0,1906.0,-288.0,4.0,-85.0,11.0,15.0,-299.0,0.969346,0.036552,0.243121,15340.0,648.0,3872.0,-10.0,7.0,-2.0
2883.0,2767.0,2906.0,3150.0,3031.0,0.788391,0.031372,-0.614258,0.01062,-1.0,0.0,0.0,7647.0,285.0,1903.0,-292.0,-13.0,-90.0,16.0,0.0,-305.0,0.969217,0.03642,0.243377,15248.0,478.0,3730.0,-13.0,12.0,1.0
2878.0,2767.0,2903.0,3151.0,3035.0,0.788391,0.031372,-0.614258,0.01062,0.0,0.0,-1.0,7633.0,281.0,1900.0,-306.0,-17.0,-93.0,15.0,-4.0,-319.0,0.969217,0.03642,0.243377,15170.0,568.0,3810.0,4.0,11.0,-1.0
2879.0,2766.0,2902.0,3151.0,3039.0,0.788391,0.031494,-0.614258,0.01062,0.0,-1.0,0.0,7628.0,315.0,1910.0,-311.0,15.0,-83.0,3.0,26.0,-321.0,0.96922,0.036612,0.243369,15304.0,706.0,3882.0,3.0,0.0,0.0
2879.0,2767.0,2899.0,3151.0,3035.0,0.788391,0.031494,-0.614258,0.01062,-1.0,0.0,0.0,7635.0,315.0,1913.0,-304.0,15.0,-80.0,2.0,26.0,-313.0,0.96922,0.036612,0.243369,15320.0,624.0,3890.0,-4.0,2.0,2.0
2881.0,2768.0,2903.0,3151.0,3047.0,0.731384,0.261841,-0.587585,0.226318,0.0,1.0,0.0,7673.0,920.0,1308.0,-338.0,-38.0,-103.0,30.0,30.0,-352.0,0.97802,0.11705,0.172326,15098.0,1886.0,2408.0,3.0,34.0,0.0
2879.0,2768.0,2903.0,3151.0,3037.0,0.731384,0.261841,-0.587585,0.226318,-1.0,0.0,0.0,7662.0,920.0,1297.0,-349.0,-38.0,-114.0,36.0,36.0,-365.0,0.97802,0.11705,0.172326,15368.0,1792.0,2648.0,-7.0,7.0,0.0
2879.0,2767.0,2909.0,3151.0,3049.0,0.731384,0.261841,-0.587524,0.226379,0.0,0.0,-1.0,7694.0,905.0,1294.0,-317.0,-53.0,-118.0,55.0,28.0,-336.0,0.977963,0.117006,0.172425,15414.0,1840.0,2520.0,12.0,16.0,-2.0
2886.0,2771.0,2903.0,3151.0,3050.0,0.731384,0.261902,-0.587524,0.226379,0.0,0.0,0.0,7687.0,920.0,1304.0,-324.0,-39.0,-108.0,37.0,32.0,-340.0,0.977991,0.117095,0.172393,15340.0,1970.0,2748.0,13.0,10.0,0.0
2881.0,2767.0,2903.0,3151.0,3047.0,0.731445,0.261902,-0.587524,0.226318,-1.0,-1.0,0.0,7689.0,963.0,1327.0,-323.0,2.0,-85.0,-5.0,49.0,-330.0,0.97803,0.117199,0.172455,15470.0,1940.0,2724.0,-8.0,-3.0,5.0
2879.0,2768.0,2898.0,3151.0,3043.0,0.731445,0.261902,-0.587524,0.226318,-1.0,0.0,0.0,7702.0,966.0,1338.0,-310.0,5.0,-74.0,-12.0,44.0,-315.0,0.97803,0.117199,0.172455,15496.0,1946.0,2774.0,-3.0,6.0,4.0
2879.0,2767.0,2907.0,3155.0,3039.0,0.731506,0.261902,-0.587402,0.226379,0.0,0.0,0.0,7708.0,962.0,1347.0,-303.0,1.0,-67.0,-13.0,37.0,-307.0,0.977955,0.117214,0.172715,15432.0,1858.0,2708.0,2.0,15.0,1.0
2879.0,2771.0,2909.0,3155.0,3043.0,0.731628,0.261902,-0.587158,0.226501,0.0,1.0,0.0,7708.0,958.0,1376.0,-302.0,-2.0,-43.0,-29.0,19.0,-302.0,0.977806,0.117245,0.173236,15374.0,1902.0,2910.0,14.0,35.0,8.0
2869.0,2767.0,2901.0,3154.0,3043.0,0.73175,0.261841,-0.587036,0.226624,0.0,1.0,0.0,7686.0,962.0,1371.0,-324.0,2.0,-51.0,-30.0,26.0,-325.0,0.977807,0.117132,0.173645,15204.0,1958.0,2688.0,12.0,35.0,8.0
2881.0,2767.0,2906.0,3147.0,3047.0,0.731812,0.261841,-0.586853,0.226807,0.0,0.0,0.0,7673.0,957.0,1392.0,-336.0,-1.0,-33.0,-44.0,12.0,-334.0,0.977706,0.117032,0.174032,15396.0,1898.0,2948.0,3.0,4.0,8.0
2879.0,2768.0,2917.0,3155.0,3039.0,0.731873,0.261841,-0.586792,0.226807,0.0,0.0,0.0,7678.0,948.0,1399.0,-331.0,-11.0,-27.0,-41.0,1.0,-329.0,0.977688,0.117092,0.174193,15318.0,1860.0,2752.0,5.0,7.0,2.0
2879.0,2768.0,2901.0,3147.0,3047.0,0.731873,0.261841,-0.586792,0.226868,0.0,0.0,0.0,7680.0,942.0,1412.0,-329.0,-16.0,-15.0,-47.0,-10.0,-326.0,0.97772,0.11702,0.174221,15384.0,1886.0,2920.0,9.0,2.0,0.0
2875.0,2768.0,2901.0,3151.0,3035.0,0.731934,0.261841,-0.586731,0.226807,-1.0,0.0,0.0,7671.0,969.0,1414.0,-338.0,9.0,-14.0,-65.0,7.0,-331.0,0.977671,0.117151,0.174354,15248.0,2074.0,2736.0,-12.0,2.0,3.0
2879.0,2768.0,2901.0,3151.0,3045.0,0.731995,0.26178,-0.586731,0.226746,-2.0,-1.0,0.0,7669.0,977.0,1426.0,-340.0,17.0,-3.0,-79.0,6.0,-330.0,0.977683,0.117165,0.174448,15328.0,1994.0,2906.0,-24.0,-6.0,4.0
2881.0,2768.0,2903.0,3153.0,3045.0,0.731995,0.261536,-0.586853,0.226624,-1.0,-1.0,0.0,7681.0,932.0,1405.0,-328.0,-25.0,-23.0,-35.0,-12.0,-327.0,0.977687,0.116896,0.174377,15238.0,1730.0,2566.0,-9.0,-8.0,6.0
2881.0,2767.0,2895.0,3152.0,3039.0,0.731873,0.261597,-0.586975,0.226624,0.0,-1.0,0.0,7675.0,930.0,1397.0,-334.0,-27.0,-28.0,-31.0,-10.0,-334.0,0.97775,0.116866,0.174023,15344.0,1912.0,2786.0,12.0,-20.0,3.0
2875.0,2769.0,2909.0,3152.0,3035.0,0.731628,0.26178,-0.587158,0.226624,0.0,-2.0,0.0,7693.0,947.0,1363.0,-317.0,-10.0,-57.0,-17.0,21.0,-321.0,0.977814,0.116923,0.173355,15470.0,1968.0,2642.0,13.0,-30.0,6.0
2879.0,2769.0,2910.0,3153.0,3047.0,0.731506,0.261841,-0.58728,0.226624,0.0,-2.0,0.0,7705.0,952.0,1347.0,-305.0,-5.0,-70.0,-8.0,34.0,-310.0,0.977877,0.116893,0.173001,15486.0,1924.0,2584.0,12.0,-27.0,7.0
2881.0,2771.0,2899.0,3153.0,3039.0,0.731384,0.261963,-0.587402,0.226624,-1.0,-1.0,0.0,7730.0,990.0,1330.0,-281.0,31.0,-84.0,-15.0,71.0,-285.0,0.977968,0.116953,0.172615,15514.0,2174.0,2688.0,-1.0,-3.0,5.0
2883.0,2768.0,2902.0,3151.0,3050.0,0.731445,0.261963,-0.587402,0.226562,-2.0,0.0,0.0,7739.0,1008.0,1325.0,-272.0,49.0,-89.0,-21.0,88.0,-275.0,0.978007,0.117056,0.172677,15530.0,2076.0,2628.0,-23.0,12.0,4.0
2879.0,2767.0,2910.0,3150.0,3039.0,0.731628,0.261658,-0.58728,0.22644,-2.0,1.0,0.0,7710.0,990.0,1292.0,-300.0,32.0,-126.0,10.0,98.0,-311.0,0.977842,0.116904,0.173193,15300.0,1872.0,2484.0,-33.0,31.0,5.0
2882.0,2768.0,2906.0,3151.0,3043.0,0.73175,0.261536,-0.58728,0.226379,-2.0,1.0,0.0,7696.0,963.0,1283.0,-314.0,5.0,-137.0,33.0,85.0,-330.0,0.977898,0.116861,0.173407,15304.0,1732.0,2522.0,-24.0,29.0,1.0
2883.0,2771.0,2907.0,3135.0,3043.0,0.731812,0.261353,-0.587219,0.226379,-1.0,0.0,0.0,7664.0,939.0,1286.0,-346.0,-16.0,-136.0,39.0,67.0,-363.0,0.977797,0.116653,0.173664,15258.0,1856.0,2606.0,-12.0,3.0,6.0
2879.0,2768.0,2898.0,3151.0,3039.0,0.731812,0.261292,-0.58728,0.226318,-1.0,-1.0,0.0,7664.0,936.0,1308.0,-346.0,-19.0,-114.0,24.0,51.0,-360.0,0.977827,0.116608,0.173597,15366.0,1844.0,2776.0,-16.0,-6.0,9.0
2881.0,2763.0,2906.0,3143.0,3047.0,0.731812,0.261108,-0.587402,0.226318,-1.0,-1.0,0.0,7680.0,915.0,1351.0,-331.0,-37.0,-70.0,6.0,9.0,-340.0,0.977923,0.116284,0.173549,15494.0,1766.0,2878.0,-16.0,-5.0,10.0
2875.0,2769.0,2910.0,3155.0,3043.0,0.731812,0.260986,-0.587402,0.226318,-1.0,0.0,0.0,7691.0,904.0,1376.0,-319.0,-47.0,-46.0,-2.0,-13.0,-325.0,0.977868,0.116106,0.173613,15418.0,1738.0,2908.0,-14.0,9.0,6.0
2875.0,2768.0,2907.0,3153.0,3046.0,0.732056,0.260803,-0.58728,0.226257,-1.0,1.0,-1.0,7694.0,900.0,1401.0,-316.0,-51.0,-25.0,-14.0,-30.0,-319.0,0.977861,0.116092,0.174181,15336.0,1782.0,2882.0,-19.0,23.0,-8.0
2870.0,2768.0,2946.0,3143.0,3039.0,0.732178,0.260742,-0.587158,0.226196,-1.0,1.0,-1.0,7697.0,892.0,1400.0,-312.0,-59.0,-29.0,-5.0,-33.0,-316.0,0.977766,0.116193,0.174508,15418.0,1726.0,2794.0,-19.0,25.0,-10.0
2879.0,2768.0,2900.0,3150.0,3035.0,0.732361,0.26062,-0.586975,0.226135,-1.0,0.0,-1.0,7653.0,905.0,1380.0,-355.0,-47.0,-53.0,-4.0,-10.0,-361.0,0.977626,0.116264,0.175027,15160.0,1880.0,2646.0,-11.0,9.0,-13.0
2881.0,2767.0,2906.0,3153.0,3045.0,0.732361,0.260681,-0.587036,0.226013,-1.0,-1.0,-1.0,7641.0,909.0,1368.0,-368.0,-45.0,-64.0,0.0,-2.0,-376.0,0.977679,0.11647,0.174868,15260.0,1798.0,2686.0,-10.0,-13.0,-12.0
2879.0,2768.0,2910.0,3151.0,3039.0,0.732178,0.260803,-0.587219,0.225952,0.0,-2.0,-1.0,7658.0,917.0,1359.0,-351.0,-37.0,-68.0,0.0,7.0,-359.0,0.977756,0.116542,0.174294,15316.0,1972.0,2696.0,16.0,-26.0,-3.0
2874.0,2767.0,2895.0,3147.0,3043.0,0.732056,0.260925,-0.58728,0.225891,0.0,-2.0,-1.0,7664.0,941.0,1352.0,-345.0,-15.0,-73.0,-8.0,27.0,-351.0,0.977725,0.116701,0.173952,15394.0,2010.0,2646.0,14.0,-35.0,-1.0
2879.0,2767.0,2901.0,3155.0,3045.0,0.73175,0.261169,-0.587585,0.22583,0.0,-2.0,0.0,7659.0,967.0,1329.0,-351.0,9.0,-88.0,-13.0,55.0,-357.0,0.977892,0.116833,0.172992,15272.0,1998.0,2538.0,11.0,-43.0,12.0
2875.0,2768.0,2903.0,3151.0,3043.0,0.731567,0.26123,-0.58783,0.22583,0.0,-3.0,0.0,7667.0,970.0,1318.0,-345.0,13.0,-94.0,-9.0,62.0,-352.0,0.978061,0.116716,0.172405,15418.0,1940.0,2608.0,11.0,-51.0,11.0
2881.0,2770.0,2907.0,3155.0,3039.0,0.731262,0.261353,-0.588135,0.22583,0.0,-2.0,0.0,7695.0,958.0,1334.0,-318.0,2.0,-71.0,-14.0,40.0,-323.0,0.978204,0.116597,0.171536,15400.0,1908.0,2696.0,4.0,-32.0,8.0
2879.0,2768.0,2911.0,3151.0,3043.0,0.731201,0.261414,-0.588257,0.225769,-1.0,-2.0,0.0,7704.0,957.0,1334.0,-310.0,1.0,-68.0,-14.0,37.0,-314.0,0.978306,0.116671,0.171244,15490.0,1890.0,2694.0,-8.0,-23.0,0.0
2879.0,2768.0,2905.0,3155.0,3047.0,0.731201,0.26123,-0.588379,0.225525,-2.0,-1.0,-1.0,7690.0,950.0,1332.0,-324.0,-5.0,-69.0,-12.0,33.0,-329.0,0.978275,0.116636,0.171086,15310.0,1856.0,2616.0,-37.0,-5.0,-1.0
2879.0,2769.0,2907.0,3151.0,3039.0,0.731201,0.261108,-0.588501,0.225403,-2.0,-1.0,0.0,7720.0,932.0,1367.0,-294.0,-22.0,-33.0,-21.0,-1.0,-295.0,0.978334,0.116546,0.170951,15774.0,1734.0,3086.0,-41.0,-11.0,1.0
2878.0,2767.0,2902.0,3154.0,3039.0,0.731567,0.260925,-0.588074,0.225403,0.0,3.0,-2.0,7781.0,895.0,1374.0,-231.0,-60.0,-35.0,16.0,-28.0,-238.0,0.978058,0.116662,0.172085,15538.0,1826.0,2694.0,10.0,84.0,-26.0
2879.0,2767.0,2897.0,3153.0,3039.0,0.731873,0.260925,-0.587646,0.225464,0.0,4.0,-2.0,7739.0,921.0,1364.0,-271.0,-36.0,-53.0,6.0,0.0,-278.0,0.977823,0.116942,0.173061,15150.0,2042.0,2642.0,12.0,93.0,-27.0
2871.0,2767.0,2907.0,3149.0,3039.0,0.732361,0.260925,-0.587097,0.225403,-1.0,1.0,-1.0,7647.0,974.0,1356.0,-361.0,11.0,-72.0,-28.0,46.0,-364.0,0.977561,0.117516,0.174394,15052.0,2064.0,2648.0,-16.0,42.0,-11.0
2879.0,2768.0,2909.0,3151.0,3047.0,0.732483,0.260925,-0.587036,0.225281,-1.0,0.0,-1.0,7643.0,978.0,1371.0,-365.0,13.0,-59.0,-40.0,39.0,-365.0,0.977551,0.117751,0.174589,15304.0,1946.0,2856.0,-15.0,13.0,-8.0
2881.0,2770.0,2899.0,3153.0,3039.0,0.732605,0.260925,-0.586975,0.225098,-1.0,-1.0,-1.0,7671.0,974.0,1419.0,-336.0,6.0,-12.0,-65.0,4.0,-329.0,0.977509,0.118057,0.174757,15460.0,1932.0,2984.0,-10.0,-5.0,-16.0
2883.0,2769.0,2903.0,3152.0,3047.0,0.732666,0.260925,-0.586914,0.224976,-1.0,-1.0,-1.0,7686.0,981.0,1433.0,-321.0,12.0,0.0,-74.0,1.0,-312.0,0.977428,0.11826,0.174863,15448.0,2004.0,2960.0,-14.0,-6.0,-16.0
2883.0,2764.0,2899.0,3152.0,3043.0,-1.21228,-1.777283,-1.956116,-0.582703,-13504.0,-5993.0,5720.0,22619.0,-19185.0,-7339.0,-21033.0,-7624.0,-30474.0,2530.0,3252.0,32616.0,-2.671466,6.588797,-5.175957,15546.0,1828.0,2960.0,-25.0,2.0,-15.0
2881.0,2769.0,2903.0,3151.0,3039.0,0.73291,0.260803,-0.586853,0.224609,-1.0,0.0,-1.0,7727.0,961.0,1453.0,-279.0,-11.0,17.0,-64.0,-25.0,-271.0,0.977379,0.118665,0.175192,15488.0,1872.0,2862.0,-14.0,18.0,-7.0
2879.0,2770.0,2903.0,3153.0,3042.0,0.733093,0.260742,-0.586609,0.224609,-1.0,0.0,-1.0,7676.0,978.0,1408.0,-329.0,4.0,-31.0,-48.0,15.0,-326.0,0.977208,0.118781,0.175779,15144.0,2016.0,2672.0,-8.0,16.0,-3.0
2883.0,2768.0,2897.0,3151.0,3042.0,0.733093,0.260742,-0.58667,0.224548,-1.0,-1.0,0.0,7652.0,980.0,1389.0,-353.0,6.0,-50.0,-41.0,28.0,-353.0,0.977266,0.118825,0.17568,15178.0,1928.0,2696.0,-14.0,-6.0,1.0
2881.0,2767.0,2899.0,3147.0,3047.0,0.73291,0.260742,-0.586914,0.224426,0.0,-2.0,0.0,7645.0,957.0,1371.0,-361.0,-15.0,-63.0,-19.0,20.0,-365.0,0.977345,0.118763,0.17507,15348.0,1838.0,2724.0,2.0,-40.0,8.0
2879.0,2768.0,2901.0,3151.0,3045.0,0.732727,0.260803,-0.587097,0.224426,0.0,-2.0,0.0,7662.0,956.0,1364.0,-345.0,-16.0,-65.0,-13.0,21.0,-350.0,0.977426,0.118675,0.174555,15470.0,1942.0,2720.0,14.0,-43.0,9.0
2883.0,2769.0,2909.0,3154.0,3045.0,0.732483,0.260925,-0.587341,0.224487,0.0,-2.0,0.0,7703.0,990.0,1369.0,-305.0,18.0,-55.0,-34.0,42.0,-305.0,0.977584,0.118545,0.173874,15494.0,2106.0,2760.0,7.0,-23.0,14.0
2879.0,2767.0,2903.0,3151.0,3039.0,0.732422,0.260925,-0.587402,0.224487,-1.0,-1.0,0.0,7706.0,1003.0,1364.0,-302.0,32.0,-59.0,-39.0,55.0,-301.0,0.977601,0.118486,0.173713,15410.0,2062.0,2652.0,-13.0,-14.0,15.0
2878.0,2765.0,2901.0,3151.0,3045.0,0.732361,0.260681,-0.587646,0.224304,-2.0,-1.0,0.0,7711.0,953.0,1351.0,-298.0,-15.0,-69.0,-1.0,26.0,-305.0,0.977682,0.118202,0.173382,15438.0,1660.0,2766.0,-31.0,-10.0,11.0
2879.0,2768.0,2910.0,3153.0,3045.0,0.732361,0.260559,-0.587708,0.224365,-1.0,-1.0,0.0,7700.0,922.0,1352.0,-309.0,-44.0,-68.0,14.0,3.0,-319.0,0.977749,0.117924,0.173401,15330.0,1692.0,2700.0,-15.0,0.0,10.0
2882.0,2768.0,2905.0,3151.0,3047.0,0.7323,0.260437,-0.587769,0.224365,-1.0,-1.0,0.0,7668.0,910.0,1342.0,-341.0,-54.0,-77.0,20.0,0.0,-353.0,0.977712,0.117686,0.173303,15278.0,1882.0,2668.0,-1.0,-9.0,8.0
2879.0,2768.0,2899.0,3151.0,3039.0,0.732239,0.260437,-0.58783,0.224365,-1.0,-1.0,0.0,7670.0,910.0,1341.0,-339.0,-53.0,-77.0,20.0,1.0,-351.0,0.977729,0.117627,0.173142,15400.0,1802.0,2694.0,-3.0,-14.0,6.0
2875.0,2767.0,2901.0,3154.0,3038.0,0.732178,0.260498,-0.587891,0.224365,0.0,-1.0,-1.0,7665.0,917.0,1338.0,-344.0,-46.0,-78.0,15.0,7.0,-355.0,0.977774,0.117657,0.172949,15196.0,1896.0,2634.0,7.0,-4.0,-2.0
2879.0,2768.0,2907.0,3152.0,3047.0,0.732178,0.260559,-0.587952,0.224365,0.0,-1.0,0.0,7657.0,939.0,1339.0,-353.0,-25.0,-76.0,0.0,22.0,-361.0,0.977891,0.117719,0.172846,15310.0,2008.0,2700.0,4.0,-18.0,5.0
2881.0,2751.0,2906.0,3153.0,3051.0,0.732117,0.26062,-0.588013,0.224304,0.0,-1.0,-1.0,7704.0,971.0,1370.0,-306.0,5.0,-44.0,-34.0,25.0,-306.0,0.977904,0.117821,0.172625,15542.0,1954.0,2836.0,2.0,-1.0,-1.0
2879.0,2768.0,2903.0,3151.0,3039.0,0.732117,0.26062,-0.587952,0.224304,0.0,0.0,-1.0,7703.0,983.0,1380.0,-307.0,17.0,-34.0,-49.0,28.0,-304.0,0.977815,0.117849,0.172697,15348.0,2064.0,2822.0,4.0,12.0,-2.0
2877.0,2764.0,2903.0,3151.0,3039.0,0.732239,0.260559,-0.587891,0.224304,-1.0,0.0,0.0,7673.0,1000.0,1386.0,-337.0,34.0,-31.0,-68.0,38.0,-330.0,0.977842,0.11785,0.17298,15270.0,1992.0,2816.0,-19.0,1.0,7.0
2879.0,2768.0,2907.0,3151.0,3046.0,0.732239,0.260498,-0.587952,0.224182,-2.0,-1.0,0.0,7653.0,982.0,1380.0,-357.0,16.0,-36.0,-57.0,27.0,-353.0,0.97784,0.117877,0.172885,15204.0,1826.0,2722.0,-26.0,-12.0,9.0
2882.0,2769.0,2907.0,3155.0,3035.0,0.732117,0.260376,-0.588196,0.224182,0.0,-2.0,0.0,7659.0,905.0,1371.0,-352.0,-57.0,-41.0,-6.0,-24.0,-358.0,0.977999,0.117525,0.172483,15370.0,1622.0,2710.0,7.0,-29.0,5.0
2875.0,2767.0,2903.0,3151.0,3039.0,0.731995,0.260437,-0.588257,0.224243,1.0,-1.0,0.0,7683.0,885.0,1369.0,-328.0,-77.0,-41.0,11.0,-39.0,-336.0,0.978004,0.117452,0.172228,15534.0,1698.0,2722.0,30.0,-20.0,4.0
2879.0,2767.0,2899.0,3153.0,3039.0,0.731873,0.260742,-0.588196,0.224548,1.0,0.0,0.0,7713.0,936.0,1375.0,-299.0,-26.0,-34.0,-20.0,-4.0,-301.0,0.978067,0.117503,0.172099,15490.0,2134.0,2812.0,37.0,11.0,2.0
2881.0,2769.0,2906.0,3151.0,3045.0,0.731934,0.260864,-0.588013,0.224609,0.0,1.0,-1.0,7731.0,971.0,1386.0,-280.0,6.0,-26.0,-42.0,15.0,-277.0,0.977958,0.117724,0.172367,15558.0,2132.0,2836.0,18.0,30.0,-5.0
2881.0,2768.0,2906.0,3155.0,3046.0,0.7323,0.260803,-0.587585,0.224548,-2.0,2.0,-1.0,7707.0,1012.0,1368.0,-302.0,44.0,-52.0,-52.0,60.0,-299.0,0.977703,0.11809,0.17341,15212.0,2094.0,2576.0,-23.0,49.0,-5.0
2877.0,2765.0,2903.0,3147.0,3039.0,0.732422,0.260681,-0.587524,0.224426,-2.0,1.0,0.0,7683.0,1007.0,1358.0,-325.0,39.0,-64.0,-45.0,63.0,-324.0,0.977639,0.118145,0.173669,15242.0,1976.0,2686.0,-37.0,25.0,0.0
2879.0,2767.0,2901.0,3151.0,3039.0,0.732544,0.260437,-0.587524,0.224304,-1.0,-1.0,0.0,7663.0,974.0,1347.0,-345.0,7.0,-77.0,-19.0,47.0,-349.0,0.977609,0.117995,0.173921,15248.0,1906.0,2650.0,-17.0,-3.0,4.0
2881.0,2769.0,2907.0,3155.0,3039.0,0.732483,0.260376,-0.587646,0.224243,-1.0,-2.0,0.0,7643.0,986.0,1350.0,-365.0,20.0,-72.0,-35.0,53.0,-366.0,0.977657,0.11789,0.173692,15206.0,2062.0,2780.0,-17.0,-27.0,5.0
2879.0,2768.0,2903.0,3152.0,3047.0,0.732361,0.260254,-0.587952,0.22406,-1.0,-2.0,0.0,7694.0,954.0,1390.0,-316.0,-10.0,-28.0,-38.0,3.0,-315.0,0.977811,0.117727,0.173136,15582.0,1726.0,2870.0,-20.0,-30.0,15.0
2881.0,2769.0,2901.0,3151.0,3043.0,0.7323,0.260193,-0.588013,0.224121,0.0,-1.0,0.0,7709.0,933.0,1384.0,-301.0,-29.0,-33.0,-19.0,-7.0,-303.0,0.977833,0.117506,0.173034,15514.0,1770.0,2694.0,3.0,-9.0,13.0
2879.0,2768.0,2903.0,3151.0,3047.0,0.471497,0.056213,0.084656,-1.21228,-8626.0,-32132.0,22570.0,-4124.0,14574.0,-14038.0,-2353.0,15821.0,-27813.0,22751.0,-9819.0,16866.0,-0.216123,-0.152244,1.681606,15408.0,1966.0,2640.0,28.0,18.0,5.0
2883.0,2768.0,2905.0,3153.0,3039.0,0.7323,0.260315,-0.587891,0.224365,0.0,0.0,0.0,7713.0,958.0,1375.0,-297.0,-4.0,-44.0,-26.0,18.0,-298.0,0.977836,0.117453,0.173223,15352.0,2080.0,2792.0,10.0,20.0,2.0
2879.0,2769.0,2909.0,3153.0,3043.0,0.732544,0.260132,-0.587708,0.224243,-2.0,0.0,-1.0,7685.0,952.0,1380.0,-324.0,-10.0,-44.0,-28.0,13.0,-325.0,0.977709,0.117537,0.173837,15270.0,1796.0,2770.0,-40.0,22.0,-1.0
2875.0,2768.0,2903.0,3151.0,3039.0,0.732666,0.259949,-0.587708,0.224182,-2.0,0.0,-1.0,7655.0,923.0,1374.0,-354.0,-38.0,-52.0,-11.0,-3.0,-359.0,0.977738,0.117404,0.174084,15106.0,1672.0,2724.0,-41.0,14.0,-5.0
2878.0,2768.0,2902.0,3149.0,3039.0,0.732727,0.259766,-0.587769,0.223999,-1.0,-1.0,-1.0,7637.0,850.0,1388.0,-372.0,-111.0,-38.0,20.0,-68.0,-383.0,0.977722,0.117355,0.174114,15296.0,1544.0,2838.0,-8.0,-13.0,-18.0
2879.0,2770.0,2922.0,3153.0,3043.0,0.732666,0.259827,-0.587769,0.223938,0.0,-1.0,-2.0,7635.0,854.0,1400.0,-373.0,-108.0,-25.0,9.0,-74.0,-381.0,0.977646,0.117485,0.173966,15224.0,1782.0,2826.0,7.0,-14.0,-23.0
2883.0,2767.0,2903.0,3152.0,3043.0,0.732727,0.26001,-0.587708,0.223755,0.0,-1.0,-2.0,7656.0,863.0,1408.0,-352.0,-103.0,-16.0,3.0,-76.0,-359.0,0.977615,0.118028,0.17395,15378.0,1732.0,2760.0,8.0,0.0,-24.0
2878.0,2768.0,2903.0,3151.0,3045.0,0.732727,0.260132,-0.587646,0.223755,0.0,0.0,-2.0,7671.0,870.0,1399.0,-337.0,-98.0,-26.0,10.0,-65.0,-345.0,0.97758,0.118234,0.173958,15458.0,1758.0,2724.0,15.0,14.0,-28.0
2883.0,2768.0,2903.0,3152.0,3043.0,0.732971,0.260437,-0.587219,0.223694,1.0,1.0,-2.0,7676.0,905.0,1356.0,-330.0,-70.0,-74.0,30.0,-13.0,-343.0,0.977346,0.119071,0.174632,15262.0,2004.0,2546.0,27.0,42.0,-42.0
2879.0,2769.0,2907.0,3154.0,3039.0,0.733093,0.260681,-0.587036,0.223633,0.0,1.0,-2.0,7665.0,940.0,1334.0,-341.0,-40.0,-98.0,26.0,25.0,-355.0,0.977298,0.119646,0.174871,15260.0,2082.0,2582.0,12.0,29.0,-39.0
2881.0,2769.0,2907.0,3155.0,3047.0,0.466309,0.059509,0.079102,-1.21228,-17146.0,24651.0,22594.0,23762.0,-1.0,-17439.0,25548.0,1115.0,-31179.0,-28590.0,-22326.0,7518.0,-0.218055,-0.136287,1.677269,15364.0,2074.0,2580.0,0.0,-29.0,-21.0
2879.0,2766.0,2907.0,3151.0,3043.0,0.73291,0.261169,-0.587219,0.223145,0.0,-2.0,-1.0,7652.0,1014.0,1292.0,-354.0,24.0,-132.0,8.0,96.0,-366.0,0.977315,0.120758,0.173915,15368.0,2174.0,2644.0,6.0,-44.0,-18.0
2879.0,2768.0,2901.0,3153.0,3043.0,0.732666,0.261475,-0.587463,0.2229,0.0,-2.0,-1.0,7728.0,1056.0,1316.0,-278.0,62.0,-101.0,-22.0,107.0,-281.0,0.977394,0.121255,0.173002,15682.0,2242.0,2726.0,4.0,-27.0,-13.0
2881.0,2771.0,2903.0,3153.0,3061.0,0.732666,0.261536,-0.587463,0.222778,-1.0,-1.0,-1.0,7748.0,1073.0,1323.0,-258.0,77.0,-93.0,-33.0,113.0,-258.0,0.977358,0.121488,0.172916,15582.0,2234.0,2682.0,-4.0,0.0,-10.0
2879.0,2769.0,2903.0,3153.0,3047.0,0.732788,0.261475,-0.587402,0.222595,-2.0,0.0,0.0,7724.0,1075.0,1323.0,-281.0,77.0,-95.0,-37.0,114.0,-281.0,0.977289,0.121705,0.173117,15370.0,2022.0,2692.0,-31.0,11.0,6.0
2879.0,2767.0,2909.0,3151.0,3043.0,0.732849,0.261353,-0.587402,0.222534,-2.0,0.0,0.0,7710.0,1047.0,1319.0,-295.0,50.0,-100.0,-19.0,97.0,-299.0,0.977274,0.12163,0.173243,15318.0,1918.0,2602.0,-28.0,6.0,9.0
2879.0,2768.0,2901.0,3149.0,3039.0,0.732849,0.261169,-0.587524,0.222473,-1.0,-1.0,0.0,7690.0,1012.0,1339.0,-316.0,17.0,-79.0,-18.0,57.0,-320.0,0.97734,0.121379,0.173168,15280.0,1952.0,2718.0,-14.0,-8.0,7.0
2879.0,2768.0,2909.0,3153.0,3043.0,0.732788,0.261108,-0.587585,0.222412,-1.0,-1.0,0.0,7675.0,1002.0,1347.0,-331.0,8.0,-70.0,-22.0,44.0,-334.0,0.977299,0.121302,0.173011,15274.0,1946.0,2746.0,-17.0,-21.0,9.0
2879.0,2769.0,2910.0,3153.0,3043.0,0.732666,0.260986,-0.587891,0.222473,0.0,-2.0,0.0,7674.0,956.0,1374.0,-334.0,-34.0,-39.0,-19.0,-7.0,-337.0,0.97758,0.120852,0.172565,15378.0,1820.0,2830.0,5.0,-30.0,17.0
2879.0,2768.0,2899.0,3151.0,3043.0,0.732544,0.261047,-0.587952,0.222534,0.0,-2.0,0.0,7683.0,947.0,1387.0,-325.0,-42.0,-24.0,-23.0,-22.0,-326.0,0.977585,0.120779,0.172309,15434.0,1878.0,2876.0,19.0,-26.0,16.0
2879.0,2767.0,2901.0,3153.0,3039.0,0.732483,0.261108,-0.587952,0.222656,0.0,0.0,0.0,7709.0,982.0,1412.0,-299.0,-6.0,0.0,-58.0,-10.0,-293.0,0.977604,0.120693,0.172242,15484.0,2048.0,2858.0,3.0,1.0,4.0
2882.0,2769.0,2907.0,3152.0,3045.0,0.732544,0.261047,-0.587891,0.222656,-1.0,0.0,0.0,7702.0,993.0,1410.0,-306.0,4.0,-2.0,-65.0,-1.0,-298.0,0.977559,0.120662,0.172435,15284.0,2042.0,2772.0,-11.0,15.0,3.0
2877.0,2767.0,2903.0,3130.0,3039.0,0.732605,0.260986,-0.587891,0.222595,-2.0,0.0,0.0,7664.0,1000.0,1391.0,-344.0,11.0,-22.0,-62.0,15.0,-338.0,0.977572,0.120676,0.172529,15080.0,2010.0,2690.0,-23.0,8.0,1.0
2869.0,2767.0,2896.0,3151.0,3035.0,0.732483,0.260742,-0.588196,0.222229,-3.0,-3.0,0.0,7578.0,1011.0,1376.0,-430.0,23.0,-32.0,-80.0,30.0,-423.0,0.977576,0.12055,0.171956,14968.0,2052.0,2796.0,-51.0,-66.0,19.0
2881.0,2769.0,2907.0,3158.0,3047.0,0.7323,0.26062,-0.588684,0.221985,-3.0,-5.0,1.0,7565.0,1018.0,1389.0,-445.0,32.0,-12.0,-103.0,24.0,-433.0,0.977894,0.120346,0.171068,15096.0,2070.0,2858.0,-61.0,-111.0,25.0
2881.0,2769.0,2907.0,3151.0,3046.0,0.731628,0.260254,-0.589905,0.221252,-4.0,-7.0,0.0,7611.0,1034.0,1451.0,-403.0,52.0,70.0,-168.0,-11.0,-376.0,0.978346,0.119783,0.168513,15510.0,2084.0,3080.0,-81.0,-153.0,18.0
2879.0,2767.0,2903.0,3152.0,3039.0,0.731384,0.260071,-0.590454,0.220886,-4.0,-6.0,0.0,7677.0,1009.0,1495.0,-339.0,29.0,123.0,-179.0,-62.0,-307.0,0.97859,0.119577,0.167441,15790.0,1830.0,3248.0,-81.0,-137.0,9.0
2879.0,2769.0,2903.0,3150.0,3043.0,0.731079,0.259644,-0.591187,0.220398,-3.0,-3.0,0.0,7767.0,970.0,1513.0,-251.0,-5.0,152.0,-162.0,-104.0,-221.0,0.978858,0.119047,0.166136,15656.0,1878.0,3082.0,-50.0,-57.0,4.0
2879.0,2768.0,2903.0,3151.0,3043.0,0.731079,0.25946,-0.591309,0.220154,-3.0,-2.0,0.0,7768.0,956.0,1495.0,-250.0,-18.0,135.0,-140.0,-103.0,-224.0,0.978829,0.119015,0.165979,15542.0,1792.0,2862.0,-58.0,-38.0,3.0
2879.0,2770.0,2909.0,3155.0,3045.0,0.731079,0.258972,-0.591675,0.219849,-3.0,-2.0,0.0,7723.0,885.0,1419.0,-296.0,-85.0,61.0,-52.0,-108.0,-289.0,0.978992,0.1185,0.165664,15224.0,1498.0,2516.0,-48.0,-32.0,6.0
2881.0,2768.0,2903.0,3151.0,3039.0,0.730957,0.25885,-0.59198,0.219727,-2.0,-3.0,-1.0,7682.0,855.0,1372.0,-339.0,-113.0,19.0,-12.0,-104.0,-342.0,0.979176,0.118269,0.165134,15170.0,1560.0,2478.0,-27.0,-53.0,-1.0
2879.0,2769.0,2899.0,3150.0,3039.0,0.730408,0.259033,-0.592712,0.219421,-1.0,-5.0,-1.0,7638.0,861.0,1273.0,-386.0,-108.0,-64.0,38.0,-47.0,-401.0,0.979518,0.118292,0.163235,15224.0,1830.0,2254.0,-4.0,-103.0,-14.0
2881.0,2770.0,2907.0,3151.0,3039.0,0.730042,0.259216,-0.59314,0.219177,-1.0,-5.0,-1.0,7654.0,873.0,1239.0,-371.0,-97.0,-88.0,52.0,-23.0,-389.0,0.979662,0.118472,0.161992,15472.0,1820.0,2306.0,-4.0,-113.0,-20.0
2881.0,2769.0,2903.0,3151.0,3039.0,0.729553,0.259521,-0.59375,0.218689,-1.0,-3.0,-2.0,7727.0,919.0,1211.0,-299.0,-55.0,-101.0,50.0,18.0,-315.0,0.979853,0.118976,0.160182,15562.0,2038.0,2284.0,-1.0,-47.0,-28.0
2879.0,2767.0,2903.0,3150.0,3043.0,0.729492,0.259644,-0.593872,0.218506,-1.0,-2.0,-2.0,7732.0,965.0,1206.0,-295.0,-12.0,-103.0,26.0,53.0,-306.0,0.979917,0.119287,0.159805,15512.0,2236.0,2432.0,-20.0,-24.0,-27.0
2879.0,2768.0,2899.0,3152.0,3039.0,0.729553,0.259583,-0.594055,0.217834,-3.0,-1.0,-2.0,7716.0,1013.0,1171.0,-311.0,30.0,-134.0,20.0,105.0,-322.0,0.979882,0.119947,0.159415,15362.0,2090.0,2224.0,-63.0,-12.0,-24.0
2881.0,2768.0,2899.0,3151.0,3027.0,0.729553,0.25946,-0.594177,0.217529,-3.0,-2.0,-1.0,7702.0,997.0,1150.0,-324.0,13.0,-154.0,43.0,105.0,-340.0,0.979848,0.120078,0.159201,15324.0,1872.0,2220.0,-58.0,-26.0,-20.0
2883.0,2768.0,2905.0,3151.0,3039.0,0.729309,0.259521,-0.594604,0.217102,-1.0,-2.0,-1.0,7714.0,977.0,1139.0,-314.0,-9.0,-156.0,61.0,89.0,-333.0,0.979986,0.120363,0.158119,15508.0,2026.0,2268.0,-1.0,-45.0,-12.0
2879.0,2768.0,2907.0,3153.0,3043.0,0.729126,0.259644,-0.594788,0.21698,0.0,-3.0,-1.0,7722.0,1013.0,1149.0,-306.0,25.0,-141.0,30.0,106.0,-319.0,0.980025,0.120512,0.157518,15468.0,2270.0,2380.0,8.0,-46.0,-10.0
2879.0,2768.0,2906.0,3151.0,3043.0,0.729004,0.259827,-0.595093,0.216675,-2.0,-2.0,-1.0,7735.0,1071.0,1175.0,-295.0,80.0,-109.0,-26.0,129.0,-296.0,0.980246,0.120946,0.156749,15520.0,2218.0,2392.0,-28.0,-29.0,-2.0
2885.0,2769.0,2903.0,3152.0,3047.0,0.728943,0.259766,-0.595154,0.216492,-2.0,-1.0,0.0,7744.0,1057.0,1181.0,-285.0,65.0,-101.0,-20.0,112.0,-287.0,0.98014,0.121017,0.15654,15542.0,1966.0,2354.0,-33.0,-13.0,2.0
2883.0,2771.0,2903.0,3152.0,3047.0,0.729004,0.259583,-0.595215,0.216309,-1.0,0.0,-1.0,7726.0,1005.0,1154.0,-303.0,13.0,-128.0,28.0,89.0,-315.0,0.980128,0.120973,0.156572,15292.0,1908.0,2208.0,-16.0,14.0,-6.0
2879.0,2768.0,2874.0,3151.0,3039.0,0.729065,0.259521,-0.595215,0.216248,-1.0,0.0,-1.0,7704.0,982.0,1145.0,-325.0,-9.0,-138.0,45.0,78.0,-341.0,0.980142,0.120989,0.156667,15272.0,1824.0,2278.0,-20.0,4.0,-1.0
2882.0,2769.0,2903.0,3151.0,3047.0,0.729004,0.259399,-0.595398,0.216187,-1.0,-1.0,0.0,7693.0,938.0,1143.0,-337.0,-51.0,-138.0,69.0,46.0,-358.0,0.980252,0.120772,0.156397,15420.0,1704.0,2362.0,-10.0,-11.0,5.0
2879.0,2769.0,2909.0,3151.0,3039.0,0.728943,0.259399,-0.595459,0.216248,0.0,-1.0,0.0,7700.0,919.0,1156.0,-330.0,-69.0,-124.0,71.0,23.0,-351.0,0.9803,0.120642,0.156261,15454.0,1766.0,2392.0,6.0,-5.0,5.0
2879.0,2768.0,2903.0,3152.0,3045.0,0.728882,0.259399,-0.595459,0.21637,0.0,0.0,0.0,7716.0,934.0,1191.0,-314.0,-52.0,-88.0,37.0,13.0,-327.0,0.980291,0.120465,0.156225,15476.0,1990.0,2514.0,12.0,11.0,9.0
2879.0,2768.0,2903.0,3151.0,3039.0,0.728943,0.25946,-0.595398,0.216431,0.0,0.0,0.0,7714.0,945.0,1207.0,-316.0,-42.0,-74.0,19.0,12.0,-326.0,0.980333,0.120539,0.156382,15412.0,1918.0,2510.0,7.0,14.0,4.0
2885.0,2767.0,2901.0,3152.0,3039.0,0.728943,0.25946,-0.595276,0.216553,0.0,0.0,0.0,7714.0,926.0,1225.0,-315.0,-60.0,-57.0,18.0,-12.0,-324.0,0.980218,0.120446,0.15658,15366.0,1780.0,2488.0,17.0,13.0,0.0
2881.0,2802.0,2907.0,3155.0,3043.0,0.728943,0.259521,-0.595215,0.216675,1.0,0.0,-1.0,7708.0,934.0,1233.0,-321.0,-52.0,-50.0,6.0,-10.0,-328.0,0.980219,0.120417,0.156674,15388.0,1952.0,2540.0,29.0,6.0,-2.0
2880.0,2768.0,2903.0,3151.0,3043.0,0.728882,0.259766,-0.595154,0.216736,0.0,-1.0,0.0,7686.0,979.0,1242.0,-343.0,-9.0,-40.0,-31.0,16.0,-343.0,0.980195,0.120695,0.156557,15314.0,2094.0,2536.0,12.0,-16.0,0.0
2879.0,2768.0,2907.0,3151.0,3043.0,0.728821,0.259827,-0.595215,0.216675,0.0,-1.0,0.0,7700.0,987.0,1260.0,-329.0,-2.0,-20.0,-48.0,9.0,-325.0,0.980206,0.120798,0.156337,15514.0,1970.0,2612.0,3.0,-18.0,0.0
2879.0,2770.0,2903.0,3150.0,3039.0,0.728821,0.259888,-0.595154,0.216736,0.0,0.0,0.0,7733.0,973.0,1256.0,-296.0,-16.0,-25.0,-29.0,1.0,-295.0,0.980175,0.120841,0.156405,15482.0,1912.0,2470.0,13.0,13.0,2.0
2879.0,2769.0,2907.0,3153.0,3039.0,0.728882,0.259888,-0.595093,0.216858,0.0,0.0,0.0,7726.0,975.0,1248.0,-303.0,-14.0,-35.0,-24.0,9.0,-304.0,0.980222,0.120754,0.156619,15414.0,2002.0,2432.0,15.0,18.0,10.0
2883.0,2770.0,2900.0,3151.0,3043.0,0.728882,0.259949,-0.594971,0.217102,0.0,0.0,0.0,7702.0,978.0,1241.0,-327.0,-9.0,-43.0,-26.0,18.0,-328.0,0.980197,0.120605,0.156839,15260.0,1972.0,2444.0,18.0,10.0,13.0
2879.0,2767.0,2903.0,3152.0,3047.0,0.728882,0.259949,-0.594971,0.217163,0.0,-1.0,0.0,7696.0,982.0,1240.0,-334.0,-5.0,-45.0,-28.0,22.0,-335.0,0.980229,0.120532,0.156865,15368.0,1992.0,2452.0,16.0,-6.0,12.0
2881.0,2768.0,2907.0,3150.0,3039.0,0.728699,0.260071,-0.595093,0.217224,0.0,-2.0,0.0,7683.0,985.0,1256.0,-347.0,-2.0,-25.0,-48.0,11.0,-344.0,0.980274,0.12049,0.156416,15342.0,1946.0,2574.0,3.0,-33.0,7.0
2884.0,2768.0,2899.0,3151.0,3047.0,0.728577,0.260071,-0.595276,0.217163,-1.0,-2.0,0.0,7692.0,968.0,1273.0,-339.0,-18.0,-4.0,-52.0,-13.0,-335.0,0.980364,0.120419,0.155994,15474.0,1810.0,2678.0,-1.0,-42.0,3.0
2882.0,2769.0,2899.0,3152.0,3043.0,0.728455,0.260132,-0.595398,0.217224,0.0,-1.0,0.0,7724.0,945.0,1300.0,-307.0,-40.0,24.0,-53.0,-48.0,-302.0,0.980455,0.120319,0.155665,15472.0,1916.0,2604.0,20.0,-11.0,4.0
2882.0,2768.0,2903.0,3152.0,3043.0,0.728394,0.260193,-0.595337,0.217285,0.0,-1.0,-1.0,7705.0,963.0,1294.0,-326.0,-22.0,18.0,-63.0,-30.0,-319.0,0.980351,0.12033,0.155644,15220.0,2070.0,2496.0,11.0,-5.0,-1.0
2881.0,2769.0,2901.0,3147.0,3035.0,0.728333,0.260193,-0.595459,0.217163,-1.0,-1.0,-1.0,7708.0,945.0,1278.0,-323.0,-41.0,5.0,-41.0,-36.0,-320.0,0.980393,0.12039,0.155356,15524.0,1760.0,2484.0,-10.0,-20.0,-3.0
2884.0,2771.0,2903.0,3147.0,3045.0,0.728333,0.260254,-0.59552,0.217102,0.0,-1.0,-1.0,7716.0,926.0,1253.0,-316.0,-61.0,-18.0,-10.0,-37.0,-319.0,0.980476,0.120526,0.155225,15432.0,1786.0,2294.0,5.0,-9.0,-12.0
2879.0,2771.0,2901.0,3155.0,3043.0,0.728149,0.260498,-0.595703,0.217041,0.0,-2.0,-1.0,7685.0,946.0,1191.0,-348.0,-43.0,-75.0,15.0,12.0,-358.0,0.980599,0.120779,0.154587,15394.0,1970.0,2330.0,13.0,-34.0,-9.0
2879.0,2768.0,2907.0,3159.0,3039.0,0.727966,0.26062,-0.595825,0.21698,0.0,-2.0,-1.0,7694.0,954.0,1178.0,-338.0,-36.0,-84.0,19.0,24.0,-348.0,0.98058,0.120881,0.154085,15436.0,1970.0,2254.0,15.0,-34.0,-7.0
2883.0,2771.0,2899.0,3152.0,3039.0,0.727722,0.260925,-0.596008,0.21698,1.0,-1.0,-1.0,7710.0,970.0,1171.0,-323.0,-22.0,-85.0,14.0,35.0,-332.0,0.980688,0.121118,0.153352,15474.0,2030.0,2330.0,23.0,-22.0,-7.0
2883.0,2768.0,2907.0,3151.0,3045.0,0.727661,0.261108,-0.596008,0.216919,0.0,-1.0,-1.0,7699.0,1010.0,1169.0,-334.0,15.0,-85.0,-10.0,64.0,-338.0,0.980663,0.121426,0.153141,15284.0,2266.0,2312.0,16.0,-17.0,-9.0
2879.0,2768.0,2909.0,3155.0,3027.0,0.727539,0.26123,-0.596191,0.216675,-1.0,-2.0,0.0,7688.0,1020.0,1166.0,-345.0,22.0,-83.0,-18.0,68.0,-348.0,0.980709,0.121751,0.152576,15340.0,1944.0,2290.0,-17.0,-29.0,2.0
2879.0,2768.0,2901.0,3159.0,3047.0,0.727417,0.261169,-0.596375,0.216614,-1.0,-2.0,0.0,7686.0,1004.0,1149.0,-348.0,7.0,-97.0,1.0,66.0,-355.0,0.980772,0.121592,0.152185,15392.0,1900.0,2236.0,-14.0,-41.0,5.0
2879.0,2771.0,2899.0,3153.0,3027.0,0.727112,0.261353,-0.596741,0.216553,1.0,-2.0,-1.0,7744.0,972.0,1161.0,-292.0,-24.0,-77.0,16.0,29.0,-301.0,0.980988,0.121613,0.151182,15690.0,1924.0,2358.0,25.0,-27.0,-5.0
2881.0,2769.0,2905.0,3159.0,3047.0,0.727051,0.261536,-0.596741,0.216614,1.0,-1.0,-1.0,7749.0,997.0,1153.0,-287.0,0.0,-84.0,7.0,52.0,-294.0,0.981026,0.121775,0.151024,15462.0,2184.0,2210.0,29.0,-7.0,-10.0
2883.0,2771.0,2898.0,3153.0,3050.0,0.726929,0.261719,-0.596802,0.216553,0.0,-1.0,0.0,7713.0,993.0,1128.0,-323.0,-6.0,-106.0,21.0,62.0,-333.0,0.981017,0.122024,0.150651,15392.0,1880.0,2244.0,1.0,-13.0,7.0
2882.0,2767.0,2899.0,3153.0,3043.0,0.726807,0.261719,-0.596863,0.216614,0.0,-1.0,0.0,7707.0,971.0,1123.0,-329.0,-27.0,-109.0,35.0,48.0,-342.0,0.980991,0.12186,0.150428,15356.0,1858.0,2230.0,18.0,-7.0,11.0
2879.0,2769.0,2901.0,3155.0,3037.0,0.726624,0.261963,-0.596924,0.216858,1.0,-1.0,0.0,7680.0,992.0,1121.0,-357.0,-5.0,-108.0,15.0,64.0,-367.0,0.981095,0.121801,0.150066,15184.0,2098.0,2212.0,31.0,-10.0,11.0
2878.0,2767.0,2903.0,3151.0,3047.0,0.726501,0.261963,-0.597046,0.216858,0.0,-2.0,0.0,7714.0,1007.0,1191.0,-323.0,10.0,-35.0,-42.0,29.0,-320.0,0.981127,0.121685,0.149743,15642.0,2026.0,2726.0,5.0,-32.0,15.0
2883.0,2768.0,2907.0,3143.0,3043.0,0.72644,0.262024,-0.597168,0.216919,-1.0,-2.0,0.0,7712.0,997.0,1218.0,-326.0,0.0,-6.0,-58.0,3.0,-320.0,0.98129,0.121615,0.149503,15512.0,1906.0,2674.0,0.0,-31.0,8.0
2881.0,2769.0,2911.0,3153.0,3039.0,0.726379,0.261963,-0.597229,0.216919,0.0,-1.0,0.0,7761.0,968.0,1257.0,-277.0,-27.0,33.0,-61.0,-42.0,-270.0,0.981279,0.121468,0.149374,15848.0,1758.0,2726.0,9.0,-16.0,7.0
2882.0,2768.0,2903.0,3153.0,3047.0,0.726562,0.262085,-0.596924,0.217041,0.0,1.0,-1.0,7762.0,983.0,1252.0,-275.0,-14.0,23.0,-61.0,-26.0,-268.0,0.981171,0.121728,0.149993,15292.0,2054.0,2420.0,4.0,33.0,-17.0
2879.0,2767.0,2902.0,3155.0,3039.0,0.726685,0.262024,-0.596802,0.21698,-1.0,0.0,-1.0,7742.0,971.0,1242.0,-295.0,-27.0,10.0,-47.0,-27.0,-291.0,0.981081,0.121829,0.150322,15402.0,1816.0,2444.0,-21.0,20.0,-20.0
2881.0,2765.0,2903.0,3149.0,3039.0,0.726868,0.262085,-0.596619,0.216858,0.0,0.0,-2.0,7702.0,934.0,1204.0,-334.0,-67.0,-30.0,0.0,-33.0,-340.0,0.980996,0.122239,0.150722,15180.0,1914.0,2246.0,11.0,20.0,-28.0
2885.0,2743.0,2906.0,3153.0,3043.0,0.726868,0.262207,-0.596558,0.216736,0.0,-1.0,-2.0,7670.0,966.0,1197.0,-365.0,-38.0,-37.0,-19.0,-6.0,-368.0,0.980896,0.122589,0.150678,15180.0,2164.0,2392.0,5.0,-2.0,-31.0
2881.0,2767.0,2899.0,3155.0,3039.0,0.726929,0.262329,-0.59668,0.216248,-2.0,-2.0,-2.0,7676.0,1001.0,1206.0,-359.0,-9.0,-25.0,-45.0,8.0,-357.0,0.980943,0.123328,0.150345,15456.0,1922.0,2442.0,-33.0,-27.0,-24.0
2877.0,2736.0,2899.0,3151.0,3045.0,0.726868,0.262329,-0.596741,0.216125,-1.0,-2.0,-1.0,7674.0,978.0,1189.0,-361.0,-33.0,-40.0,-19.0,0.0,-364.0,0.980895,0.123415,0.150131,15298.0,1820.0,2190.0,-17.0,-24.0,-13.0
2882.0,2767.0,2899.0,3151.0,3047.0,0.726501,0.262573,-0.597107,0.216064,1.0,-3.0,0.0,7686.0,998.0,1174.0,-350.0,-13.0,-46.0,-24.0,19.0,-351.0,0.981064,0.123493,0.149007,15514.0,2206.0,2398.0,34.0,-53.0,4.0
2879.0,2771.0,2903.0,3153.0,3039.0,0.726318,0.262817,-0.597229,0.216064,1.0,-3.0,0.0,7714.0,1037.0,1179.0,-323.0,23.0,-37.0,-48.0,41.0,-319.0,0.981128,0.123698,0.148467,15620.0,2316.0,2394.0,36.0,-52.0,1.0
2879.0,2767.0,2903.0,3159.0,3039.0,0.726074,0.263123,-0.597351,0.216064,0.0,-1.0,0.0,7782.0,1092.0,1190.0,-255.0,76.0,-20.0,-81.0,71.0,-243.0,0.981145,0.12396,0.147806,15728.0,2330.0,2376.0,12.0,-7.0,3.0
2881.0,2767.0,2899.0,3155.0,3047.0,0.726135,0.263123,-0.59729,0.216064,-1.0,0.0,0.0,7785.0,1096.0,1183.0,-252.0,80.0,-29.0,-77.0,80.0,-241.0,0.98113,0.124019,0.147967,15538.0,2190.0,2288.0,-5.0,14.0,4.0
2881.0,2767.0,2907.0,3153.0,3045.0,0.726318,0.263,-0.597168,0.216003,-1.0,0.0,0.0,7741.0,1044.0,1156.0,-296.0,27.0,-59.0,-29.0,58.0,-295.0,0.981086,0.124064,0.148417,15256.0,1936.0,2176.0,-17.0,20.0,2.0
2879.0,2768.0,2903.0,3151.0,3039.0,0.726318,0.262878,-0.597168,0.215942,-1.0,0.0,-1.0,7725.0,1011.0,1148.0,-311.0,-4.0,-68.0,-6.0,40.0,-315.0,0.981001,0.123959,0.148455,15354.0,1806.0,2250.0,-16.0,8.0,-1.0
2877.0,2769.0,2903.0,3151.0,3039.0,0.726379,0.262817,-0.597168,0.215881,-1.0,-1.0,-1.0,7692.0,964.0,1135.0,-344.0,-51.0,-81.0,26.0,12.0,-355.0,0.981016,0.123975,0.148549,15362.0,1778.0,2254.0,-11.0,-4.0,-14.0
2879.0,2768.0,2903.0,3155.0,3045.0,0.726379,0.262878,-0.597229,0.21582,-1.0,0.0,-2.0,7719.0,939.0,1147.0,-318.0,-77.0,-68.0,38.0,-15.0,-331.0,0.981099,0.124111,0.148418,15650.0,1738.0,2368.0,-7.0,1.0,-24.0
2879.0,2768.0,2903.0,3155.0,3042.0,0.726624,0.263,-0.596863,0.215759,0.0,1.0,-2.0,7697.0,935.0,1147.0,-338.0,-86.0,-74.0,44.0,-18.0,-353.0,0.980879,0.124647,0.149119,14982.0,1988.0,2126.0,12.0,44.0,-33.0
2879.0,2767.0,2903.0,3151.0,3046.0,0.726685,0.263062,-0.596802,0.215637,-1.0,-1.0,-1.0,7640.0,967.0,1133.0,-394.0,-56.0,-89.0,25.0,14.0,-406.0,0.980825,0.12494,0.149196,15084.0,2102.0,2304.0,-3.0,-1.0,-22.0
2879.0,2768.0,2902.0,3151.0,3047.0,0.726685,0.263245,-0.596802,0.215515,0.0,0.0,-1.0,7694.0,994.0,1177.0,-341.0,-32.0,-43.0,-13.0,3.0,-344.0,0.98084,0.125352,0.149047,15456.0,2210.0,2410.0,18.0,2.0,-17.0
2885.0,2768.0,2914.0,3155.0,3038.0,0.726685,0.263428,-0.596741,0.215454,0.0,-1.0,-1.0,7678.0,1045.0,1191.0,-356.0,15.0,-29.0,-56.0,30.0,-351.0,0.980798,0.125717,0.148997,15220.0,2418.0,2484.0,12.0,-5.0,-16.0
2878.0,2769.0,2903.0,3151.0,3039.0,0.726624,0.26355,-0.596863,0.21521,-1.0,-2.0,0.0,7728.0,1070.0,1224.0,-306.0,36.0,6.0,-86.0,24.0,-294.0,0.980826,0.126101,0.148593,15728.0,2052.0,2530.0,-7.0,-31.0,0.0
2879.0,2768.0,2903.0,3154.0,3043.0,0.726562,0.263611,-0.596863,0.21521,1.0,-1.0,-1.0,7777.0,1070.0,1239.0,-257.0,36.0,22.0,-89.0,14.0,-244.0,0.98078,0.126158,0.148473,15834.0,2198.0,2582.0,23.0,-4.0,-5.0
2879.0,2768.0,2914.0,3153.0,3039.0,0.726868,0.263916,-0.596375,0.215332,0.0,2.0,-1.0,7834.0,1123.0,1239.0,-199.0,84.0,15.0,-103.0,55.0,-182.0,0.98063,0.126827,0.14939,15784.0,2394.0,2442.0,15.0,66.0,-19.0
2875.0,2765.0,2903.0,3155.0,3045.0,0.727173,0.263855,-0.595947,0.215271,-1.0,4.0,-1.0,7834.0,1130.0,1219.0,-196.0,88.0,-12.0,-84.0,75.0,-182.0,0.980314,0.127156,0.150349,15600.0,2248.0,2264.0,-13.0,101.0,-21.0
2879.0,2768.0,2901.0,3149.0,3039.0,0.727966,0.263489,-0.595215,0.215149,-3.0,4.0,-1.0,7698.0,1071.0,1123.0,-329.0,26.0,-126.0,13.0,100.0,-338.0,0.979971,0.127502,0.152517,14752.0,1910.0,1868.0,-47.0,97.0,-11.0
2879.0,2769.0,2911.0,3151.0,3046.0,0.728149,0.263306,-0.595154,0.215088,-3.0,1.0,0.0,7596.0,1034.0,1090.0,-432.0,-9.0,-162.0,41.0,96.0,-449.0,0.97999,0.127431,0.152926,14706.0,1840.0,2062.0,-46.0,25.0,6.0
2909.0,2771.0,2907.0,3152.0,3071.0,0.727905,0.263123,-0.595581,0.215027,0.0,-3.0,0.0,7617.0,938.0,1137.0,-412.0,-101.0,-109.0,63.0,-7.0,-433.0,0.98021,0.126925,0.152132,15464.0,1698.0,2378.0,12.0,-50.0,7.0
2883.0,2769.0,2903.0,3155.0,3039.0,0.727722,0.263245,-0.595703,0.215088,1.0,-2.0,-1.0,7672.0,951.0,1183.0,-358.0,-88.0,-59.0,28.0,-29.0,-371.0,0.980254,0.126881,0.151682,15734.0,2046.0,2696.0,41.0,-41.0,-7.0
2878.0,2767.0,2902.0,3151.0,3039.0,0.727783,0.263611,-0.595398,0.215088,0.0,1.0,-1.0,7732.0,1059.0,1234.0,-296.0,13.0,-10.0,-59.0,16.0,-289.0,0.98004,0.127577,0.151942,15464.0,2410.0,2580.0,2.0,30.0,-21.0
2879.0,2767.0,2903.0,3151.0,3043.0,0.727966,0.26355,-0.595276,0.214966,-2.0,1.0,-1.0,7728.0,1072.0,1240.0,-300.0,25.0,-7.0,-70.0,23.0,-291.0,0.97999,0.127783,0.152333,15442.0,2168.0,2498.0,-33.0,32.0,-4.0
2881.0,2768.0,2909.0,3155.0,3039.0,0.728271,0.263245,-0.595032,0.215027,0.0,2.0,0.0,7729.0,993.0,1223.0,-298.0,-51.0,-32.0,-3.0,-18.0,-303.0,0.979899,0.127531,0.153255,15324.0,1794.0,2334.0,5.0,50.0,1.0
2879.0,2768.0,2901.0,3151.0,3039.0,0.728333,0.263306,-0.594849,0.215149,1.0,1.0,-1.0,7695.0,994.0,1205.0,-331.0,-51.0,-53.0,5.0,-5.0,-338.0,0.979795,0.127586,0.153583,15218.0,2022.0,2384.0,26.0,34.0,-4.0
2880.0,2768.0,2903.0,3151.0,3045.0,0.728455,0.263428,-0.594604,0.215332,0.0,0.0,-1.0,7684.0,1020.0,1215.0,-341.0,-26.0,-47.0,-16.0,9.0,-344.0,0.979734,0.127715,0.154065,15262.0,2098.0,2412.0,16.0,22.0,-1.0
2879.0,2765.0,2907.0,3149.0,3043.0,0.728516,0.263489,-0.594482,0.215393,0.0,0.0,0.0,7669.0,1020.0,1219.0,-356.0,-27.0,-44.0,-21.0,7.0,-359.0,0.979687,0.127817,0.154294,15262.0,2036.0,2474.0,11.0,14.0,1.0
2879.0,2767.0,2907.0,3149.0,3039.0,0.728577,0.263489,-0.594421,0.215332,-1.0,-1.0,-1.0,7651.0,1038.0,1237.0,-374.0,-10.0,-28.0,-47.0,10.0,-371.0,0.979638,0.127948,0.154429,15292.0,2158.0,2504.0,-9.0,-4.0,-5.0
2879.0,2767.0,2903.0,3151.0,3039.0,0.728577,0.263489,-0.594421,0.21521,-1.0,-1.0,-1.0,7669.0,1034.0,1259.0,-355.0,-15.0,-5.0,-58.0,-8.0,-350.0,0.979574,0.128093,0.154376,15496.0,2002.0,2688.0,-21.0,-10.0,-8.0
2879.0,2768.0,2899.0,3152.0,3043.0,0.728821,0.263306,-0.594299,0.215088,-1.0,1.0,-1.0,7719.0,1019.0,1285.0,-305.0,-30.0,15.0,-53.0,-32.0,-300.0,0.979543,0.128152,0.154921,15534.0,2008.0,2598.0,-13.0,23.0,-12.0
2877.0,2768.0,2911.0,3155.0,3043.0,0.728943,0.263306,-0.594177,0.215088,0.0,1.0,-1.0,7732.0,1011.0,1285.0,-292.0,-39.0,13.0,-44.0,-38.0,-289.0,0.97951,0.128269,0.155244,15488.0,2000.0,2524.0,1.0,32.0,-3.0
2882.0,2767.0,2903.0,3153.0,3039.0,0.729065,0.263367,-0.593933,0.215271,0.0,0.0,0.0,7701.0,1050.0,1255.0,-322.0,-1.0,-20.0,-49.0,11.0,-318.0,0.979422,0.12831,0.155759,15418.0,2290.0,2528.0,15.0,9.0,4.0
2879.0,2768.0,2899.0,3151.0,3045.0,0.729065,0.263428,-0.593872,0.215271,0.0,0.0,0.0,7713.0,1076.0,1249.0,-309.0,23.0,-27.0,-56.0,34.0,-303.0,0.979359,0.128425,0.155799,15482.0,2310.0,2430.0,5.0,8.0,2.0
2885.0,2767.0,2898.0,3151.0,3043.0,0.729126,0.263428,-0.593872,0.21521,-1.0,0.0,0.0,7691.0,1095.0,1227.0,-332.0,42.0,-49.0,-56.0,63.0,-327.0,0.9794,0.12853,0.155862,15206.0,2312.0,2300.0,-10.0,3.0,1.0
2881.0,2768.0,2902.0,3151.0,3039.0,0.729004,0.263367,-0.594055,0.215088,-1.0,-2.0,0.0,7682.0,1078.0,1224.0,-341.0,25.0,-49.0,-47.0,50.0,-338.0,0.979431,0.128443,0.155446,15382.0,2072.0,2446.0,-14.0,-27.0,15.0
2879.0,2768.0,2900.0,3151.0,3039.0,0.728882,0.263306,-0.594177,0.215088,0.0,-2.0,0.0,7681.0,1071.0,1222.0,-342.0,20.0,-49.0,-44.0,46.0,-340.0,0.979438,0.128237,0.155155,15390.0,2120.0,2440.0,1.0,-28.0,20.0
2879.0,2767.0,2902.0,3151.0,3039.0,0.728699,0.263306,-0.594421,0.215149,-1.0,-1.0,0.0,7720.0,1072.0,1242.0,-304.0,23.0,-24.0,-57.0,32.0,-298.0,0.979608,0.127963,0.154624,15594.0,2122.0,2544.0,-3.0,-17.0,14.0
2879.0,2768.0,2903.0,3151.0,3047.0,0.72876,0.263245,-0.594421,0.215149,-1.0,0.0,0.0,7749.0,1057.0,1249.0,-276.0,9.0,-18.0,-47.0,18.0,-272.0,0.979654,0.127906,0.154745,15670.0,2014.0,2522.0,-9.0,4.0,9.0
2882.0,2767.0,2902.0,3155.0,3039.0,0.728821,0.263184,-0.59436,0.215149,-1.0,1.0,0.0,7751.0,1041.0,1235.0,-273.0,-6.0,-34.0,-25.0,16.0,-273.0,0.979612,0.127875,0.154939,15450.0,1976.0,2312.0,-8.0,28.0,4.0
2879.0,2769.0,2906.0,3151.0,3047.0,0.728943,0.263,-0.594238,0.215271,-1.0,0.0,0.0,7695.0,996.0,1181.0,-329.0,-49.0,-92.0,33.0,20.0,-342.0,0.979564,0.12758,0.155411,15258.0,1870.0,2258.0,-4.0,15.0,6.0
2879.0,2766.0,2907.0,3153.0,3047.0,0.728943,0.263,-0.594238,0.215271,0.0,0.0,0.0,7694.0,984.0,1182.0,-330.0,-61.0,-91.0,40.0,10.0,-345.0,0.979564,0.12758,0.155411,15402.0,1884.0,2372.0,4.0,3.0,3.0
2879.0,2768.0,2903.0,3155.0,3039.0,0.728882,0.263062,-0.594238,0.215332,0.0,-1.0,-1.0,7663.0,1002.0,1187.0,-361.0,-43.0,-85.0,18.0,20.0,-372.0,0.97955,0.127564,0.155316,15298.0,2108.0,2438.0,2.0,-12.0,-4.0
2879.0,2768.0,2905.0,3153.0,3039.0,0.728821,0.263123,-0.594299,0.215271,-1.0,-1.0,-1.0,7681.0,1016.0,1210.0,-343.0,-29.0,-60.0,-5.0,15.0,-348.0,0.979561,0.127668,0.155096,15488.0,2092.0,2578.0,-6.0,-13.0,-4.0
2879.0,2741.0,2903.0,3155.0,3037.0,0.729004,0.263123,-0.594116,0.21521,-1.0,1.0,-1.0,7731.0,1034.0,1238.0,-292.0,-13.0,-36.0,-23.0,12.0,-293.0,0.979479,0.127915,0.155554,15494.0,2180.0,2482.0,0.0,34.0,-8.0
2881.0,2771.0,2903.0,3151.0,3047.0,0.729126,0.263123,-0.593994,0.21521,-1.0,1.0,-1.0,7716.0,1053.0,1232.0,-307.0,4.0,-44.0,-31.0,30.0,-307.0,0.979446,0.128032,0.155877,15340.0,2192.0,2428.0,-6.0,34.0,-7.0
2879.0,2768.0,2903.0,3151.0,3043.0,0.729309,0.263,-0.593811,0.215149,-1.0,0.0,0.0,7714.0,1041.0,1234.0,-308.0,-8.0,-47.0,-21.0,23.0,-310.0,0.979312,0.128102,0.1564,15424.0,2002.0,2524.0,-8.0,16.0,0.0
2883.0,2772.0,2902.0,3149.0,3038.0,0.72937,0.263,-0.593811,0.215149,0.0,0.0,-1.0,7713.0,1042.0,1230.0,-310.0,-7.0,-51.0,-19.0,26.0,-312.0,0.979385,0.128134,0.156489,15432.0,2100.0,2458.0,1.0,10.0,-4.0
2881.0,2767.0,2911.0,3153.0,3047.0,0.72937,0.263,-0.59375,0.215149,0.0,0.0,-1.0,7713.0,1049.0,1225.0,-309.0,0.0,-57.0,-19.0,35.0,-311.0,0.979296,0.12816,0.156561,15410.0,2176.0,2444.0,4.0,11.0,-3.0
2893.0,2768.0,2897.0,3151.0,3043.0,0.72937,0.263,-0.59375,0.215088,-1.0,-1.0,0.0,7693.0,1060.0,1231.0,-329.0,9.0,-51.0,-33.0,39.0,-329.0,0.979263,0.128233,0.156535,15398.0,2050.0,2552.0,-10.0,-4.0,7.0
2879.0,2765.0,2906.0,3147.0,3038.0,0.72937,0.262939,-0.59375,0.215088,-1.0,-1.0,0.0,7697.0,1041.0,1236.0,-324.0,-8.0,-46.0,-25.0,22.0,-325.0,0.979237,0.128143,0.156567,15424.0,1950.0,2500.0,-4.0,-2.0,9.0
2896.0,2767.0,2895.0,3147.0,3039.0,0.729431,0.262878,-0.593689,0.21521,0.0,0.0,0.0,7717.0,1022.0,1252.0,-305.0,-26.0,-32.0,-21.0,0.0,-307.0,0.979259,0.127968,0.156813,15436.0,2012.0,2496.0,7.0,17.0,10.0
2879.0,2768.0,2906.0,3149.0,3047.0,0.729492,0.262878,-0.593567,0.215332,0.0,0.0,0.0,7714.0,1018.0,1260.0,-307.0,-29.0,-26.0,-24.0,-6.0,-308.0,0.979217,0.127908,0.1571,15396.0,2012.0,2560.0,6.0,21.0,10.0
2879.0,2768.0,2903.0,3155.0,3039.0,0.729614,0.262817,-0.593384,0.215454,0.0,1.0,0.0,7704.0,1009.0,1260.0,-317.0,-38.0,-30.0,-17.0,-10.0,-319.0,0.979133,0.127817,0.15758,15418.0,1990.0,2490.0,9.0,25.0,6.0
2875.0,2767.0,2899.0,3153.0,3042.0,0.729675,0.262756,-0.593323,0.215576,0.0,1.0,0.0,7690.0,1012.0,1252.0,-331.0,-33.0,-40.0,-16.0,0.0,-334.0,0.979154,0.127641,0.157826,15232.0,2050.0,2458.0,9.0,23.0,4.0
2882.0,2768.0,2897.0,3154.0,3031.0,0.729675,0.262756,-0.593323,0.215515,-1.0,-2.0,0.0,7645.0,1033.0,1257.0,-375.0,-13.0,-35.0,-41.0,11.0,-374.0,0.979122,0.127714,0.1578,15262.0,2064.0,2588.0,-19.0,-28.0,4.0
2882.0,2768.0,2910.0,3159.0,3043.0,0.729614,0.262695,-0.593506,0.215393,-2.0,-2.0,0.0,7662.0,1021.0,1279.0,-359.0,-24.0,-11.0,-49.0,-12.0,-356.0,0.979226,0.127658,0.157473,15430.0,1946.0,2710.0,-23.0,-39.0,1.0
2886.0,2771.0,2908.0,3151.0,3039.0,0.729492,0.262634,-0.593689,0.215271,-1.0,-1.0,-1.0,7708.0,997.0,1315.0,-314.0,-48.0,28.0,-54.0,-55.0,-309.0,0.979258,0.127571,0.157057,15580.0,1966.0,2706.0,-2.0,-20.0,-5.0
2879.0,2767.0,2901.0,3152.0,3047.0,0.729492,0.262695,-0.593689,0.21521,0.0,-1.0,-1.0,7728.0,1008.0,1318.0,-294.0,-38.0,31.0,-59.0,-49.0,-287.0,0.979252,0.127733,0.156999,15598.0,2108.0,2656.0,7.0,-4.0,-11.0
2875.0,2766.0,2897.0,3151.0,3039.0,0.729797,0.262756,-0.593384,0.215027,-1.0,1.0,-2.0,7759.0,1056.0,1317.0,-261.0,4.0,25.0,-74.0,-13.0,-251.0,0.979099,0.128331,0.157696,15674.0,2200.0,2618.0,-19.0,35.0,-29.0
2881.0,2769.0,2903.0,3153.0,3043.0,0.730042,0.262695,-0.59314,0.214905,-2.0,2.0,-2.0,7756.0,1069.0,1289.0,-263.0,15.0,-7.0,-57.0,15.0,-256.0,0.978942,0.12862,0.158321,15400.0,2222.0,2358.0,-31.0,66.0,-35.0
2885.0,2768.0,2910.0,3147.0,3047.0,0.730591,0.262512,-0.592773,0.214355,-3.0,1.0,-2.0,7655.0,1092.0,1215.0,-362.0,31.0,-90.0,-25.0,80.0,-364.0,0.978692,0.12945,0.159418,15042.0,2220.0,2290.0,-59.0,29.0,-27.0
2879.0,2767.0,2909.0,3153.0,3039.0,0.730652,0.26239,-0.592773,0.214111,-3.0,-1.0,-1.0,7625.0,1075.0,1209.0,-391.0,13.0,-97.0,-15.0,71.0,-396.0,0.978583,0.129593,0.159467,15114.0,2066.0,2396.0,-57.0,0.0,-15.0
2881.0,2765.0,2903.0,3151.0,3035.0,0.730652,0.262207,-0.593018,0.213806,-1.0,-2.0,0.0,7639.0,1051.0,1234.0,-378.0,-10.0,-69.0,-19.0,35.0,-382.0,0.978702,0.129582,0.159143,15412.0,2008.0,2598.0,-21.0,-28.0,5.0
2879.0,2770.0,2911.0,3153.0,3045.0,0.730591,0.262146,-0.59314,0.213806,-1.0,-2.0,0.0,7676.0,1060.0,1256.0,-342.0,0.0,-46.0,-35.0,28.0,-342.0,0.978782,0.129409,0.158941,15638.0,2214.0,2686.0,-3.0,-23.0,14.0
2879.0,2769.0,2907.0,3151.0,3045.0,0.730591,0.262146,-0.593079,0.213867,0.0,0.0,0.0,7735.0,1087.0,1277.0,-282.0,27.0,-25.0,-55.0,36.0,-276.0,0.978724,0.129363,0.159039,15560.0,2228.0,2502.0,2.0,12.0,18.0
