flex_1,flex_2,flex_3,flex_4,flex_5,Qw,Qx,Qy,Qz,GYRx,GYRy,GYRz,ACCx,ACCy,ACCz,ACCx_real,ACCy_real,ACCz_real,ACCx_world,ACCy_world,ACCz_world,GRAx,GRAy,GRAz,ACCx_raw,ACCy_raw,ACCz_raw,GYRx_raw,GYRy_raw,GYRz_raw
2923.0,2820.0,2909.0,3159.0,3051.0,1.0,0.0,0.0,0.0,0.0,0.0,0.0,0.0,0.0,0.0,0.0,0.0,0.0,0.0,0.0,0.0,0.0,0.0,0.0,0.0,0.0,0.0,0.0,0.0,0.0
2923.0,2819.0,2911.0,3159.0,3049.0,0.868225,-0.086121,-0.488647,-0.000427,-1.0,0.0,-1.0,7669.0,-1425.0,1244.0,717.0,-203.0,-2914.0,2829.0,-577.0,-840.0,0.848586,-0.149127,0.507622,15268.0,-3012.0,2336.0,-7.0,3.0,-8.0
2927.0,2823.0,2911.0,3155.0,3055.0,0.866882,-0.086426,-0.490906,-0.000427,1.0,1.0,-1.0,7702.0,-1415.0,1270.0,729.0,-190.0,-2850.0,2786.0,-554.0,-784.0,0.851189,-0.149422,0.503027,15584.0,-2626.0,2710.0,24.0,25.0,-20.0
2924.0,2821.0,2911.0,3152.0,3047.0,0.866394,-0.086426,-0.491821,-0.000549,0.0,2.0,-1.0,7711.0,-1363.0,1293.0,728.0,-140.0,-2813.0,2760.0,-499.0,-768.0,0.852317,-0.149217,0.501281,15432.0,-2420.0,2716.0,14.0,51.0,-21.0
2923.0,2822.0,2907.0,3153.0,3055.0,0.865356,-0.086731,-0.493591,-0.000793,-1.0,1.0,-1.0,7690.0,-1304.0,1340.0,690.0,-80.0,-2737.0,2684.0,-433.0,-760.0,0.854402,-0.149323,0.497688,15344.0,-2444.0,2816.0,-11.0,44.0,-9.0
2926.0,2821.0,2905.0,3153.0,3051.0,0.864807,-0.086914,-0.494507,-0.000916,-1.0,1.0,-1.0,7686.0,-1281.0,1363.0,678.0,-56.0,-2698.0,2648.0,-405.0,-749.0,0.855465,-0.149422,0.495801,15306.0,-2432.0,2814.0,-15.0,34.0,-5.0
2927.0,2821.0,2903.0,3155.0,3047.0,0.863586,-0.087463,-0.496582,-0.000977,-2.0,-1.0,1.0,7672.0,-1278.0,1395.0,644.0,-48.0,-2631.0,2578.0,-392.0,-733.0,0.857854,-0.150094,0.491539,15380.0,-2664.0,2844.0,-27.0,-11.0,23.0
2925.0,2819.0,2903.0,3158.0,3055.0,0.862854,-0.08783,-0.497681,-0.000916,-1.0,-1.0,1.0,7680.0,-1302.0,1405.0,642.0,-67.0,-2601.0,2551.0,-407.0,-710.0,0.859012,-0.150657,0.489118,15352.0,-2742.0,2856.0,-21.0,-22.0,26.0
2927.0,2815.0,2899.0,3167.0,3047.0,0.86145,-0.088501,-0.500061,-0.000793,-1.0,-2.0,0.0,7705.0,-1376.0,1397.0,645.0,-133.0,-2569.0,2523.0,-468.0,-667.0,0.861696,-0.151685,0.484204,15544.0,-3042.0,2776.0,-7.0,-29.0,13.0
2927.0,2815.0,2907.0,3163.0,3056.0,0.860779,-0.088745,-0.50116,-0.000671,0.0,-1.0,0.0,7707.0,-1414.0,1374.0,638.0,-167.0,-2573.0,2522.0,-503.0,-664.0,0.862894,-0.152107,0.481904,15392.0,-3018.0,2592.0,17.0,-13.0,1.0
2917.0,2819.0,2911.0,3155.0,3047.0,0.859558,-0.088745,-0.503296,-0.000549,1.0,0.0,-1.0,7683.0,-1406.0,1316.0,594.0,-160.0,-2596.0,2524.0,-502.0,-701.0,0.865322,-0.15201,0.477658,15274.0,-2648.0,2432.0,42.0,17.0,-17.0
2925.0,2818.0,2902.0,3155.0,3053.0,0.859009,-0.088745,-0.504211,-0.000549,1.0,1.0,-1.0,7649.0,-1361.0,1288.0,551.0,-116.0,-2609.0,2520.0,-464.0,-746.0,0.866342,-0.151912,0.475792,15068.0,-2430.0,2420.0,23.0,24.0,-18.0
2925.0,2815.0,2902.0,3151.0,3055.0,0.857788,-0.089111,-0.506165,-0.000793,-2.0,0.0,-1.0,7599.0,-1335.0,1247.0,484.0,-89.0,-2616.0,2499.0,-446.0,-799.0,0.868505,-0.152074,0.471658,15112.0,-2770.0,2418.0,-26.0,9.0,-6.0
2919.0,2817.0,2911.0,3151.0,3045.0,0.857178,-0.089478,-0.507202,-0.000854,-2.0,-1.0,0.0,7584.0,-1358.0,1232.0,459.0,-108.0,-2614.0,2485.0,-468.0,-811.0,0.869678,-0.15253,0.469494,15098.0,-2864.0,2410.0,-25.0,-2.0,0.0
2925.0,2823.0,2907.0,3163.0,3056.0,0.855835,-0.089966,-0.509338,-0.000854,-1.0,-1.0,-1.0,7593.0,-1380.0,1245.0,449.0,-125.0,-2563.0,2438.0,-479.0,-780.0,0.871973,-0.153121,0.464935,15216.0,-2796.0,2582.0,-1.0,-14.0,-4.0
2915.0,2815.0,2909.0,3159.0,3053.0,0.4646,-0.085022,0.076294,-1.21228,-18575.0,14203.0,16772.0,5477.0,-22621.0,-5725.0,4369.0,-20458.0,-19425.0,31904.0,22758.0,-26495.0,0.135249,-0.263982,1.672427,15738.0,-2718.0,2646.0,15.0,-2.0,-15.0
2926.0,2821.0,2907.0,3158.0,3054.0,0.854004,-0.090271,-0.512329,-0.000977,0.0,1.0,-1.0,7719.0,-1358.0,1275.0,549.0,-103.0,-2482.0,2422.0,-436.0,-642.0,0.875238,-0.153183,0.458694,15650.0,-2494.0,2632.0,2.0,30.0,-22.0
2918.0,2817.0,2915.0,3154.0,3047.0,0.853088,-0.090637,-0.513855,-0.001465,-2.0,2.0,-2.0,7695.0,-1357.0,1279.0,510.0,-102.0,-2452.0,2380.0,-436.0,-653.0,0.876993,-0.153138,0.4555,15072.0,-2752.0,2534.0,-28.0,59.0,-33.0
2921.0,2821.0,2902.0,3155.0,3031.0,0.8526,-0.09082,-0.514587,-0.001648,-1.0,1.0,-2.0,7656.0,-1364.0,1283.0,465.0,-109.0,-2435.0,2344.0,-446.0,-680.0,0.877774,-0.153171,0.453881,15172.0,-2766.0,2638.0,-18.0,31.0,-29.0
2925.0,2823.0,2915.0,3151.0,3046.0,0.851562,-0.091003,-0.516296,-0.001892,0.0,0.0,-1.0,7625.0,-1306.0,1346.0,418.0,-52.0,-2343.0,2249.0,-380.0,-679.0,0.879662,-0.153036,0.450319,15136.0,-2284.0,2900.0,7.0,8.0,-15.0
2921.0,2815.0,2903.0,3152.0,3047.0,0.851013,-0.091064,-0.517212,-0.001953,-1.0,-1.0,-1.0,7621.0,-1264.0,1380.0,406.0,-10.0,-2293.0,2205.0,-332.0,-669.0,0.880664,-0.152974,0.448426,15214.0,-2274.0,2954.0,0.0,-14.0,-1.0
2925.0,2815.0,2907.0,3151.0,3054.0,0.849731,-0.091309,-0.519165,-0.001892,0.0,-2.0,0.0,7662.0,-1215.0,1427.0,431.0,40.0,-2211.0,2152.0,-268.0,-607.0,0.882647,-0.153211,0.444178,15492.0,-2370.0,2908.0,4.0,-36.0,13.0
2926.0,2826.0,2897.0,3166.0,3055.0,0.849121,-0.09137,-0.520203,-0.001831,0.0,-2.0,0.0,7698.0,-1203.0,1419.0,458.0,52.0,-2202.0,2159.0,-252.0,-576.0,0.883765,-0.153263,0.442051,15658.0,-2348.0,2760.0,8.0,-31.0,21.0
2922.0,2821.0,2910.0,3155.0,3051.0,0.847961,-0.091736,-0.522095,-0.001648,-1.0,0.0,1.0,7755.0,-1209.0,1370.0,499.0,51.0,-2218.0,2195.0,-252.0,-537.0,0.885735,-0.153856,0.438043,15526.0,-2496.0,2508.0,-8.0,11.0,25.0
2926.0,2813.0,2899.0,3150.0,3038.0,0.847412,-0.09198,-0.522949,-0.001648,-1.0,0.0,1.0,7736.0,-1247.0,1335.0,472.0,15.0,-2238.0,2198.0,-293.0,-559.0,0.88661,-0.154166,0.436174,15318.0,-2774.0,2456.0,-17.0,16.0,24.0
2919.0,2815.0,2911.0,3153.0,3047.0,0.846252,-0.092651,-0.524597,-0.001465,-1.0,0.0,0.0,7696.0,-1340.0,1279.0,420.0,-67.0,-2262.0,2189.0,-384.0,-594.0,0.888155,-0.155276,0.432359,15272.0,-2924.0,2486.0,-13.0,12.0,15.0
2927.0,2819.0,2899.0,3157.0,3043.0,0.845764,-0.092896,-0.525452,-0.001465,-1.0,0.0,0.0,7664.0,-1369.0,1276.0,380.0,-94.0,-2251.0,2160.0,-413.0,-616.0,0.889089,-0.155596,0.43059,15130.0,-2902.0,2568.0,-11.0,12.0,10.0
2915.0,2821.0,2907.0,3167.0,3055.0,0.844666,-0.093384,-0.5271,-0.001404,-1.0,-1.0,0.0,7634.0,-1394.0,1333.0,337.0,-113.0,-2164.0,2064.0,-423.0,-605.0,0.890708,-0.156276,0.426907,15320.0,-2824.0,2974.0,-5.0,-9.0,2.0
2926.0,2817.0,2907.0,3155.0,3046.0,0.844177,-0.093567,-0.527832,-0.001343,0.0,0.0,0.0,7648.0,-1386.0,1380.0,345.0,-103.0,-2103.0,2015.0,-403.0,-570.0,0.891419,-0.156557,0.425276,15378.0,-2700.0,2996.0,7.0,4.0,1.0
2919.0,2819.0,2911.0,3151.0,3047.0,0.843201,-0.09375,-0.529297,-0.001404,-1.0,0.0,-1.0,7643.0,-1349.0,1428.0,328.0,-66.0,-2029.0,1948.0,-356.0,-553.0,0.89287,-0.156614,0.422045,15272.0,-2600.0,2938.0,0.0,8.0,-2.0
2919.0,2819.0,2911.0,3157.0,3051.0,0.842712,-0.093872,-0.53009,-0.001404,-1.0,0.0,-1.0,7653.0,-1329.0,1437.0,331.0,-45.0,-2006.0,1932.0,-332.0,-540.0,0.893691,-0.156726,0.420358,15368.0,-2516.0,2958.0,-8.0,6.0,-1.0
2919.0,2823.0,2903.0,3153.0,3055.0,0.841675,-0.094299,-0.531616,-0.001587,-2.0,-1.0,-1.0,7632.0,-1356.0,1410.0,298.0,-69.0,-2005.0,1916.0,-360.0,-558.0,0.895195,-0.157051,0.416911,15200.0,-2872.0,2692.0,-23.0,-10.0,-4.0
2925.0,2822.0,2902.0,3151.0,3051.0,0.841125,-0.094543,-0.532532,-0.001587,-1.0,-2.0,-1.0,7645.0,-1374.0,1391.0,303.0,-84.0,-2008.0,1920.0,-375.0,-548.0,0.896152,-0.157356,0.414966,15414.0,-2830.0,2696.0,-14.0,-27.0,-4.0
2928.0,2818.0,2903.0,3153.0,3055.0,0.839905,-0.09491,-0.534363,-0.00177,-2.0,-1.0,-1.0,7669.0,-1354.0,1343.0,312.0,-63.0,-2023.0,1942.0,-357.0,-541.0,0.897964,-0.157539,0.410892,15310.0,-2594.0,2560.0,-23.0,-17.0,-14.0
2919.0,2821.0,2903.0,3159.0,3057.0,0.839294,-0.095215,-0.535217,-0.001892,-2.0,-1.0,-1.0,7666.0,-1351.0,1327.0,303.0,-58.0,-2022.0,1939.0,-354.0,-545.0,0.89877,-0.157801,0.408895,15334.0,-2706.0,2576.0,-38.0,-20.0,-10.0
2927.0,2815.0,2909.0,3151.0,3043.0,0.838196,-0.095825,-0.536926,-0.002197,-3.0,-1.0,-1.0,7660.0,-1311.0,1340.0,282.0,-14.0,-1978.0,1897.0,-308.0,-545.0,0.90052,-0.158281,0.405105,15162.0,-2560.0,2658.0,-64.0,-7.0,-5.0
2918.0,2815.0,2902.0,3151.0,3043.0,0.837585,-0.096191,-0.53772,-0.002441,-3.0,-1.0,-1.0,7656.0,-1330.0,1342.0,273.0,-31.0,-1960.0,1876.0,-324.0,-539.0,0.901242,-0.158511,0.40316,15328.0,-2824.0,2724.0,-64.0,-18.0,-5.0
2921.0,2815.0,2907.0,3155.0,3046.0,0.836487,-0.096802,-0.539307,-0.002502,0.0,-1.0,0.0,7691.0,-1377.0,1330.0,295.0,-72.0,-1942.0,1866.0,-360.0,-498.0,0.90273,-0.159248,0.399494,15436.0,-2734.0,2542.0,3.0,0.0,8.0
2928.0,2815.0,2909.0,3155.0,3046.0,0.83606,-0.096863,-0.540039,-0.00238,1.0,0.0,0.0,7725.0,-1368.0,1319.0,323.0,-62.0,-1941.0,1879.0,-347.0,-470.0,0.903471,-0.159395,0.397977,15734.0,-2712.0,2630.0,25.0,13.0,7.0
2927.0,2818.0,2914.0,3159.0,3051.0,0.835266,-0.096985,-0.541199,-0.001892,2.0,1.0,2.0,7689.0,-1374.0,1250.0,279.0,-63.0,-1988.0,1905.0,-359.0,-523.0,0.904457,-0.159968,0.395371,15160.0,-2828.0,2218.0,57.0,43.0,51.0
2919.0,2815.0,2911.0,3155.0,3055.0,0.8349,-0.096985,-0.541809,-0.001404,3.0,0.0,2.0,7625.0,-1327.0,1229.0,211.0,-12.0,-1999.0,1893.0,-316.0,-594.0,0.904985,-0.160424,0.394097,14846.0,-2122.0,2350.0,78.0,17.0,62.0
2923.0,2819.0,2913.0,3163.0,3055.0,0.833801,-0.096924,-0.543457,-0.001038,0.0,-2.0,1.0,7636.0,-1269.0,1265.0,210.0,45.0,-1933.0,1842.0,-248.0,-571.0,0.906471,-0.160503,0.390486,15470.0,-2592.0,2624.0,9.0,-27.0,23.0
2925.0,2821.0,2903.0,3157.0,3057.0,0.833313,-0.097107,-0.54425,-0.000916,0.0,-1.0,1.0,7670.0,-1287.0,1278.0,237.0,30.0,-1906.0,1828.0,-256.0,-530.0,0.90724,-0.160844,0.388773,15524.0,-2646.0,2654.0,1.0,-16.0,28.0
2925.0,2815.0,2907.0,3159.0,3057.0,0.832336,-0.097412,-0.545654,-0.000793,-1.0,0.0,0.0,7683.0,-1299.0,1292.0,240.0,22.0,-1866.0,1794.0,-257.0,-504.0,0.90849,-0.161293,0.385557,15354.0,-2678.0,2642.0,-14.0,6.0,8.0
2919.0,2815.0,2901.0,3153.0,3045.0,0.831848,-0.097656,-0.546326,-0.000854,-1.0,0.0,0.0,7670.0,-1303.0,1296.0,222.0,20.0,-1849.0,1771.0,-259.0,-511.0,0.909087,-0.161537,0.383964,15236.0,-2650.0,2640.0,-19.0,11.0,3.0
2922.0,2819.0,2907.0,3155.0,3053.0,0.830994,-0.098145,-0.547546,-0.000916,-1.0,0.0,0.0,7652.0,-1359.0,1302.0,195.0,-30.0,-1820.0,1730.0,-307.0,-511.0,0.910195,-0.162112,0.381112,15248.0,-2874.0,2614.0,-18.0,15.0,12.0
2928.0,2815.0,2911.0,3159.0,3039.0,0.830566,-0.098389,-0.548157,-0.000854,-1.0,0.0,0.0,7632.0,-1381.0,1303.0,171.0,-49.0,-1807.0,1707.0,-326.0,-522.0,0.910729,-0.1625,0.379685,15116.0,-2894.0,2604.0,-4.0,10.0,13.0
2917.0,2823.0,2903.0,3157.0,3057.0,0.829651,-0.098633,-0.5495,-0.000671,0.0,-1.0,0.0,7606.0,-1387.0,1319.0,135.0,-52.0,-1766.0,1657.0,-326.0,-533.0,0.911918,-0.162924,0.376643,15204.0,-2684.0,2732.0,16.0,-13.0,13.0
2927.0,2815.0,2908.0,3151.0,3043.0,0.829163,-0.098755,-0.550232,-0.000549,0.0,-1.0,0.0,7615.0,-1362.0,1330.0,139.0,-25.0,-1742.0,1641.0,-295.0,-522.0,0.912572,-0.163163,0.375003,15302.0,-2576.0,2678.0,5.0,-21.0,14.0
2927.0,2825.0,2911.0,3159.0,3059.0,0.828125,-0.099243,-0.551636,-0.000549,-2.0,-1.0,0.0,7658.0,-1334.0,1353.0,172.0,7.0,-1691.0,1612.0,-253.0,-472.0,0.913756,-0.163765,0.37164,15402.0,-2644.0,2738.0,-40.0,-12.0,22.0
2927.0,2815.0,2903.0,3155.0,3056.0,0.827637,-0.099609,-0.552307,-0.00061,-3.0,-1.0,0.0,7682.0,-1345.0,1366.0,191.0,0.0,-1665.0,1596.0,-254.0,-441.0,0.914341,-0.164207,0.370018,15524.0,-2796.0,2816.0,-53.0,-13.0,21.0
2899.0,2815.0,2907.0,3155.0,3051.0,0.826782,-0.100342,-0.553528,-0.000671,-1.0,0.0,0.0,7704.0,-1439.0,1363.0,204.0,-85.0,-1644.0,1573.0,-334.0,-402.0,0.915429,-0.165178,0.367108,15318.0,-3174.0,2676.0,-21.0,13.0,5.0
2927.0,2815.0,2909.0,3153.0,3043.0,0.826355,-0.100525,-0.554077,-0.000671,0.0,0.0,-1.0,7680.0,-1464.0,1355.0,177.0,-109.0,-1641.0,1558.0,-361.0,-420.0,0.915864,-0.165395,0.365756,15216.0,-3012.0,2666.0,8.0,7.0,-10.0
2923.0,2815.0,2907.0,3143.0,3055.0,0.8255,-0.100647,-0.555359,-0.000732,-1.0,-1.0,-1.0,7649.0,-1421.0,1365.0,136.0,-66.0,-1607.0,1517.0,-317.0,-447.0,0.917045,-0.165355,0.362898,15180.0,-2674.0,2746.0,-12.0,-15.0,-15.0
2923.0,2819.0,2914.0,3158.0,3053.0,0.824951,-0.10083,-0.556091,-0.000854,-2.0,-2.0,-1.0,7633.0,-1416.0,1362.0,115.0,-60.0,-1596.0,1501.0,-313.0,-460.0,0.917669,-0.165409,0.361141,15216.0,-2852.0,2734.0,-28.0,-35.0,-11.0
2919.0,2815.0,2903.0,3159.0,3055.0,0.823914,-0.101196,-0.557617,-0.000977,-1.0,-2.0,-1.0,7671.0,-1406.0,1361.0,142.0,-48.0,-1568.0,1488.0,-294.0,-422.0,0.919054,-0.165665,0.357657,15454.0,-2640.0,2664.0,-12.0,-31.0,-9.0
2925.0,2815.0,2907.0,3143.0,3055.0,0.823425,-0.101318,-0.55835,-0.001099,-1.0,-1.0,-1.0,7693.0,-1385.0,1353.0,158.0,-28.0,-1563.0,1493.0,-272.0,-406.0,0.919741,-0.165629,0.356011,15520.0,-2690.0,2674.0,-18.0,-16.0,-12.0
2927.0,2815.0,2903.0,3159.0,3047.0,0.822571,-0.101501,-0.559509,-0.001221,0.0,0.0,-1.0,7689.0,-1369.0,1336.0,146.0,-12.0,-1557.0,1485.0,-257.0,-413.0,0.92072,-0.165618,0.353271,15298.0,-2610.0,2654.0,2.0,13.0,-14.0
2923.0,2823.0,2903.0,3155.0,3043.0,0.822266,-0.101501,-0.559998,-0.001343,-1.0,0.0,-1.0,7669.0,-1337.0,1327.0,122.0,18.0,-1558.0,1481.0,-231.0,-439.0,0.921206,-0.165418,0.352223,15232.0,-2512.0,2530.0,-1.0,17.0,-12.0
2928.0,2823.0,2911.0,3166.0,3055.0,0.821472,-0.101685,-0.561096,-0.001465,-1.0,0.0,-1.0,7654.0,-1330.0,1290.0,99.0,25.0,-1574.0,1490.0,-230.0,-463.0,0.922148,-0.165418,0.34965,15264.0,-2672.0,2470.0,-1.0,13.0,-1.0
2927.0,2821.0,2899.0,3151.0,3055.0,0.821106,-0.101746,-0.561646,-0.001465,0.0,0.0,0.0,7632.0,-1339.0,1270.0,73.0,16.0,-1584.0,1489.0,-243.0,-487.0,0.922639,-0.165442,0.348419,15134.0,-2750.0,2378.0,9.0,6.0,1.0
2927.0,2823.0,2913.0,3152.0,3057.0,0.820251,-0.101807,-0.562866,-0.001221,1.0,-1.0,0.0,7644.0,-1344.0,1241.0,77.0,12.0,-1590.0,1497.0,-247.0,-480.0,0.923632,-0.16564,0.345631,15362.0,-2598.0,2382.0,26.0,-6.0,11.0
2923.0,2819.0,2897.0,3159.0,3045.0,0.819824,-0.101868,-0.563477,-0.00116,0.0,-1.0,0.0,7657.0,-1336.0,1235.0,86.0,21.0,-1584.0,1496.0,-236.0,-469.0,0.92414,-0.16572,0.34423,15400.0,-2616.0,2446.0,13.0,-2.0,7.0
2927.0,2819.0,2909.0,3143.0,3055.0,0.819092,-0.102051,-0.564453,-0.001099,0.0,1.0,0.0,7691.0,-1352.0,1254.0,114.0,7.0,-1546.0,1471.0,-240.0,-424.0,0.924902,-0.165938,0.341891,15364.0,-2708.0,2630.0,3.0,41.0,1.0
2915.0,2815.0,2909.0,3147.0,3055.0,0.818848,-0.102173,-0.564819,-0.00116,-1.0,1.0,-1.0,7686.0,-1344.0,1282.0,106.0,16.0,-1511.0,1437.0,-227.0,-419.0,0.925239,-0.166018,0.341053,15366.0,-2630.0,2796.0,-8.0,41.0,-3.0
2927.0,2823.0,2903.0,3153.0,3047.0,0.818359,-0.102356,-0.565491,-0.001282,-1.0,1.0,0.0,7682.0,-1346.0,1359.0,97.0,14.0,-1421.0,1351.0,-215.0,-394.0,0.925812,-0.166078,0.339457,15290.0,-2666.0,3036.0,0.0,36.0,1.0
2915.0,2819.0,2915.0,3151.0,3039.0,0.818115,-0.102417,-0.565857,-0.001282,0.0,0.0,0.0,7666.0,-1329.0,1418.0,79.0,31.0,-1356.0,1287.0,-189.0,-391.0,0.926135,-0.166127,0.338631,15228.0,-2538.0,3186.0,11.0,18.0,4.0
2927.0,2815.0,2917.0,3157.0,3059.0,0.817444,-0.102417,-0.566833,-0.001221,0.0,-2.0,0.0,7638.0,-1282.0,1517.0,44.0,78.0,-1239.0,1172.0,-127.0,-388.0,0.926959,-0.166056,0.336426,15254.0,-2510.0,3288.0,2.0,-37.0,17.0
2927.0,2821.0,2911.0,3155.0,3055.0,0.816956,-0.102539,-0.567505,-0.001099,0.0,-3.0,1.0,7657.0,-1298.0,1527.0,59.0,64.0,-1216.0,1155.0,-135.0,-363.0,0.927478,-0.166293,0.334842,15482.0,-2754.0,3076.0,8.0,-56.0,24.0
2922.0,2819.0,2909.0,3149.0,3059.0,0.815979,-0.102539,-0.568909,-0.000671,1.0,-2.0,0.0,7710.0,-1307.0,1464.0,103.0,57.0,-1252.0,1205.0,-142.0,-329.0,0.928573,-0.166576,0.331651,15430.0,-2506.0,2660.0,40.0,-41.0,20.0
2918.0,2818.0,2903.0,3147.0,3055.0,0.815552,-0.102478,-0.56958,-0.000488,1.0,-2.0,1.0,7708.0,-1307.0,1407.0,96.0,57.0,-1298.0,1246.0,-150.0,-348.0,0.929144,-0.166596,0.330202,15436.0,-2660.0,2468.0,30.0,-37.0,25.0
2928.0,2819.0,2895.0,3147.0,3043.0,0.814697,-0.102539,-0.57074,-0.000122,1.0,0.0,0.0,7733.0,-1336.0,1311.0,114.0,31.0,-1371.0,1318.0,-185.0,-348.0,0.929985,-0.166937,0.327474,15376.0,-2738.0,2310.0,30.0,14.0,16.0
2927.0,2819.0,2903.0,3152.0,3053.0,0.814392,-0.1026,-0.571167,0.0,1.0,0.0,0.0,7720.0,-1346.0,1266.0,98.0,22.0,-1408.0,1346.0,-202.0,-372.0,0.930308,-0.167113,0.326476,15392.0,-2766.0,2260.0,24.0,21.0,15.0
2925.0,2815.0,2911.0,3159.0,3047.0,0.813721,-0.102783,-0.572083,0.000244,0.0,0.0,1.0,7620.0,-1355.0,1204.0,-6.0,17.0,-1452.0,1351.0,-226.0,-479.0,0.930981,-0.167553,0.324299,14844.0,-2764.0,2198.0,7.0,4.0,30.0
2928.0,2819.0,2911.0,3155.0,3055.0,0.813293,-0.102966,-0.572632,0.000427,0.0,-1.0,1.0,7602.0,-1391.0,1198.0,-27.0,-14.0,-1447.0,1336.0,-258.0,-490.0,0.931347,-0.167973,0.322937,15148.0,-3016.0,2364.0,10.0,-21.0,33.0
2915.0,2819.0,2909.0,3151.0,3057.0,0.812317,-0.103271,-0.574036,0.001038,1.0,-3.0,1.0,7557.0,-1462.0,1161.0,-81.0,-77.0,-1457.0,1322.0,-327.0,-528.0,0.932383,-0.16897,0.319678,15110.0,-3208.0,2312.0,41.0,-57.0,33.0
2925.0,2815.0,2903.0,3152.0,3056.0,0.811768,-0.103271,-0.574768,0.001526,3.0,-3.0,1.0,7583.0,-1500.0,1160.0,-58.0,-112.0,-1444.0,1315.0,-356.0,-494.0,0.932841,-0.169419,0.317946,15344.0,-3182.0,2356.0,82.0,-58.0,38.0
2922.0,2817.0,2915.0,3155.0,3051.0,0.810974,-0.102661,-0.575989,0.002686,6.0,-1.0,1.0,7676.0,-1469.0,1190.0,27.0,-79.0,-1393.0,1302.0,-301.0,-400.0,0.933673,-0.169605,0.315384,15624.0,-2624.0,2526.0,138.0,-5.0,30.0
2926.0,2815.0,2902.0,3153.0,3055.0,0.810791,-0.102234,-0.576355,0.003113,5.0,1.0,0.0,7722.0,-1425.0,1223.0,70.0,-37.0,-1355.0,1286.0,-247.0,-354.0,0.93397,-0.169369,0.314755,15718.0,-2582.0,2592.0,131.0,38.0,13.0
2922.0,2823.0,2919.0,3158.0,3045.0,0.81073,-0.101379,-0.576538,0.003723,4.0,4.0,1.0,7689.0,-1348.0,1271.0,37.0,33.0,-1306.0,1237.0,-172.0,-381.0,0.934079,-0.168676,0.314623,15066.0,-2538.0,2556.0,100.0,94.0,23.0
2923.0,2819.0,2911.0,3143.0,3057.0,0.810669,-0.101196,-0.57666,0.004028,2.0,2.0,1.0,7646.0,-1279.0,1323.0,-6.0,103.0,-1252.0,1180.0,-99.0,-416.0,0.934146,-0.168719,0.314423,15066.0,-2160.0,3046.0,57.0,66.0,35.0
2923.0,2815.0,2899.0,3158.0,3039.0,0.810364,-0.101501,-0.577026,0.00415,-2.0,1.0,1.0,7619.0,-1313.0,1349.0,-35.0,73.0,-1218.0,1136.0,-127.0,-426.0,0.93436,-0.169296,0.313445,15148.0,-3006.0,2774.0,-31.0,38.0,35.0
2928.0,2819.0,2917.0,3143.0,3059.0,0.81012,-0.101868,-0.577332,0.004211,-2.0,1.0,1.0,7616.0,-1388.0,1361.0,-39.0,3.0,-1200.0,1110.0,-194.0,-412.0,0.934557,-0.169913,0.312623,15304.0,-3308.0,2834.0,-32.0,23.0,27.0
2919.0,2811.0,2901.0,3154.0,3039.0,0.809631,-0.102295,-0.577942,0.004333,0.0,1.0,-1.0,7644.0,-1481.0,1376.0,-15.0,-83.0,-1172.0,1083.0,-271.0,-364.0,0.934953,-0.170651,0.311041,15294.0,-3058.0,2770.0,2.0,27.0,-4.0
2922.0,2823.0,2917.0,3153.0,3047.0,0.809387,-0.102356,-0.578247,0.004272,-1.0,1.0,-1.0,7645.0,-1481.0,1385.0,-15.0,-83.0,-1156.0,1068.0,-268.0,-358.0,0.935177,-0.170632,0.310279,15320.0,-2954.0,2834.0,0.0,23.0,-17.0
2927.0,2823.0,2911.0,3159.0,3051.0,0.808899,-0.102417,-0.578918,0.004089,-1.0,0.0,-1.0,7646.0,-1420.0,1414.0,-19.0,-23.0,-1114.0,1035.0,-204.0,-357.0,0.935735,-0.170425,0.308698,15286.0,-2574.0,2912.0,-7.0,10.0,-19.0
2925.0,2819.0,2899.0,3151.0,3057.0,0.808655,-0.102478,-0.579285,0.003906,-1.0,0.0,-1.0,7645.0,-1380.0,1438.0,-23.0,14.0,-1084.0,1010.0,-163.0,-357.0,0.936082,-0.170264,0.307865,15260.0,-2536.0,2990.0,-22.0,3.0,-14.0
2923.0,2815.0,2899.0,3163.0,3055.0,0.807983,-0.102783,-0.5802,0.003601,-2.0,-2.0,-1.0,7632.0,-1353.0,1441.0,-42.0,41.0,-1062.0,987.0,-137.0,-370.0,0.936844,-0.170273,0.305653,15220.0,-2722.0,2880.0,-31.0,-26.0,-3.0
2923.0,2811.0,2907.0,3150.0,3051.0,0.807556,-0.102905,-0.580688,0.00354,-1.0,-2.0,-1.0,7645.0,-1344.0,1439.0,-32.0,51.0,-1054.0,984.0,-124.0,-359.0,0.937149,-0.170315,0.304371,15442.0,-2622.0,2852.0,-20.0,-39.0,-2.0
2925.0,2819.0,2903.0,3143.0,3059.0,0.806824,-0.103088,-0.581726,0.003357,-1.0,-1.0,-1.0,7699.0,-1307.0,1417.0,14.0,87.0,-1056.0,1006.0,-84.0,-320.0,0.938009,-0.170254,0.301943,15474.0,-2458.0,2794.0,-16.0,-15.0,-3.0
2919.0,2815.0,2911.0,3151.0,3059.0,0.806458,-0.103149,-0.582214,0.003296,-1.0,-1.0,0.0,7721.0,-1296.0,1396.0,33.0,98.0,-1067.0,1024.0,-73.0,-306.0,0.938382,-0.170209,0.300771,15574.0,-2566.0,2654.0,-21.0,-9.0,5.0
2928.0,2819.0,2911.0,3153.0,3054.0,0.805847,-0.103577,-0.583008,0.003235,-2.0,0.0,0.0,7706.0,-1317.0,1347.0,14.0,81.0,-1100.0,1048.0,-98.0,-329.0,0.93896,-0.170706,0.298774,15260.0,-2714.0,2584.0,-23.0,5.0,18.0
2919.0,2819.0,2911.0,3173.0,3055.0,0.805542,-0.10376,-0.583435,0.003235,-1.0,0.0,0.0,7690.0,-1340.0,1316.0,-4.0,60.0,-1123.0,1062.0,-125.0,-348.0,0.939292,-0.17094,0.297746,15312.0,-2832.0,2428.0,-22.0,2.0,20.0
2919.0,2819.0,2911.0,3154.0,3055.0,0.804871,-0.104187,-0.584229,0.003235,-1.0,-1.0,0.0,7623.0,-1352.0,1282.0,-75.0,52.0,-1139.0,1054.0,-145.0,-416.0,0.939783,-0.171494,0.295649,14906.0,-2734.0,2470.0,-21.0,-4.0,10.0
2923.0,2831.0,2903.0,3147.0,3053.0,0.804504,-0.10437,-0.584717,0.003235,-2.0,-2.0,0.0,7603.0,-1367.0,1290.0,-98.0,39.0,-1122.0,1029.0,-158.0,-429.0,0.940139,-0.171715,0.294451,15166.0,-2820.0,2684.0,-25.0,-30.0,12.0
2919.0,2819.0,2903.0,3143.0,3053.0,0.803772,-0.104797,-0.585632,0.003296,-1.0,-1.0,0.0,7660.0,-1395.0,1354.0,-46.0,16.0,-1038.0,965.0,-161.0,-349.0,0.940739,-0.172327,0.292113,15460.0,-2782.0,2860.0,-10.0,-12.0,16.0
2919.0,2821.0,2905.0,3159.0,3055.0,0.803467,-0.104919,-0.585999,0.003296,-1.0,-1.0,0.0,7684.0,-1407.0,1379.0,-24.0,5.0,-1006.0,941.0,-163.0,-316.0,0.940969,-0.172461,0.291167,15510.0,-2928.0,2926.0,-16.0,-4.0,14.0
2925.0,2819.0,2923.0,3157.0,3047.0,0.80304,-0.105164,-0.586548,0.003418,0.0,0.0,0.0,7696.0,-1425.0,1411.0,-15.0,-8.0,-962.0,901.0,-168.0,-291.0,0.941323,-0.172911,0.289786,15350.0,-2758.0,2932.0,13.0,12.0,8.0
2913.0,2815.0,2903.0,3159.0,3047.0,0.802856,-0.105164,-0.586853,0.003479,0.0,0.0,0.0,7687.0,-1405.0,1414.0,-26.0,11.0,-954.0,892.0,-149.0,-302.0,0.941586,-0.172946,0.289135,15318.0,-2684.0,2842.0,13.0,6.0,4.0
2923.0,2814.0,2899.0,3154.0,3039.0,0.802246,-0.105408,-0.587585,0.003479,-2.0,-1.0,0.0,7634.0,-1370.0,1408.0,-83.0,48.0,-945.0,871.0,-119.0,-357.0,0.942043,-0.173214,0.287243,15086.0,-2716.0,2752.0,-31.0,-22.0,19.0
2927.0,2819.0,2903.0,3152.0,3051.0,0.80188,-0.105774,-0.588074,0.003418,-3.0,-2.0,1.0,7610.0,-1399.0,1384.0,-110.0,23.0,-958.0,873.0,-150.0,-381.0,0.942406,-0.173656,0.286004,15126.0,-3070.0,2610.0,-51.0,-37.0,26.0
2915.0,2831.0,2903.0,3157.0,3055.0,0.801025,-0.106384,-0.58905,0.003601,-1.0,-2.0,0.0,7627.0,-1517.0,1325.0,-97.0,-86.0,-996.0,900.0,-262.0,-358.0,0.942922,-0.174675,0.283357,15380.0,-3258.0,2466.0,-9.0,-32.0,9.0
2928.0,2815.0,2909.0,3135.0,3047.0,0.800659,-0.106567,-0.589539,0.003601,-1.0,-1.0,-1.0,7641.0,-1521.0,1301.0,-86.0,-88.0,-1010.0,917.0,-265.0,-350.0,0.943271,-0.174894,0.282156,15352.0,-2978.0,2476.0,-1.0,-16.0,-7.0
2921.0,2819.0,2901.0,3151.0,3051.0,0.800049,-0.106689,-0.590332,0.003418,-1.0,0.0,-1.0,7642.0,-1504.0,1272.0,-90.0,-72.0,-1023.0,931.0,-252.0,-359.0,0.94386,-0.174749,0.280215,15308.0,-3042.0,2490.0,-12.0,1.0,-19.0
2922.0,2817.0,2911.0,3151.0,3051.0,0.799805,-0.10675,-0.590698,0.003357,0.0,0.0,-1.0,7647.0,-1494.0,1270.0,-87.0,-62.0,-1018.0,928.0,-241.0,-355.0,0.94417,-0.174725,0.279379,15350.0,-2882.0,2520.0,1.0,12.0,-22.0
2925.0,2823.0,2911.0,3157.0,3055.0,0.799377,-0.10675,-0.591248,0.003113,-1.0,0.0,-1.0,7634.0,-1415.0,1290.0,-104.0,13.0,-987.0,903.0,-165.0,-374.0,0.944595,-0.174349,0.278045,15168.0,-2524.0,2626.0,-15.0,15.0,-16.0
2922.0,2822.0,2879.0,3155.0,3054.0,0.799133,-0.106873,-0.591553,0.00293,-2.0,0.0,-1.0,7637.0,-1393.0,1302.0,-103.0,34.0,-969.0,889.0,-142.0,-371.0,0.944833,-0.174277,0.277266,15316.0,-2732.0,2684.0,-38.0,2.0,-5.0
2921.0,2815.0,2903.0,3154.0,3047.0,0.798584,-0.107178,-0.592224,0.002686,-1.0,-1.0,-1.0,7649.0,-1392.0,1323.0,-94.0,36.0,-934.0,860.0,-134.0,-352.0,0.945306,-0.174362,0.275527,15378.0,-2670.0,2750.0,-13.0,-1.0,-7.0
2919.0,2819.0,2907.0,3151.0,3056.0,0.798401,-0.107239,-0.592529,0.002625,-1.0,0.0,-1.0,7665.0,-1368.0,1345.0,-81.0,60.0,-906.0,840.0,-104.0,-336.0,0.945589,-0.174349,0.27486,15422.0,-2592.0,2788.0,-18.0,2.0,-5.0
2919.0,2819.0,2911.0,3153.0,3057.0,0.797913,-0.107422,-0.593079,0.002319,-1.0,0.0,-1.0,7671.0,-1373.0,1349.0,-78.0,53.0,-890.0,826.0,-108.0,-326.0,0.945952,-0.174178,0.273388,15340.0,-2930.0,2700.0,-21.0,6.0,-12.0
2919.0,2815.0,2899.0,3159.0,3053.0,0.797668,-0.107483,-0.593384,0.002258,0.0,0.0,-1.0,7681.0,-1384.0,1349.0,-69.0,42.0,-884.0,822.0,-117.0,-313.0,0.946162,-0.174152,0.272623,15424.0,-2766.0,2696.0,3.0,9.0,-10.0
2923.0,2815.0,2903.0,3152.0,3051.0,0.797241,-0.107483,-0.593994,0.002075,-2.0,-1.0,-1.0,7662.0,-1341.0,1348.0,-93.0,83.0,-873.0,810.0,-78.0,-339.0,0.946667,-0.173845,0.271216,15334.0,-2716.0,2698.0,-24.0,-5.0,-6.0
2926.0,2819.0,2911.0,3155.0,3047.0,0.796997,-0.107666,-0.59436,0.002014,-2.0,-1.0,0.0,7648.0,-1371.0,1333.0,-109.0,54.0,-881.0,809.0,-110.0,-350.0,0.946973,-0.174013,0.270352,15184.0,-2936.0,2572.0,-29.0,-8.0,1.0
2923.0,2815.0,2909.0,3163.0,3031.0,0.796326,-0.108032,-0.595154,0.002014,-1.0,-2.0,0.0,7638.0,-1405.0,1302.0,-123.0,24.0,-895.0,815.0,-144.0,-360.0,0.947437,-0.174455,0.26826,15362.0,-2816.0,2558.0,-14.0,-29.0,4.0
2923.0,2819.0,2907.0,3157.0,3055.0,0.795959,-0.108154,-0.595581,0.001953,-1.0,-1.0,-1.0,7657.0,-1417.0,1294.0,-106.0,12.0,-894.0,818.0,-154.0,-341.0,0.947694,-0.174499,0.267141,15438.0,-2916.0,2500.0,-10.0,-21.0,-1.0
2921.0,2811.0,2907.0,3155.0,3047.0,0.795471,-0.108093,-0.596252,0.001953,1.0,0.0,-1.0,7705.0,-1425.0,1296.0,-62.0,2.0,-879.0,816.0,-155.0,-292.0,0.948181,-0.174299,0.265577,15514.0,-2762.0,2632.0,26.0,22.0,-16.0
2923.0,2815.0,2906.0,3153.0,3055.0,0.79541,-0.107971,-0.596375,0.001953,1.0,1.0,-1.0,7686.0,-1389.0,1302.0,-82.0,37.0,-871.0,807.0,-122.0,-315.0,0.948303,-0.174092,0.265361,15212.0,-2502.0,2612.0,31.0,40.0,-19.0
2923.0,2815.0,2911.0,3153.0,3045.0,0.795166,-0.107849,-0.59668,0.00177,-1.0,1.0,0.0,7649.0,-1326.0,1335.0,-121.0,96.0,-832.0,767.0,-63.0,-351.0,0.948537,-0.173628,0.264634,15236.0,-2678.0,2766.0,-12.0,23.0,2.0
2925.0,2815.0,2903.0,3152.0,3047.0,0.794983,-0.107971,-0.596924,0.00177,-1.0,0.0,0.0,7632.0,-1339.0,1343.0,-139.0,84.0,-819.0,748.0,-75.0,-362.0,0.948706,-0.173784,0.264025,15168.0,-2754.0,2726.0,-6.0,13.0,8.0
2923.0,2818.0,2909.0,3155.0,3045.0,0.794556,-0.108215,-0.597534,0.001831,-1.0,-2.0,0.0,7626.0,-1351.0,1372.0,-149.0,75.0,-778.0,705.0,-78.0,-358.0,0.949152,-0.174154,0.262564,15332.0,-2806.0,2824.0,-21.0,-26.0,17.0
2923.0,2819.0,2911.0,3155.0,3046.0,0.79425,-0.108398,-0.597839,0.001831,-2.0,-2.0,0.0,7652.0,-1386.0,1378.0,-124.0,42.0,-765.0,696.0,-105.0,-325.0,0.949271,-0.17438,0.261675,15452.0,-3004.0,2760.0,-24.0,-26.0,13.0
2919.0,2815.0,2903.0,3155.0,3043.0,0.793701,-0.108643,-0.598511,0.00177,-1.0,-1.0,-1.0,7676.0,-1457.0,1374.0,-103.0,-26.0,-755.0,685.0,-167.0,-289.0,0.949693,-0.174578,0.259946,15434.0,-3020.0,2752.0,-6.0,-14.0,-13.0
2927.0,2819.0,2909.0,3152.0,3051.0,0.793457,-0.108704,-0.598816,0.001709,-1.0,0.0,-2.0,7699.0,-1471.0,1368.0,-82.0,-41.0,-755.0,689.0,-179.0,-266.0,0.949898,-0.17455,0.25918,15514.0,-2996.0,2692.0,-3.0,3.0,-25.0
2923.0,2823.0,2897.0,3152.0,3043.0,0.793213,-0.108521,-0.599243,0.001465,0.0,1.0,-2.0,7670.0,-1450.0,1354.0,-115.0,-25.0,-762.0,689.0,-169.0,-301.0,0.950337,-0.173915,0.25832,15148.0,-2708.0,2648.0,8.0,24.0,-34.0
2919.0,2819.0,2903.0,3159.0,3055.0,0.79303,-0.108521,-0.599426,0.001343,-1.0,0.0,-2.0,7642.0,-1401.0,1349.0,-143.0,22.0,-762.0,687.0,-127.0,-336.0,0.950434,-0.17373,0.25781,15128.0,-2492.0,2686.0,-7.0,12.0,-26.0
2927.0,2822.0,2911.0,3159.0,3055.0,0.792603,-0.108582,-0.599976,0.000977,-2.0,-1.0,-1.0,7623.0,-1349.0,1358.0,-166.0,70.0,-742.0,668.0,-80.0,-360.0,0.950872,-0.173296,0.256459,15244.0,-2608.0,2788.0,-23.0,-10.0,-12.0
2928.0,2815.0,2902.0,3152.0,3055.0,0.792358,-0.108643,-0.600281,0.000854,-1.0,-1.0,-1.0,7633.0,-1344.0,1359.0,-158.0,74.0,-735.0,664.0,-74.0,-351.0,0.951089,-0.173194,0.255692,15322.0,-2658.0,2704.0,-13.0,-13.0,-8.0
2923.0,2815.0,2907.0,3155.0,3051.0,0.791809,-0.108643,-0.601013,0.000854,0.0,-1.0,0.0,7645.0,-1344.0,1323.0,-150.0,73.0,-757.0,688.0,-77.0,-347.0,0.95159,-0.173075,0.253942,15354.0,-2714.0,2570.0,6.0,-21.0,1.0
2927.0,2821.0,2909.0,3157.0,3053.0,0.791565,-0.108643,-0.601379,0.000854,0.0,-1.0,0.0,7666.0,-1334.0,1313.0,-131.0,83.0,-760.0,698.0,-66.0,-331.0,0.951876,-0.173023,0.253115,15488.0,-2560.0,2564.0,14.0,-18.0,4.0
2925.0,2815.0,2907.0,3159.0,3047.0,0.791199,-0.108643,-0.601868,0.000854,-1.0,1.0,-1.0,7705.0,-1311.0,1305.0,-95.0,105.0,-758.0,709.0,-39.0,-299.0,0.952208,-0.172944,0.251948,15378.0,-2600.0,2538.0,-3.0,28.0,-2.0
2919.0,2815.0,2896.0,3157.0,3046.0,0.791077,-0.108704,-0.60199,0.000732,-1.0,1.0,-1.0,7683.0,-1311.0,1292.0,-118.0,105.0,-769.0,713.0,-44.0,-323.0,0.952281,-0.172868,0.251595,15234.0,-2656.0,2494.0,-16.0,34.0,-3.0
2918.0,2815.0,2901.0,3155.0,3055.0,0.790771,-0.108887,-0.602356,0.000549,-1.0,0.0,-1.0,7660.0,-1352.0,1270.0,-143.0,64.0,-783.0,715.0,-90.0,-343.0,0.952532,-0.172871,0.250631,15268.0,-2820.0,2526.0,-9.0,21.0,-4.0
2923.0,2815.0,2910.0,3135.0,3053.0,0.790649,-0.108948,-0.602539,0.000549,0.0,0.0,-1.0,7645.0,-1358.0,1268.0,-159.0,58.0,-781.0,708.0,-98.0,-356.0,0.952675,-0.172941,0.250204,15164.0,-2728.0,2518.0,3.0,19.0,-1.0
2919.0,2819.0,2907.0,3153.0,3053.0,0.790344,-0.108948,-0.602905,0.00061,0.0,0.0,0.0,7642.0,-1333.0,1313.0,-163.0,83.0,-729.0,661.0,-65.0,-351.0,0.952872,-0.172948,0.24928,15270.0,-2550.0,2730.0,12.0,8.0,11.0
2927.0,2819.0,2903.0,3152.0,3051.0,0.790161,-0.108948,-0.603149,0.000671,0.0,-1.0,0.0,7639.0,-1313.0,1326.0,-168.0,104.0,-711.0,645.0,-42.0,-354.0,0.953024,-0.172982,0.248696,15296.0,-2526.0,2732.0,5.0,0.0,20.0
2919.0,2818.0,2910.0,3155.0,3053.0,0.789856,-0.109192,-0.603516,0.000793,-1.0,0.0,1.0,7680.0,-1334.0,1364.0,-128.0,86.0,-665.0,610.0,-47.0,-301.0,0.953208,-0.173449,0.247719,15420.0,-2762.0,2814.0,-8.0,10.0,23.0
2927.0,2819.0,2909.0,3157.0,3023.0,0.789673,-0.109314,-0.603699,0.000854,-1.0,0.0,0.0,7680.0,-1358.0,1369.0,-129.0,64.0,-655.0,598.0,-67.0,-295.0,0.953262,-0.173676,0.247182,15364.0,-2876.0,2728.0,-10.0,7.0,19.0
2926.0,2822.0,2907.0,3155.0,3047.0,0.789429,-0.109497,-0.604004,0.000916,0.0,0.0,0.0,7693.0,-1410.0,1378.0,-117.0,15.0,-640.0,580.0,-110.0,-271.0,0.953436,-0.173986,0.246388,15298.0,-2860.0,2704.0,7.0,17.0,1.0
2926.0,2815.0,2911.0,3153.0,3047.0,0.789246,-0.109497,-0.604187,0.000916,0.0,0.0,-1.0,7676.0,-1415.0,1371.0,-135.0,9.0,-643.0,578.0,-119.0,-288.0,0.953503,-0.173946,0.245878,15270.0,-2868.0,2712.0,2.0,7.0,-6.0
2925.0,2799.0,2913.0,3155.0,3051.0,0.78894,-0.109619,-0.604614,0.000977,-1.0,-1.0,-1.0,7663.0,-1431.0,1364.0,-150.0,-4.0,-641.0,570.0,-134.0,-299.0,0.953795,-0.174147,0.244853,15342.0,-2862.0,2716.0,0.0,-6.0,-4.0
2927.0,2815.0,2909.0,3153.0,3055.0,0.788696,-0.10968,-0.604919,0.000916,-1.0,-1.0,-1.0,7662.0,-1431.0,1355.0,-153.0,-4.0,-644.0,573.0,-135.0,-302.0,0.953995,-0.174116,0.244085,15296.0,-2852.0,2676.0,-4.0,-11.0,-8.0
2925.0,2819.0,2879.0,3151.0,3055.0,0.788269,-0.109741,-0.605469,0.000793,-1.0,-1.0,-1.0,7666.0,-1406.0,1354.0,-152.0,19.0,-634.0,567.0,-110.0,-302.0,0.95437,-0.173972,0.242733,15302.0,-2750.0,2732.0,-11.0,-11.0,-14.0
2919.0,2821.0,2911.0,3153.0,3051.0,0.788086,-0.109741,-0.605713,0.000671,-1.0,-1.0,-1.0,7674.0,-1393.0,1353.0,-145.0,30.0,-630.0,566.0,-98.0,-296.0,0.95456,-0.173784,0.242149,15422.0,-2700.0,2712.0,-2.0,-4.0,-14.0
2922.0,2813.0,2909.0,3166.0,3051.0,0.787781,-0.10968,-0.60614,0.000488,-1.0,0.0,-1.0,7649.0,-1317.0,1376.0,-173.0,103.0,-599.0,539.0,-25.0,-327.0,0.954904,-0.1734,0.241163,15190.0,-2454.0,2882.0,-15.0,3.0,-12.0
2928.0,2819.0,2911.0,3163.0,3047.0,0.787598,-0.109741,-0.606323,0.000305,-2.0,-1.0,-1.0,7641.0,-1317.0,1383.0,-182.0,102.0,-588.0,526.0,-26.0,-332.0,0.955011,-0.173234,0.240639,15286.0,-2692.0,2798.0,-25.0,-5.0,-8.0
2927.0,2819.0,2903.0,3152.0,3059.0,0.787231,-0.109802,-0.60675,0.000305,0.0,-2.0,-1.0,7625.0,-1349.0,1416.0,-200.0,70.0,-546.0,478.0,-52.0,-333.0,0.955239,-0.17325,0.239531,15236.0,-2632.0,2938.0,9.0,-26.0,-3.0
2917.0,2815.0,2902.0,3151.0,3059.0,0.787048,-0.109802,-0.607056,0.000305,-1.0,-2.0,0.0,7639.0,-1323.0,1427.0,-188.0,95.0,-529.0,468.0,-23.0,-322.0,0.955497,-0.17321,0.238872,15356.0,-2496.0,2860.0,-9.0,-32.0,1.0
2919.0,2819.0,2911.0,3194.0,3043.0,0.786438,-0.110107,-0.607727,6.1e-05,-3.0,-2.0,0.0,7662.0,-1354.0,1385.0,-168.0,65.0,-556.0,496.0,-55.0,-303.0,0.955866,-0.173259,0.237029,15374.0,-2954.0,2516.0,-46.0,-39.0,1.0
2927.0,2819.0,2903.0,3155.0,3054.0,0.786133,-0.110352,-0.608154,0.0,-2.0,-2.0,-1.0,7689.0,-1395.0,1344.0,-144.0,26.0,-589.0,529.0,-96.0,-281.0,0.95618,-0.173502,0.235976,15612.0,-3028.0,2474.0,-33.0,-39.0,-1.0
2926.0,2819.0,2899.0,3155.0,3053.0,0.785583,-0.110535,-0.608765,-0.000183,-2.0,-1.0,-1.0,7698.0,-1366.0,1260.0,-137.0,54.0,-659.0,602.0,-80.0,-294.0,0.956511,-0.173445,0.234329,15332.0,-2556.0,2306.0,-24.0,-7.0,-9.0
2914.0,2811.0,2903.0,3155.0,3043.0,0.785339,-0.110718,-0.60907,-0.000366,-2.0,-1.0,-1.0,7694.0,-1352.0,1236.0,-143.0,68.0,-677.0,619.0,-70.0,-306.0,0.956734,-0.173456,0.233534,15340.0,-2654.0,2362.0,-44.0,-3.0,-4.0
2927.0,2819.0,2903.0,3153.0,3042.0,0.784973,-0.111145,-0.609497,-0.000732,-2.0,0.0,-1.0,7682.0,-1374.0,1229.0,-158.0,48.0,-674.0,610.0,-92.0,-316.0,0.95704,-0.173599,0.232343,15312.0,-2860.0,2474.0,-35.0,16.0,-7.0
2927.0,2823.0,2911.0,3159.0,3055.0,0.784851,-0.111267,-0.609619,-0.000793,-1.0,0.0,-1.0,7672.0,-1376.0,1244.0,-168.0,46.0,-656.0,590.0,-92.0,-320.0,0.957097,-0.173689,0.231976,15266.0,-2754.0,2596.0,-22.0,19.0,-4.0
2928.0,2821.0,2915.0,3151.0,3055.0,0.784607,-0.11145,-0.609863,-0.000916,-1.0,0.0,0.0,7645.0,-1357.0,1270.0,-196.0,66.0,-624.0,555.0,-71.0,-343.0,0.95721,-0.173772,0.231255,15238.0,-2598.0,2632.0,-12.0,16.0,5.0
2922.0,2815.0,2907.0,3152.0,3047.0,0.784485,-0.111511,-0.609985,-0.000977,-1.0,0.0,0.0,7645.0,-1332.0,1288.0,-196.0,91.0,-603.0,539.0,-43.0,-342.0,0.957266,-0.173766,0.230901,15330.0,-2508.0,2694.0,-13.0,13.0,8.0
2921.0,2815.0,2898.0,3155.0,3055.0,0.784302,-0.111694,-0.610229,-0.001038,-1.0,0.0,0.0,7654.0,-1343.0,1303.0,-189.0,81.0,-583.0,520.0,-49.0,-329.0,0.95744,-0.173938,0.230275,15240.0,-2750.0,2598.0,-8.0,21.0,12.0
2925.0,2803.0,2899.0,3167.0,3045.0,0.784241,-0.111755,-0.610352,-0.000977,-1.0,0.0,0.0,7656.0,-1347.0,1316.0,-188.0,79.0,-568.0,506.0,-48.0,-324.0,0.957543,-0.174094,0.230016,15338.0,-2726.0,2686.0,0.0,17.0,11.0
2915.0,2827.0,2911.0,3159.0,3039.0,0.784058,-0.111755,-0.610535,-0.000854,1.0,0.0,0.0,7654.0,-1404.0,1326.0,-190.0,23.0,-554.0,485.0,-100.0,-313.0,0.95758,-0.174202,0.229505,15170.0,-2964.0,2648.0,30.0,18.0,3.0
2927.0,2823.0,2899.0,3151.0,3055.0,0.783997,-0.111633,-0.610657,-0.000671,2.0,0.0,0.0,7642.0,-1430.0,1332.0,-203.0,-2.0,-546.0,470.0,-125.0,-319.0,0.957655,-0.17422,0.229287,15274.0,-3002.0,2724.0,54.0,1.0,4.0
2923.0,2815.0,2894.0,3151.0,3051.0,0.783752,-0.111084,-0.611023,-6.1e-05,4.0,-1.0,-1.0,7647.0,-1477.0,1330.0,-199.0,-51.0,-542.0,461.0,-171.0,-305.0,0.957795,-0.17405,0.228579,15308.0,-3002.0,2696.0,101.0,-5.0,-17.0
2925.0,2826.0,2915.0,3155.0,3053.0,0.783691,-0.110657,-0.611267,0.000183,4.0,-1.0,-1.0,7661.0,-1433.0,1347.0,-187.0,-10.0,-523.0,452.0,-125.0,-296.0,0.958049,-0.173665,0.22828,15406.0,-2530.0,2812.0,95.0,-7.0,-17.0
2919.0,2819.0,2902.0,3153.0,3055.0,0.783508,-0.110168,-0.611511,0.000305,0.0,0.0,-1.0,7697.0,-1346.0,1371.0,-152.0,71.0,-495.0,445.0,-36.0,-270.0,0.958181,-0.173009,0.227802,15412.0,-2544.0,2726.0,12.0,14.0,-6.0
2909.0,2811.0,2903.0,3155.0,3035.0,0.783447,-0.110168,-0.611633,0.000183,-1.0,0.0,-1.0,7693.0,-1341.0,1379.0,-157.0,74.0,-485.0,435.0,-32.0,-273.0,0.958325,-0.172846,0.227557,15334.0,-2676.0,2790.0,-14.0,16.0,-3.0
2923.0,2819.0,2913.0,3139.0,3055.0,0.783203,-0.110535,-0.611877,0.0,-2.0,-1.0,0.0,7653.0,-1348.0,1396.0,-198.0,70.0,-461.0,401.0,-38.0,-306.0,0.958449,-0.173142,0.226795,15164.0,-2748.0,2844.0,-39.0,-4.0,9.0
2925.0,2820.0,2915.0,3155.0,3055.0,0.78302,-0.110718,-0.612061,-6.1e-05,-2.0,-1.0,0.0,7640.0,-1358.0,1419.0,-212.0,61.0,-434.0,371.0,-44.0,-311.0,0.958525,-0.173314,0.226244,15178.0,-2800.0,2992.0,-41.0,-12.0,7.0
2927.0,2823.0,2910.0,3153.0,3047.0,0.782654,-0.111084,-0.612427,-0.000244,-2.0,-2.0,-1.0,7594.0,-1393.0,1423.0,-259.0,28.0,-421.0,342.0,-81.0,-347.0,0.958691,-0.173582,0.225141,15072.0,-2896.0,2794.0,-34.0,-30.0,-4.0
2921.0,2815.0,2895.0,3151.0,3055.0,0.78241,-0.111267,-0.612732,-0.000305,-2.0,-2.0,-1.0,7598.0,-1407.0,1408.0,-257.0,16.0,-429.0,349.0,-94.0,-345.0,0.958883,-0.173739,0.224344,15260.0,-2862.0,2728.0,-26.0,-39.0,-6.0
2922.0,2811.0,2903.0,3155.0,3039.0,0.781982,-0.111267,-0.613281,-0.000427,0.0,0.0,-1.0,7680.0,-1417.0,1361.0,-178.0,4.0,-465.0,402.0,-101.0,-275.0,0.959245,-0.173494,0.223002,15596.0,-2692.0,2648.0,13.0,5.0,-21.0
2925.0,2819.0,2902.0,3159.0,3051.0,0.781982,-0.111145,-0.613342,-0.000549,0.0,1.0,-1.0,7677.0,-1363.0,1338.0,-182.0,55.0,-488.0,430.0,-56.0,-292.0,0.959368,-0.173153,0.222955,15292.0,-2360.0,2524.0,5.0,31.0,-20.0
2927.0,2821.0,2901.0,3152.0,3047.0,0.78186,-0.111267,-0.613464,-0.000916,-2.0,1.0,-1.0,7661.0,-1354.0,1292.0,-199.0,62.0,-531.0,468.0,-59.0,-319.0,0.959491,-0.172867,0.222588,15256.0,-2840.0,2444.0,-31.0,31.0,-11.0
2911.0,2815.0,2895.0,3158.0,3053.0,0.781738,-0.111328,-0.613525,-0.001038,-1.0,1.0,-1.0,7650.0,-1370.0,1283.0,-209.0,45.0,-538.0,470.0,-78.0,-327.0,0.959464,-0.172786,0.222308,15234.0,-2814.0,2558.0,-11.0,24.0,-18.0
2911.0,2821.0,2910.0,3162.0,3047.0,0.781555,-0.111389,-0.613831,-0.001282,-1.0,0.0,-1.0,7652.0,-1349.0,1308.0,-210.0,64.0,-507.0,443.0,-54.0,-324.0,0.95977,-0.17254,0.221635,15414.0,-2650.0,2776.0,-22.0,2.0,-15.0
2927.0,2819.0,2901.0,3157.0,3059.0,0.781433,-0.11145,-0.613953,-0.001465,-1.0,0.0,-1.0,7660.0,-1345.0,1330.0,-203.0,67.0,-482.0,421.0,-46.0,-313.0,0.959852,-0.172383,0.221281,15320.0,-2644.0,2780.0,-18.0,4.0,-12.0
2927.0,2815.0,2911.0,3167.0,3051.0,0.78125,-0.11145,-0.614197,-0.001587,-1.0,0.0,-1.0,7669.0,-1325.0,1362.0,-195.0,85.0,-445.0,390.0,-21.0,-300.0,0.960036,-0.172192,0.220695,15422.0,-2552.0,2816.0,-1.0,2.0,-4.0
2927.0,2815.0,2893.0,3150.0,3051.0,0.781128,-0.11145,-0.614319,-0.001648,-1.0,0.0,0.0,7698.0,-1298.0,1397.0,-167.0,111.0,-408.0,365.0,13.0,-269.0,0.960091,-0.172089,0.220355,15578.0,-2404.0,2996.0,-2.0,11.0,1.0
2915.0,2819.0,2903.0,3159.0,3061.0,0.781128,-0.11145,-0.614319,-0.001831,-1.0,1.0,0.0,7687.0,-1278.0,1395.0,-178.0,129.0,-410.0,367.0,29.0,-283.0,0.960131,-0.171864,0.220355,15196.0,-2578.0,2724.0,-10.0,33.0,2.0
2922.0,2822.0,2923.0,3151.0,3055.0,0.781067,-0.11145,-0.61438,-0.001831,-1.0,0.0,0.0,7656.0,-1289.0,1378.0,-209.0,118.0,-425.0,373.0,12.0,-314.0,0.960152,-0.17185,0.220185,15144.0,-2690.0,2668.0,-6.0,15.0,5.0
2925.0,2825.0,2913.0,3152.0,3051.0,0.780823,-0.111511,-0.614685,-0.001648,1.0,-1.0,0.0,7647.0,-1305.0,1378.0,-219.0,104.0,-419.0,363.0,-1.0,-320.0,0.960288,-0.172115,0.219414,15326.0,-2518.0,2778.0,23.0,-12.0,18.0
2929.0,2815.0,2896.0,3149.0,3043.0,0.780701,-0.11145,-0.614868,-0.001526,0.0,-1.0,0.0,7650.0,-1288.0,1390.0,-217.0,122.0,-404.0,351.0,18.0,-317.0,0.960396,-0.172142,0.219012,15328.0,-2496.0,2882.0,13.0,-15.0,17.0
2915.0,2815.0,2885.0,3155.0,3039.0,0.780396,-0.111633,-0.615234,-0.001465,-1.0,-1.0,0.0,7668.0,-1326.0,1383.0,-201.0,86.0,-403.0,350.0,-14.0,-295.0,0.960579,-0.172434,0.218044,15370.0,-2826.0,2698.0,-15.0,-18.0,21.0
2923.0,2819.0,2903.0,3153.0,3054.0,0.780212,-0.111816,-0.615417,-0.001404,-1.0,-1.0,0.0,7674.0,-1364.0,1370.0,-195.0,51.0,-411.0,354.0,-49.0,-285.0,0.960627,-0.172753,0.217492,15376.0,-2958.0,2648.0,-9.0,-10.0,9.0
2927.0,2822.0,2907.0,3153.0,3051.0,0.780029,-0.111816,-0.615662,-0.001343,0.0,0.0,-1.0,7682.0,-1407.0,1342.0,-188.0,8.0,-434.0,372.0,-94.0,-276.0,0.960768,-0.172787,0.216905,15254.0,-2826.0,2540.0,12.0,20.0,-8.0
2927.0,2815.0,2901.0,3159.0,3039.0,0.779968,-0.111816,-0.615784,-0.001343,0.0,0.0,-1.0,7661.0,-1405.0,1327.0,-210.0,10.0,-447.0,379.0,-97.0,-300.0,0.960884,-0.172773,0.21666,15236.0,-2808.0,2600.0,4.0,14.0,-10.0
2910.0,2814.0,2911.0,3155.0,3051.0,0.779785,-0.111816,-0.616028,-0.001404,0.0,0.0,-1.0,7622.0,-1395.0,1314.0,-250.0,19.0,-456.0,380.0,-95.0,-342.0,0.961053,-0.172656,0.216074,15082.0,-2702.0,2638.0,3.0,1.0,-2.0
2927.0,2819.0,2911.0,3165.0,3053.0,0.779602,-0.111877,-0.616211,-0.001404,-1.0,-1.0,0.0,7602.0,-1375.0,1326.0,-271.0,39.0,-439.0,361.0,-76.0,-361.0,0.961113,-0.17271,0.215549,15112.0,-2612.0,2748.0,-3.0,-17.0,0.0
2927.0,2819.0,2906.0,3159.0,3039.0,0.779175,-0.111938,-0.616699,-0.001343,0.0,-2.0,0.0,7624.0,-1349.0,1346.0,-251.0,66.0,-409.0,342.0,-41.0,-340.0,0.961334,-0.172783,0.214267,15394.0,-2542.0,2760.0,4.0,-33.0,9.0
2911.0,2817.0,2905.0,3159.0,3055.0,0.779053,-0.111938,-0.616882,-0.001343,0.0,-1.0,0.0,7661.0,-1318.0,1359.0,-215.0,97.0,-392.0,338.0,-3.0,-307.0,0.961468,-0.172755,0.213851,15546.0,-2450.0,2802.0,1.0,-18.0,9.0
2927.0,2813.0,2899.0,3155.0,3057.0,0.778809,-0.112061,-0.617188,-0.001404,-1.0,0.0,0.0,7687.0,-1315.0,1354.0,-190.0,100.0,-391.0,344.0,2.0,-283.0,0.961656,-0.172815,0.213067,15470.0,-2764.0,2704.0,-14.0,5.0,12.0
2927.0,2815.0,2916.0,3159.0,3055.0,0.778748,-0.112122,-0.617188,-0.001343,0.0,0.0,0.0,7699.0,-1335.0,1345.0,-178.0,81.0,-399.0,352.0,-15.0,-270.0,0.961568,-0.172971,0.212958,15430.0,-2732.0,2630.0,8.0,22.0,10.0
2922.0,2819.0,2915.0,3158.0,3053.0,0.778687,-0.112122,-0.617371,-0.001282,-1.0,0.0,0.0,7668.0,-1336.0,1335.0,-210.0,81.0,-406.0,351.0,-21.0,-302.0,0.961764,-0.173033,0.212637,15326.0,-2726.0,2688.0,-2.0,8.0,7.0
2927.0,2815.0,2910.0,3158.0,3055.0,0.778564,-0.112183,-0.617432,-0.001282,-1.0,0.0,0.0,7669.0,-1355.0,1341.0,-209.0,63.0,-398.0,341.0,-37.0,-296.0,0.961708,-0.1731,0.212357,15300.0,-2824.0,2716.0,-2.0,9.0,13.0
2927.0,2813.0,2910.0,3155.0,3056.0,0.778381,-0.112305,-0.617676,-0.00116,-1.0,-1.0,0.0,7646.0,-1361.0,1355.0,-233.0,59.0,-379.0,317.0,-41.0,-314.0,0.961835,-0.173399,0.211743,15270.0,-2740.0,2772.0,-6.0,-8.0,10.0
2919.0,2821.0,2914.0,3155.0,3054.0,0.778259,-0.112427,-0.617798,-0.00116,-1.0,-1.0,0.0,7644.0,-1368.0,1355.0,-235.0,53.0,-376.0,313.0,-46.0,-314.0,0.961875,-0.173561,0.211375,15290.0,-2800.0,2724.0,-14.0,-11.0,9.0
2923.0,2815.0,2907.0,3163.0,3056.0,0.778015,-0.11261,-0.618103,-0.00116,0.0,-1.0,0.0,7671.0,-1398.0,1386.0,-210.0,25.0,-339.0,279.0,-64.0,-277.0,0.962048,-0.173791,0.210577,15424.0,-2832.0,2886.0,2.0,-9.0,2.0
2929.0,2819.0,2911.0,3155.0,3039.0,0.777893,-0.112549,-0.618225,-0.001099,0.0,-1.0,-1.0,7683.0,-1399.0,1386.0,-198.0,24.0,-336.0,279.0,-63.0,-265.0,0.962073,-0.173744,0.210249,15442.0,-2768.0,2740.0,14.0,-6.0,-1.0
2926.0,2815.0,2927.0,3159.0,3049.0,0.777771,-0.112366,-0.618469,-0.000916,1.0,-1.0,-1.0,7680.0,-1384.0,1383.0,-202.0,38.0,-335.0,280.0,-49.0,-271.0,0.962261,-0.173657,0.209798,15288.0,-2736.0,2774.0,37.0,-3.0,-1.0
2926.0,2821.0,2907.0,3153.0,3047.0,0.777649,-0.112183,-0.618591,-0.000732,2.0,-1.0,0.0,7663.0,-1400.0,1374.0,-219.0,21.0,-342.0,280.0,-69.0,-286.0,0.962258,-0.173571,0.209498,15224.0,-2930.0,2676.0,57.0,-14.0,3.0
2928.0,2818.0,2911.0,3155.0,3047.0,0.777405,-0.111572,-0.619019,0.0,4.0,-2.0,0.0,7654.0,-1400.0,1380.0,-230.0,21.0,-329.0,265.0,-68.0,-293.0,0.962456,-0.173474,0.208726,15378.0,-2612.0,2800.0,103.0,-39.0,11.0
2921.0,2815.0,2897.0,3152.0,3043.0,0.777222,-0.111206,-0.619263,0.000305,3.0,-2.0,0.0,7667.0,-1338.0,1398.0,-218.0,81.0,-307.0,255.0,-4.0,-287.0,0.962541,-0.173241,0.208221,15376.0,-2302.0,2908.0,74.0,-35.0,14.0
2923.0,2811.0,2903.0,3155.0,3051.0,0.776855,-0.111145,-0.619751,0.000427,-1.0,-2.0,0.0,7666.0,-1318.0,1386.0,-221.0,100.0,-310.0,261.0,13.0,-294.0,0.962819,-0.173217,0.20706,15314.0,-2748.0,2730.0,-14.0,-31.0,19.0
2925.0,2819.0,2901.0,3151.0,3046.0,0.776672,-0.111328,-0.619995,0.000427,-2.0,-2.0,0.0,7659.0,-1320.0,1360.0,-229.0,100.0,-331.0,279.0,8.0,-306.0,0.962971,-0.173461,0.206432,15296.0,-2638.0,2572.0,-31.0,-30.0,12.0
2925.0,2818.0,2911.0,3159.0,3055.0,0.776306,-0.111816,-0.620361,6.1e-05,-3.0,0.0,-1.0,7712.0,-1374.0,1302.0,-178.0,48.0,-379.0,330.0,-43.0,-257.0,0.963167,-0.173683,0.2053,15572.0,-2970.0,2440.0,-63.0,6.0,-9.0
2915.0,2819.0,2911.0,3155.0,3063.0,0.776184,-0.112061,-0.620422,-0.000183,-3.0,1.0,-1.0,7697.0,-1398.0,1262.0,-193.0,25.0,-417.0,360.0,-75.0,-275.0,0.963165,-0.173732,0.20498,15256.0,-2902.0,2282.0,-54.0,28.0,-19.0
2911.0,2815.0,2898.0,3147.0,3039.0,0.776062,-0.112366,-0.620544,-0.000671,-2.0,1.0,-1.0,7652.0,-1397.0,1234.0,-239.0,24.0,-441.0,373.0,-86.0,-324.0,0.963313,-0.173572,0.204571,15206.0,-2744.0,2464.0,-39.0,29.0,-21.0
2921.0,2822.0,2911.0,3155.0,3053.0,0.776062,-0.112488,-0.620544,-0.000854,-2.0,1.0,-1.0,7640.0,-1381.0,1249.0,-251.0,40.0,-426.0,358.0,-70.0,-335.0,0.963354,-0.173535,0.204544,15176.0,-2630.0,2624.0,-27.0,30.0,-16.0
2928.0,2819.0,2911.0,3163.0,3051.0,0.776001,-0.112549,-0.620605,-0.00116,-1.0,0.0,-1.0,7629.0,-1327.0,1327.0,-263.0,92.0,-347.0,286.0,-7.0,-340.0,0.963442,-0.173237,0.20436,15314.0,-2466.0,2870.0,-20.0,4.0,-3.0
2927.0,2819.0,2899.0,3155.0,3053.0,0.77594,-0.11261,-0.620728,-0.001221,-2.0,-1.0,0.0,7644.0,-1295.0,1356.0,-249.0,124.0,-315.0,263.0,30.0,-325.0,0.96357,-0.173242,0.204101,15400.0,-2424.0,2886.0,-24.0,-3.0,3.0
2921.0,2819.0,2911.0,3155.0,3055.0,0.775818,-0.112732,-0.620789,-0.001465,-1.0,0.0,0.0,7709.0,-1260.0,1409.0,-184.0,158.0,-260.0,230.0,82.0,-257.0,0.963568,-0.1731,0.203809,15530.0,-2418.0,2924.0,-22.0,13.0,7.0
2923.0,2823.0,2909.0,3155.0,3043.0,0.775818,-0.112854,-0.620789,-0.001587,-2.0,0.0,0.0,7712.0,-1247.0,1411.0,-181.0,171.0,-258.0,231.0,96.0,-256.0,0.963596,-0.173138,0.203781,15410.0,-2424.0,2850.0,-24.0,17.0,12.0
2927.0,2819.0,2911.0,3159.0,3051.0,0.775696,-0.112976,-0.62085,-0.001648,0.0,0.0,0.0,7691.0,-1302.0,1390.0,-202.0,117.0,-276.0,236.0,37.0,-271.0,0.963553,-0.173224,0.203489,15222.0,-2862.0,2680.0,4.0,11.0,13.0
2913.0,2815.0,2911.0,3151.0,3043.0,0.775635,-0.112976,-0.620972,-0.001465,1.0,-1.0,0.0,7660.0,-1332.0,1365.0,-234.0,88.0,-299.0,246.0,0.0,-301.0,0.963625,-0.173437,0.203242,15192.0,-2822.0,2618.0,32.0,-11.0,14.0
2928.0,2815.0,2896.0,3149.0,3043.0,0.77533,-0.112732,-0.621399,-0.000916,2.0,-2.0,0.0,7638.0,-1379.0,1329.0,-257.0,43.0,-328.0,263.0,-51.0,-321.0,0.963784,-0.173671,0.202292,15212.0,-2926.0,2532.0,62.0,-35.0,17.0
2926.0,2823.0,2911.0,3191.0,3055.0,0.775146,-0.112549,-0.621643,-0.000549,3.0,-2.0,0.0,7644.0,-1406.0,1315.0,-251.0,17.0,-337.0,270.0,-77.0,-312.0,0.963853,-0.173801,0.201745,15340.0,-2972.0,2570.0,76.0,-38.0,12.0
2922.0,2818.0,2901.0,3157.0,3051.0,0.774963,-0.111877,-0.622009,6.1e-05,3.0,-1.0,-1.0,7686.0,-1410.0,1319.0,-211.0,11.0,-328.0,270.0,-75.0,-271.0,0.964055,-0.173478,0.201156,15546.0,-2658.0,2674.0,80.0,-5.0,-12.0
2923.0,2820.0,2907.0,3153.0,3043.0,0.774963,-0.111633,-0.62207,0.000122,1.0,0.0,-1.0,7705.0,-1371.0,1327.0,-193.0,47.0,-320.0,271.0,-36.0,-258.0,0.964136,-0.173175,0.201135,15484.0,-2514.0,2694.0,37.0,20.0,-16.0
2919.0,2815.0,2901.0,3153.0,3039.0,0.774963,-0.111633,-0.62207,-0.000244,-2.0,1.0,-1.0,7680.0,-1344.0,1314.0,-218.0,70.0,-333.0,281.0,-19.0,-289.0,0.964218,-0.17272,0.201135,15232.0,-2670.0,2620.0,-44.0,31.0,-14.0
2919.0,2821.0,2901.0,3166.0,3051.0,0.774902,-0.111816,-0.62207,-0.000488,-3.0,0.0,-1.0,7659.0,-1356.0,1304.0,-239.0,58.0,-342.0,283.0,-35.0,-309.0,0.964197,-0.172686,0.200999,15210.0,-2792.0,2512.0,-49.0,22.0,-6.0
2925.0,2815.0,2902.0,3157.0,3051.0,0.77478,-0.112122,-0.622192,-0.000732,-2.0,0.0,0.0,7646.0,-1351.0,1326.0,-253.0,64.0,-317.0,257.0,-27.0,-318.0,0.964289,-0.172828,0.20059,15276.0,-2642.0,2754.0,-27.0,9.0,2.0
2926.0,2819.0,2909.0,3155.0,3047.0,0.77478,-0.112244,-0.622192,-0.000793,-1.0,0.0,0.0,7650.0,-1334.0,1356.0,-249.0,82.0,-287.0,231.0,-4.0,-311.0,0.964303,-0.172941,0.200563,15322.0,-2566.0,2886.0,-22.0,6.0,8.0
2925.0,2815.0,2907.0,3152.0,3053.0,0.774719,-0.112366,-0.622253,-0.000854,0.0,0.0,0.0,7672.0,-1337.0,1396.0,-227.0,80.0,-245.0,196.0,3.0,-281.0,0.964335,-0.17304,0.200365,15398.0,-2688.0,2888.0,1.0,12.0,5.0
2927.0,2820.0,2915.0,3153.0,3051.0,0.774719,-0.112305,-0.622253,-0.000793,0.0,0.0,0.0,7677.0,-1328.0,1402.0,-222.0,89.0,-239.0,192.0,14.0,-277.0,0.964322,-0.173022,0.200379,15400.0,-2572.0,2832.0,14.0,17.0,4.0
2926.0,2822.0,2911.0,3157.0,3055.0,0.77478,-0.112244,-0.622192,-0.000793,0.0,1.0,0.0,7689.0,-1306.0,1392.0,-210.0,110.0,-251.0,210.0,34.0,-271.0,0.964303,-0.172941,0.200563,15390.0,-2614.0,2674.0,5.0,25.0,9.0
2927.0,2815.0,2903.0,3155.0,3051.0,0.77478,-0.112244,-0.622192,-0.000732,0.0,0.0,0.0,7676.0,-1313.0,1379.0,-223.0,104.0,-264.0,218.0,24.0,-285.0,0.964289,-0.173017,0.200563,15248.0,-2668.0,2648.0,1.0,22.0,11.0
2919.0,2815.0,2902.0,3151.0,3055.0,0.774658,-0.112427,-0.622314,-0.000671,-1.0,-1.0,0.0,7647.0,-1369.0,1336.0,-252.0,51.0,-303.0,242.0,-38.0,-312.0,0.964313,-0.173349,0.200181,15238.0,-2914.0,2608.0,0.0,-1.0,13.0
2927.0,2821.0,2911.0,3159.0,3055.0,0.774536,-0.112488,-0.622498,-0.00061,-1.0,-1.0,0.0,7648.0,-1377.0,1335.0,-252.0,44.0,-301.0,239.0,-44.0,-310.0,0.964431,-0.173492,0.19975,15320.0,-2778.0,2732.0,-5.0,-10.0,8.0
2925.0,2821.0,2909.0,3157.0,3051.0,0.774292,-0.112671,-0.622742,-0.000671,-2.0,-1.0,-1.0,7660.0,-1397.0,1344.0,-241.0,25.0,-286.0,225.0,-59.0,-293.0,0.964519,-0.173644,0.199027,15418.0,-2904.0,2738.0,-24.0,-12.0,-3.0
2923.0,2815.0,2902.0,3155.0,3053.0,0.774231,-0.112793,-0.622803,-0.000732,-1.0,-1.0,-1.0,7682.0,-1418.0,1369.0,-219.0,5.0,-259.0,201.0,-71.0,-263.0,0.964552,-0.173743,0.198829,15468.0,-2950.0,2892.0,-11.0,-2.0,-7.0
2919.0,2815.0,2903.0,3153.0,3051.0,0.774231,-0.11261,-0.622803,-0.000793,0.0,1.0,-1.0,7697.0,-1400.0,1423.0,-204.0,20.0,-206.0,155.0,-44.0,-241.0,0.964565,-0.173384,0.19887,15336.0,-2688.0,2992.0,15.0,24.0,-21.0
2923.0,2819.0,2911.0,3155.0,3055.0,0.774292,-0.112488,-0.622742,-0.000854,0.0,0.0,-1.0,7664.0,-1375.0,1429.0,-237.0,43.0,-201.0,146.0,-26.0,-276.0,0.96456,-0.173133,0.199068,15138.0,-2588.0,2888.0,15.0,19.0,-21.0
2922.0,2817.0,2911.0,3158.0,3053.0,0.774231,-0.112305,-0.622864,-0.000916,0.0,-1.0,-1.0,7625.0,-1347.0,1422.0,-277.0,68.0,-207.0,147.0,-8.0,-320.0,0.964686,-0.172759,0.198863,15136.0,-2576.0,2850.0,15.0,-8.0,-5.0
2921.0,2815.0,2909.0,3152.0,3047.0,0.774109,-0.112244,-0.622986,-0.000854,0.0,-1.0,0.0,7622.0,-1327.0,1412.0,-280.0,87.0,-214.0,156.0,8.0,-327.0,0.96471,-0.172713,0.198535,15280.0,-2546.0,2726.0,9.0,-17.0,3.0
2919.0,2814.0,2896.0,3153.0,3051.0,0.773865,-0.112244,-0.623291,-0.000977,-1.0,-1.0,0.0,7656.0,-1295.0,1369.0,-248.0,118.0,-251.0,203.0,36.0,-309.0,0.964905,-0.172505,0.197777,15404.0,-2610.0,2550.0,-19.0,-10.0,0.0
2923.0,2819.0,2911.0,3155.0,3055.0,0.773743,-0.112366,-0.623413,-0.001038,-1.0,-1.0,-1.0,7667.0,-1320.0,1345.0,-237.0,93.0,-272.0,222.0,10.0,-298.0,0.964956,-0.172591,0.197409,15426.0,-2816.0,2552.0,-22.0,-6.0,-2.0
2923.0,2818.0,2910.0,3159.0,3051.0,0.77356,-0.112427,-0.623657,-0.00116,-1.0,0.0,-1.0,7694.0,-1337.0,1302.0,-212.0,76.0,-310.0,262.0,-9.0,-278.0,0.965133,-0.172491,0.196808,15448.0,-2650.0,2514.0,-1.0,10.0,-5.0
2919.0,2815.0,2895.0,3157.0,3045.0,0.77356,-0.112427,-0.623657,-0.001221,-1.0,1.0,-1.0,7709.0,-1323.0,1304.0,-197.0,89.0,-308.0,265.0,5.0,-266.0,0.965147,-0.172415,0.196808,15514.0,-2532.0,2594.0,-4.0,25.0,-3.0
2922.0,2814.0,2903.0,3155.0,3047.0,0.773682,-0.112427,-0.623535,-0.001404,-1.0,2.0,-1.0,7703.0,-1309.0,1310.0,-203.0,101.0,-305.0,263.0,16.0,-273.0,0.965151,-0.172214,0.197149,15312.0,-2574.0,2676.0,-13.0,49.0,-2.0
2923.0,2818.0,2911.0,3159.0,3055.0,0.773743,-0.112488,-0.623413,-0.001465,-1.0,1.0,-1.0,7655.0,-1302.0,1315.0,-250.0,109.0,-301.0,250.0,18.0,-319.0,0.965052,-0.172247,0.197382,15008.0,-2520.0,2682.0,-13.0,42.0,-1.0
2897.0,2819.0,2910.0,3158.0,3055.0,0.773743,-0.112732,-0.623413,-0.001587,-2.0,0.0,0.0,7598.0,-1305.0,1351.0,-307.0,107.0,-265.0,202.0,15.0,-367.0,0.96508,-0.172472,0.197328,15064.0,-2696.0,2736.0,-26.0,1.0,18.0
2923.0,2815.0,2901.0,3151.0,3051.0,0.773621,-0.112854,-0.623474,-0.001587,-1.0,-1.0,0.0,7605.0,-1328.0,1376.0,-300.0,86.0,-238.0,175.0,0.0,-351.0,0.965023,-0.172634,0.197035,15300.0,-2824.0,2892.0,-16.0,-16.0,17.0
2923.0,2815.0,2909.0,3153.0,3087.0,0.773438,-0.113037,-0.623718,-0.001465,-1.0,-1.0,0.0,7645.0,-1346.0,1386.0,-261.0,71.0,-222.0,166.0,-6.0,-307.0,0.965145,-0.173027,0.196406,15420.0,-2688.0,2754.0,-2.0,-15.0,16.0
2925.0,2819.0,2911.0,3154.0,3047.0,0.773376,-0.113098,-0.623779,-0.001404,0.0,-1.0,0.0,7655.0,-1363.0,1396.0,-251.0,55.0,-211.0,155.0,-18.0,-293.0,0.96515,-0.173184,0.196221,15360.0,-2846.0,2842.0,1.0,-9.0,10.0
2925.0,2821.0,2909.0,3158.0,3055.0,0.773254,-0.113098,-0.623901,-0.001282,0.0,-1.0,0.0,7667.0,-1401.0,1406.0,-239.0,18.0,-198.0,140.0,-50.0,-272.0,0.965159,-0.173308,0.19588,15386.0,-2846.0,2890.0,17.0,-1.0,0.0
2923.0,2815.0,2903.0,3155.0,3051.0,0.773254,-0.113037,-0.623962,-0.001221,0.0,0.0,-1.0,7661.0,-1404.0,1410.0,-246.0,15.0,-194.0,134.0,-53.0,-278.0,0.965239,-0.17329,0.195817,15248.0,-2786.0,2852.0,17.0,3.0,-5.0
2926.0,2815.0,2903.0,3249.0,3047.0,0.773193,-0.112915,-0.624084,-0.00116,0.0,0.0,-1.0,7675.0,-1401.0,1396.0,-233.0,17.0,-206.0,149.0,-52.0,-268.0,0.965338,-0.173163,0.195598,15376.0,-2792.0,2716.0,11.0,8.0,-8.0
2923.0,2821.0,2909.0,3159.0,3047.0,0.773132,-0.112854,-0.624084,-0.001221,0.0,0.0,-1.0,7668.0,-1394.0,1381.0,-239.0,23.0,-220.0,162.0,-49.0,-277.0,0.965275,-0.172979,0.195518,15284.0,-2744.0,2722.0,5.0,12.0,-9.0
2925.0,2819.0,2907.0,3159.0,3051.0,0.773071,-0.112854,-0.624207,-0.001282,-1.0,-1.0,-1.0,7638.0,-1374.0,1359.0,-270.0,42.0,-240.0,177.0,-38.0,-314.0,0.965402,-0.172888,0.195271,15208.0,-2648.0,2730.0,-3.0,-3.0,-5.0
2922.0,2815.0,2906.0,3153.0,3043.0,0.772949,-0.112854,-0.624329,-0.001282,-1.0,-1.0,-1.0,7618.0,-1363.0,1356.0,-290.0,53.0,-240.0,175.0,-30.0,-335.0,0.965438,-0.17286,0.19493,15126.0,-2682.0,2722.0,-9.0,-19.0,-3.0
2923.0,2815.0,2901.0,3153.0,3047.0,0.772644,-0.112854,-0.624695,-0.001404,-1.0,-1.0,-1.0,7661.0,-1335.0,1378.0,-249.0,79.0,-211.0,160.0,5.0,-295.0,0.96565,-0.172638,0.194001,15502.0,-2610.0,2850.0,-8.0,-22.0,-6.0
2923.0,2823.0,2909.0,3151.0,3055.0,0.772583,-0.112854,-0.624817,-0.001465,-1.0,-1.0,-1.0,7681.0,-1315.0,1390.0,-230.0,98.0,-197.0,153.0,28.0,-277.0,0.965776,-0.172548,0.193754,15474.0,-2492.0,2850.0,0.0,-7.0,-8.0
2919.0,2821.0,2910.0,3159.0,3053.0,0.772522,-0.112732,-0.624878,-0.001587,-1.0,0.0,0.0,7685.0,-1276.0,1391.0,-227.0,134.0,-195.0,157.0,64.0,-280.0,0.965822,-0.172193,0.193612,15252.0,-2440.0,2680.0,-3.0,5.0,1.0
2923.0,2819.0,2909.0,3154.0,3039.0,0.772461,-0.112732,-0.625,-0.001648,-1.0,-1.0,0.0,7666.0,-1259.0,1381.0,-247.0,150.0,-203.0,163.0,76.0,-303.0,0.965948,-0.172102,0.193365,15268.0,-2446.0,2760.0,-8.0,-10.0,9.0
2923.0,2819.0,2903.0,3153.0,3047.0,0.772278,-0.112854,-0.625183,-0.001587,0.0,-1.0,0.0,7691.0,-1281.0,1362.0,-222.0,130.0,-217.0,179.0,57.0,-278.0,0.965988,-0.172325,0.192826,15474.0,-2648.0,2736.0,6.0,-4.0,18.0
2923.0,2819.0,2910.0,3155.0,3055.0,0.772217,-0.112854,-0.625244,-0.001465,0.0,0.0,0.0,7688.0,-1292.0,1347.0,-225.0,120.0,-231.0,191.0,45.0,-282.0,0.965979,-0.172464,0.192655,15296.0,-2646.0,2588.0,15.0,9.0,19.0
2927.0,2815.0,2909.0,3157.0,3051.0,0.772156,-0.112854,-0.625366,-0.001282,0.0,0.0,0.0,7676.0,-1321.0,1323.0,-237.0,93.0,-253.0,205.0,13.0,-293.0,0.96605,-0.172679,0.192407,15384.0,-2758.0,2586.0,7.0,4.0,15.0
2919.0,2815.0,2906.0,3151.0,3051.0,0.772095,-0.112915,-0.625366,-0.001221,0.0,0.0,0.0,7675.0,-1335.0,1317.0,-238.0,80.0,-258.0,208.0,0.0,-293.0,0.96596,-0.172835,0.192299,15328.0,-2730.0,2606.0,9.0,9.0,14.0
2923.0,2814.0,2905.0,3159.0,3047.0,0.772095,-0.112854,-0.625427,-0.001099,0.0,0.0,0.0,7658.0,-1333.0,1339.0,-255.0,83.0,-235.0,183.0,4.0,-305.0,0.966026,-0.172894,0.192236,15302.0,-2578.0,2878.0,10.0,5.0,8.0
2919.0,2819.0,2910.0,3155.0,3051.0,0.772034,-0.112915,-0.625488,-0.001099,-2.0,-1.0,0.0,7659.0,-1295.0,1356.0,-254.0,122.0,-217.0,171.0,45.0,-308.0,0.966044,-0.172974,0.192052,15360.0,-2452.0,2878.0,-23.0,-1.0,18.0
2923.0,2815.0,2907.0,3187.0,3051.0,0.771973,-0.113342,-0.625488,-0.001221,-2.0,0.0,0.0,7678.0,-1344.0,1382.0,-235.0,77.0,-189.0,142.0,8.0,-276.0,0.965996,-0.173467,0.191861,15316.0,-2894.0,2868.0,-26.0,18.0,17.0
2925.0,2815.0,2901.0,3155.0,3051.0,0.771973,-0.113464,-0.625488,-0.001221,-1.0,0.0,0.0,7662.0,-1366.0,1370.0,-251.0,56.0,-201.0,147.0,-16.0,-290.0,0.965997,-0.173656,0.191833,15308.0,-2892.0,2844.0,-6.0,7.0,11.0
2923.0,2815.0,2898.0,3155.0,3051.0,0.771973,-0.113464,-0.625427,-0.001099,0.0,0.0,0.0,7663.0,-1357.0,1372.0,-249.0,66.0,-200.0,148.0,-5.0,-290.0,0.965875,-0.173809,0.19191,15238.0,-2646.0,2634.0,11.0,14.0,11.0
2923.0,2819.0,2911.0,3175.0,3055.0,0.771973,-0.113464,-0.625488,-0.001038,0.0,0.0,0.0,7662.0,-1371.0,1375.0,-251.0,53.0,-196.0,142.0,-18.0,-289.0,0.965955,-0.173885,0.191833,15358.0,-2864.0,2842.0,13.0,10.0,5.0
2919.0,2817.0,2907.0,3159.0,3055.0,0.771973,-0.113342,-0.625488,-0.000793,1.0,0.0,0.0,7642.0,-1367.0,1390.0,-270.0,58.0,-181.0,124.0,-13.0,-305.0,0.9659,-0.174002,0.19186,15208.0,-2598.0,2856.0,24.0,5.0,7.0
2929.0,2815.0,2901.0,3151.0,3047.0,0.771973,-0.113281,-0.625488,-0.000793,-1.0,-1.0,0.0,7643.0,-1346.0,1412.0,-269.0,78.0,-159.0,106.0,10.0,-303.0,0.965899,-0.173907,0.191874,15294.0,-2602.0,2908.0,-2.0,0.0,11.0
2921.0,2815.0,2911.0,3152.0,3052.0,0.771912,-0.113525,-0.625549,-0.000793,-1.0,-1.0,0.0,7640.0,-1381.0,1434.0,-272.0,46.0,-135.0,77.0,-17.0,-296.0,0.965918,-0.17427,0.191648,15300.0,-2980.0,2948.0,-19.0,-6.0,10.0
2927.0,2819.0,2910.0,3155.0,3055.0,0.771851,-0.113586,-0.625549,-0.000793,-1.0,-1.0,0.0,7639.0,-1403.0,1424.0,-273.0,25.0,-145.0,84.0,-39.0,-295.0,0.965841,-0.174351,0.19154,15242.0,-2896.0,2754.0,-5.0,-2.0,3.0
2923.0,2815.0,2911.0,3154.0,3051.0,0.77179,-0.113647,-0.625671,-0.000854,-1.0,0.0,-1.0,7654.0,-1379.0,1404.0,-259.0,49.0,-162.0,107.0,-17.0,-289.0,0.965967,-0.174355,0.191279,15384.0,-2670.0,2708.0,-17.0,7.0,-2.0
2923.0,2815.0,2903.0,3153.0,3051.0,0.771729,-0.11377,-0.625671,-0.000977,-2.0,0.0,0.0,7646.0,-1371.0,1383.0,-266.0,57.0,-182.0,126.0,-14.0,-301.0,0.965919,-0.174376,0.191158,15230.0,-2710.0,2698.0,-32.0,11.0,0.0
2925.0,2815.0,2907.0,3153.0,3053.0,0.771606,-0.114075,-0.625793,-0.00116,-2.0,-1.0,0.0,7618.0,-1388.0,1357.0,-295.0,42.0,-205.0,140.0,-37.0,-331.0,0.965997,-0.17459,0.190747,15254.0,-2804.0,2640.0,-27.0,-6.0,0.0
2925.0,2821.0,2909.0,3157.0,3053.0,0.771545,-0.114197,-0.625854,-0.001221,-1.0,-1.0,-1.0,7625.0,-1388.0,1351.0,-288.0,43.0,-209.0,145.0,-35.0,-325.0,0.966029,-0.174688,0.190549,15314.0,-2766.0,2630.0,-17.0,-7.0,-4.0
2919.0,2819.0,2911.0,3159.0,3051.0,0.771484,-0.114136,-0.625977,-0.001343,0.0,0.0,-1.0,7695.0,-1359.0,1366.0,-219.0,69.0,-193.0,148.0,2.0,-260.0,0.966169,-0.174427,0.190316,15548.0,-2550.0,2822.0,7.0,22.0,-10.0
7.0,0.127402,15826.0,-2648.0,2192.0,8.0,-42.0,13.0,,,,,,,,,,,,,,,,,,,,,,
2923.0,2823.0,2911.0,3155.0,3051.0,0.748657,-0.058228,-0.657837,0.058411,-1.0,1.0,0.0,7803.0,-1233.0,1062.0,-210.0,110.0,15.0,-42.0,74.0,-221.0,0.978186,-0.164034,0.12776,15508.0,-2202.0,1982.0,-16.0,38.0,0.0
2919.0,2817.0,2910.0,3154.0,3047.0,0.748779,-0.05835,-0.657715,0.058228,-2.0,1.0,0.0,7781.0,-1248.0,1032.0,-232.0,95.0,-17.0,-13.0,55.0,-244.0,0.978171,-0.163976,0.128067,15400.0,-2652.0,1792.0,-33.0,37.0,1.0
2919.0,2819.0,2903.0,3155.0,3047.0,0.748901,-0.058411,-0.657593,0.058105,-1.0,0.0,-1.0,7693.0,-1274.0,974.0,-320.0,68.0,-77.0,34.0,13.0,-334.0,0.978156,-0.163907,0.128389,15118.0,-2612.0,1828.0,-11.0,12.0,-12.0
2922.0,2821.0,2911.0,3155.0,3053.0,0.74884,-0.058533,-0.657593,0.058044,-1.0,-1.0,-1.0,7659.0,-1288.0,957.0,-353.0,55.0,-93.0,46.0,-4.0,-366.0,0.978069,-0.164003,0.128277,15146.0,-2646.0,1840.0,-18.0,-12.0,-4.0
2923.0,2823.0,2909.0,3157.0,3053.0,0.748596,-0.058716,-0.657898,0.057983,-1.0,-2.0,0.0,7678.0,-1313.0,969.0,-335.0,32.0,-75.0,31.0,-24.0,-342.0,0.978191,-0.164203,0.127481,15494.0,-2748.0,2044.0,-20.0,-29.0,5.0
2919.0,2821.0,2909.0,3153.0,3051.0,0.748474,-0.058838,-0.657959,0.057922,-1.0,-2.0,0.0,7697.0,-1316.0,993.0,-315.0,29.0,-48.0,7.0,-23.0,-318.0,0.978114,-0.164298,0.127197,15504.0,-2638.0,2130.0,-16.0,-23.0,5.0
2918.0,2819.0,2907.0,3153.0,3046.0,0.748474,-0.05896,-0.65802,0.057861,-1.0,0.0,0.0,7793.0,-1284.0,1038.0,-220.0,62.0,-3.0,-25.0,24.0,-225.0,0.978199,-0.164408,0.127095,15872.0,-2388.0,2116.0,-21.0,9.0,8.0
2919.0,2815.0,2905.0,3157.0,3055.0,0.748535,-0.059082,-0.657898,0.057739,-2.0,1.0,-1.0,7802.0,-1283.0,1036.0,-210.0,63.0,-6.0,-21.0,27.0,-216.0,0.978097,-0.164423,0.127318,15548.0,-2578.0,1976.0,-30.0,37.0,-1.0
2919.0,2821.0,2914.0,3157.0,3051.0,0.748779,-0.059204,-0.657654,0.057556,-1.0,0.0,-1.0,7729.0,-1295.0,997.0,-283.0,51.0,-51.0,13.0,3.0,-291.0,0.97806,-0.164366,0.12797,15334.0,-2602.0,1846.0,-9.0,21.0,-10.0
2919.0,2819.0,2911.0,3155.0,3051.0,0.748779,-0.059204,-0.657654,0.057495,-1.0,0.0,-1.0,7713.0,-1287.0,981.0,-299.0,58.0,-67.0,27.0,7.0,-310.0,0.978067,-0.164285,0.127962,15296.0,-2540.0,1880.0,-9.0,15.0,-9.0
2923.0,2815.0,2911.0,3153.0,3046.0,0.748718,-0.059204,-0.657715,0.057312,-1.0,-1.0,-1.0,7705.0,-1304.0,961.0,-307.0,39.0,-85.0,44.0,-12.0,-317.0,0.9781,-0.164044,0.12777,15508.0,-2628.0,1882.0,-5.0,-8.0,-15.0
2923.0,2822.0,2911.0,3159.0,3055.0,0.748657,-0.059204,-0.657776,0.05719,-1.0,-1.0,-1.0,7707.0,-1278.0,972.0,-305.0,64.0,-73.0,32.0,12.0,-318.0,0.978126,-0.163883,0.127584,15382.0,-2390.0,2108.0,-20.0,-12.0,-15.0
2922.0,2819.0,2907.0,3157.0,3055.0,0.748535,-0.059509,-0.65802,0.056641,-3.0,-1.0,-1.0,7769.0,-1262.0,971.0,-245.0,78.0,-69.0,36.0,35.0,-261.0,0.978361,-0.163631,0.126981,15952.0,-2606.0,1954.0,-68.0,-11.0,-8.0
2923.0,2815.0,2903.0,3159.0,3051.0,0.748535,-0.059692,-0.657959,0.056396,-3.0,1.0,-1.0,7829.0,-1277.0,964.0,-185.0,63.0,-76.0,51.0,30.0,-200.0,0.978278,-0.163577,0.127012,15994.0,-2604.0,1862.0,-53.0,34.0,-20.0
2922.0,2819.0,2911.0,3155.0,3051.0,0.749023,-0.059875,-0.657471,0.055786,-3.0,3.0,-2.0,7791.0,-1241.0,943.0,-222.0,94.0,-107.0,76.0,54.0,-246.0,0.978242,-0.163052,0.128295,15234.0,-2244.0,1804.0,-58.0,80.0,-25.0
2919.0,2818.0,2911.0,3155.0,3055.0,0.749207,-0.06012,-0.657288,0.055359,-4.0,2.0,-1.0,7724.0,-1249.0,938.0,-289.0,85.0,-116.0,77.0,35.0,-311.0,0.978232,-0.162857,0.128734,14988.0,-2626.0,1828.0,-78.0,61.0,-19.0
2919.0,2821.0,2910.0,3159.0,3055.0,0.749329,-0.060486,-0.657166,0.054932,-2.0,0.0,-1.0,7661.0,-1288.0,957.0,-352.0,46.0,-99.0,52.0,-13.0,-364.0,0.978221,-0.162846,0.128986,15304.0,-2500.0,2040.0,-32.0,14.0,-11.0
2925.0,2818.0,2903.0,3155.0,3051.0,0.749329,-0.060608,-0.657104,0.054749,-2.0,0.0,-1.0,7674.0,-1263.0,992.0,-338.0,70.0,-65.0,20.0,13.0,-350.0,0.978138,-0.162782,0.129031,15458.0,-2416.0,2230.0,-41.0,5.0,-11.0
2919.0,2815.0,2909.0,3159.0,3055.0,0.74939,-0.060852,-0.657104,0.054382,-2.0,0.0,-1.0,7722.0,-1291.0,1045.0,-291.0,41.0,-12.0,-26.0,-6.0,-292.0,0.978236,-0.162674,0.129053,15626.0,-2698.0,2184.0,-34.0,2.0,-14.0
2923.0,2823.0,2914.0,3159.0,3055.0,0.749451,-0.060852,-0.656982,0.054199,-1.0,0.0,-2.0,7789.0,-1276.0,1075.0,-224.0,54.0,15.0,-44.0,17.0,-225.0,0.978156,-0.162427,0.129285,16020.0,-2382.0,2360.0,-13.0,20.0,-24.0
2921.0,2819.0,2907.0,3155.0,3055.0,0.749878,-0.060852,-0.656555,0.053589,-3.0,3.0,-2.0,7800.0,-1220.0,1067.0,-213.0,104.0,-1.0,-27.0,68.0,-225.0,0.97815,-0.161631,0.130421,15432.0,-2410.0,2064.0,-58.0,69.0,-31.0
2919.0,2818.0,2905.0,3153.0,3043.0,0.750122,-0.060974,-0.656372,0.053223,-3.0,2.0,-2.0,7752.0,-1227.0,1040.0,-261.0,94.0,-32.0,-2.0,50.0,-274.0,0.978228,-0.161344,0.130974,15210.0,-2554.0,1944.0,-67.0,58.0,-25.0
2917.0,2815.0,2907.0,3155.0,3051.0,0.750122,-0.061401,-0.656311,0.052612,-3.0,-1.0,-1.0,7626.0,-1250.0,1009.0,-387.0,70.0,-63.0,11.0,5.0,-398.0,0.978166,-0.161177,0.130937,15104.0,-2514.0,2098.0,-56.0,-20.0,-15.0
2919.0,2819.0,2903.0,3162.0,3055.0,0.75,-0.061584,-0.656494,0.052368,-3.0,-2.0,-1.0,7621.0,-1244.0,1019.0,-393.0,76.0,-49.0,-3.0,11.0,-403.0,0.978291,-0.161135,0.130465,15268.0,-2478.0,2120.0,-65.0,-45.0,-10.0
2927.0,2822.0,2913.0,3159.0,3054.0,0.749634,-0.061951,-0.65686,0.052063,-1.0,-2.0,-1.0,7680.0,-1364.0,1018.0,-334.0,-42.0,-41.0,-3.0,-95.0,-325.0,0.978359,-0.161277,0.129358,15516.0,-3108.0,1990.0,-21.0,-36.0,-15.0
2922.0,2815.0,2907.0,3157.0,3051.0,0.749573,-0.06189,-0.656982,0.052124,1.0,-2.0,-1.0,7735.0,-1364.0,1023.0,-280.0,-42.0,-34.0,-3.0,-86.0,-271.0,0.97846,-0.161271,0.12912,15880.0,-2604.0,2140.0,28.0,-23.0,-21.0
2917.0,2818.0,2909.0,3159.0,3047.0,0.749817,-0.06134,-0.656677,0.052002,0.0,2.0,-2.0,7786.0,-1262.0,1031.0,-229.0,51.0,-33.0,2.0,13.0,-236.0,0.978396,-0.160285,0.129942,15428.0,-2306.0,1996.0,22.0,55.0,-34.0
2919.0,2819.0,2907.0,3159.0,3053.0,0.750061,-0.061157,-0.656494,0.051941,1.0,2.0,-1.0,7771.0,-1251.0,1042.0,-244.0,59.0,-27.0,-5.0,19.0,-251.0,0.978468,-0.159941,0.130565,15436.0,-2388.0,2156.0,23.0,54.0,-17.0
2923.0,2821.0,2909.0,3157.0,3053.0,0.750305,-0.061035,-0.65625,0.05188,0.0,0.0,-1.0,7674.0,-1256.0,1031.0,-341.0,52.0,-44.0,-1.0,-3.0,-347.0,0.978443,-0.159682,0.13126,15160.0,-2794.0,2018.0,1.0,3.0,-1.0
2921.0,2815.0,2907.0,3155.0,3051.0,0.750183,-0.061035,-0.656311,0.052063,1.0,-2.0,0.0,7673.0,-1271.0,1034.0,-341.0,39.0,-39.0,-6.0,-16.0,-344.0,0.978352,-0.159914,0.131016,15464.0,-2538.0,2144.0,24.0,-25.0,7.0
2919.0,2807.0,2909.0,3155.0,3055.0,0.750122,-0.06073,-0.656433,0.052185,0.0,-2.0,-1.0,7671.0,-1237.0,1076.0,-344.0,70.0,4.0,-49.0,14.0,-347.0,0.978472,-0.159622,0.130814,15174.0,-2314.0,2118.0,19.0,-33.0,-17.0
2923.0,2819.0,2913.0,3159.0,3055.0,0.75,-0.060547,-0.656616,0.052124,0.0,-3.0,-1.0,7724.0,-1240.0,1106.0,-292.0,64.0,37.0,-75.0,17.0,-291.0,0.978612,-0.159271,0.130406,15838.0,-2580.0,2322.0,8.0,-54.0,-20.0
2919.0,2823.0,2914.0,3159.0,3051.0,0.750061,-0.06012,-0.656616,0.051819,-1.0,1.0,-2.0,7846.0,-1133.0,1117.0,-172.0,163.0,47.0,-69.0,135.0,-188.0,0.978774,-0.158237,0.130518,15804.0,-1918.0,2148.0,-12.0,31.0,-39.0
2919.0,2820.0,2910.0,3158.0,3047.0,0.750183,-0.060059,-0.656433,0.051392,-2.0,1.0,-2.0,7820.0,-1122.0,1106.0,-197.0,168.0,33.0,-58.0,135.0,-214.0,0.978717,-0.15758,0.130904,15416.0,-2230.0,2144.0,-43.0,43.0,-42.0
2919.0,2821.0,2911.0,3157.0,3047.0,0.750427,-0.06012,-0.65625,0.05072,-3.0,0.0,-2.0,7697.0,-1144.0,1108.0,-321.0,140.0,31.0,-73.0,89.0,-332.0,0.978837,-0.156801,0.131435,15008.0,-2448.0,2218.0,-47.0,1.0,-38.0
2925.0,2821.0,2911.0,3153.0,3047.0,0.750366,-0.06012,-0.656372,0.050476,-2.0,-2.0,-2.0,7675.0,-1184.0,1123.0,-344.0,97.0,48.0,-93.0,43.0,-345.0,0.97897,-0.156486,0.131159,15324.0,-2616.0,2408.0,-33.0,-36.0,-33.0
2951.0,2823.0,2911.0,3157.0,3055.0,0.750244,-0.059692,-0.656555,0.050293,1.0,-1.0,-2.0,7802.0,-1191.0,1170.0,-219.0,83.0,98.0,-125.0,50.0,-214.0,0.979149,-0.155608,0.130768,15930.0,-2270.0,2448.0,40.0,-16.0,-43.0
2921.0,2800.0,2911.0,3157.0,3047.0,0.750305,-0.059326,-0.656494,0.050232,1.0,-1.0,-2.0,7802.0,-1151.0,1162.0,-219.0,118.0,89.0,-117.0,85.0,-221.0,0.979182,-0.154979,0.130977,15598.0,-2058.0,2290.0,35.0,-2.0,-44.0
2919.0,2817.0,2886.0,3158.0,3051.0,0.750427,-0.05896,-0.656433,0.049927,-1.0,1.0,-1.0,7887.0,-1107.0,1138.0,-135.0,154.0,62.0,-79.0,133.0,-147.0,0.979323,-0.154037,0.131253,16044.0,-2064.0,2122.0,-13.0,31.0,-20.0
2923.0,2819.0,2911.0,3183.0,3055.0,0.75061,-0.05896,-0.65625,0.049622,-3.0,3.0,-2.0,7880.0,-1116.0,1074.0,-142.0,142.0,-5.0,-13.0,118.0,-161.0,0.979325,-0.15364,0.131738,15610.0,-2396.0,1706.0,-55.0,73.0,-25.0
2922.0,2819.0,2907.0,3159.0,3057.0,0.750793,-0.05957,-0.656006,0.049011,-3.0,0.0,-1.0,7572.0,-1254.0,937.0,-449.0,5.0,-145.0,83.0,-66.0,-459.0,0.979211,-0.153753,0.132201,14192.0,-2934.0,1640.0,-60.0,1.0,-12.0
2902.0,2821.0,2911.0,3155.0,3051.0,0.750549,-0.059753,-0.65625,0.049011,-1.0,-4.0,-1.0,7551.0,-1320.0,941.0,-470.0,-58.0,-136.0,71.0,-132.0,-469.0,0.979239,-0.154023,0.131492,15158.0,-3038.0,1978.0,-16.0,-70.0,-11.0
2923.0,2815.0,2911.0,3157.0,3051.0,0.750061,-0.059509,-0.65686,0.049255,1.0,-4.0,-1.0,7675.0,-1254.0,1025.0,-349.0,7.0,-40.0,-6.0,-47.0,-348.0,0.979508,-0.153979,0.130011,16148.0,-1984.0,2542.0,42.0,-71.0,-3.0
2922.0,2818.0,2910.0,3159.0,3047.0,0.75,-0.059265,-0.656921,0.049255,0.0,-1.0,0.0,7785.0,-1144.0,1073.0,-239.0,114.0,9.0,-40.0,76.0,-250.0,0.979544,-0.153612,0.129868,16138.0,-1662.0,2390.0,8.0,-13.0,0.0
2911.0,2821.0,2902.0,3159.0,3047.0,0.750305,-0.059204,-0.656616,0.048889,-1.0,2.0,-1.0,7875.0,-1138.0,1081.0,-149.0,115.0,10.0,-29.0,91.0,-162.0,0.979536,-0.153045,0.130698,15834.0,-2388.0,2168.0,-10.0,64.0,-16.0
2919.0,2819.0,2907.0,3157.0,3053.0,0.75061,-0.059082,-0.656311,0.048767,0.0,3.0,-2.0,7826.0,-1128.0,1062.0,-198.0,122.0,-15.0,-11.0,90.0,-214.0,0.979505,-0.152708,0.131559,15268.0,-2146.0,1962.0,13.0,77.0,-31.0
2919.0,2821.0,2902.0,3159.0,3051.0,0.750793,-0.059021,-0.656128,0.04834,-2.0,-2.0,-1.0,7653.0,-1099.0,1025.0,-371.0,146.0,-56.0,6.0,87.0,-392.0,0.979527,-0.152059,0.13204,14962.0,-2250.0,2022.0,-40.0,-24.0,-9.0
2927.0,2815.0,2911.0,3159.0,3055.0,0.750549,-0.059143,-0.656372,0.048218,-3.0,-3.0,0.0,7661.0,-1121.0,1031.0,-363.0,124.0,-44.0,-4.0,66.0,-380.0,0.979576,-0.152077,0.131327,15486.0,-2344.0,2112.0,-46.0,-64.0,5.0
2919.0,2819.0,2905.0,3159.0,3055.0,0.750122,-0.059387,-0.65686,0.047913,-2.0,-3.0,-1.0,7761.0,-1173.0,1026.0,-265.0,72.0,-38.0,3.0,30.0,-275.0,0.97976,-0.152039,0.129986,16018.0,-2620.0,2032.0,-35.0,-47.0,-13.0
2919.0,2819.0,2902.0,3159.0,3051.0,0.750061,-0.059448,-0.656921,0.047852,-1.0,0.0,-1.0,7859.0,-1199.0,1023.0,-167.0,46.0,-40.0,17.0,19.0,-175.0,0.979773,-0.152049,0.129802,16288.0,-2512.0,2022.0,-3.0,11.0,-18.0
2923.0,2818.0,2911.0,3155.0,3047.0,0.750671,-0.05896,-0.656311,0.047546,1.0,4.0,-3.0,7863.0,-1158.0,972.0,-163.0,78.0,-105.0,82.0,50.0,-185.0,0.979741,-0.15093,0.131548,15418.0,-2206.0,1788.0,25.0,114.0,-53.0
2923.0,2822.0,2905.0,3153.0,3051.0,0.751038,-0.058716,-0.655945,0.047363,0.0,4.0,-2.0,7764.0,-1137.0,956.0,-261.0,94.0,-130.0,94.0,50.0,-287.0,0.979716,-0.150331,0.13259,14862.0,-2096.0,1836.0,15.0,109.0,-44.0
2919.0,2822.0,2911.0,3159.0,3055.0,0.75116,-0.058777,-0.655762,0.047119,-2.0,-2.0,0.0,7566.0,-1124.0,961.0,-459.0,105.0,-128.0,65.0,32.0,-482.0,0.979625,-0.150099,0.132983,15032.0,-2348.0,2100.0,-33.0,-27.0,14.0
2923.0,2823.0,2907.0,3157.0,3051.0,0.751038,-0.058899,-0.655945,0.047119,-1.0,-2.0,1.0,7603.0,-1135.0,996.0,-422.0,96.0,-89.0,31.0,30.0,-439.0,0.979728,-0.150286,0.132545,15514.0,-2314.0,2208.0,-14.0,-41.0,23.0
2923.0,2822.0,2911.0,3159.0,3051.0,0.750854,-0.059082,-0.656128,0.047241,-1.0,-2.0,0.0,7685.0,-1140.0,1056.0,-340.0,94.0,-25.0,-20.0,41.0,-350.0,0.979731,-0.150717,0.13202,15660.0,-2284.0,2286.0,-14.0,-25.0,15.0
2919.0,2823.0,2907.0,3159.0,3047.0,0.750854,-0.059143,-0.656128,0.047241,-1.0,0.0,0.0,7776.0,-1152.0,1086.0,-249.0,83.0,4.0,-36.0,45.0,-255.0,0.979725,-0.150808,0.132012,16104.0,-2400.0,2334.0,-15.0,3.0,17.0
2927.0,2821.0,2903.0,3153.0,3056.0,0.751282,-0.059265,-0.65564,0.04718,0.0,3.0,-1.0,7789.0,-1176.0,1087.0,-235.0,60.0,-4.0,-27.0,24.0,-239.0,0.979548,-0.150916,0.133275,15186.0,-2428.0,2084.0,1.0,71.0,-1.0
2919.0,2819.0,2903.0,3154.0,3047.0,0.751465,-0.059265,-0.655396,0.04718,0.0,1.0,0.0,7697.0,-1174.0,1086.0,-326.0,62.0,-10.0,-34.0,12.0,-329.0,0.979421,-0.150915,0.13387,14786.0,-2374.0,2200.0,2.0,36.0,1.0
2926.0,2818.0,2911.0,3163.0,3055.0,0.751099,-0.059387,-0.655762,0.047424,0.0,-5.0,0.0,7575.0,-1229.0,1097.0,-448.0,11.0,8.0,-68.0,-55.0,-439.0,0.979451,-0.151409,0.132848,15088.0,-2758.0,2316.0,10.0,-109.0,22.0
2917.0,2815.0,2911.0,3152.0,3055.0,0.750671,-0.059326,-0.65625,0.047668,1.0,-7.0,0.0,7609.0,-1220.0,1116.0,-415.0,22.0,37.0,-92.0,-39.0,-405.0,0.9796,-0.151634,0.131596,15570.0,-2284.0,2440.0,43.0,-145.0,18.0
2927.0,2821.0,2901.0,3159.0,3053.0,0.75,-0.058899,-0.657043,0.047974,0.0,-4.0,0.0,7869.0,-1168.0,1180.0,-158.0,72.0,118.0,-137.0,50.0,-150.0,0.979914,-0.15139,0.129626,16556.0,-2334.0,2468.0,22.0,-77.0,8.0
2925.0,2815.0,2909.0,3154.0,3055.0,0.749939,-0.058777,-0.657104,0.048096,1.0,-1.0,0.0,7941.0,-1174.0,1163.0,-86.0,65.0,102.0,-112.0,53.0,-80.0,0.979923,-0.151366,0.129481,16212.0,-2374.0,2166.0,32.0,-4.0,5.0
2919.0,2819.0,2899.0,3151.0,3055.0,0.750305,-0.058472,-0.656738,0.048218,0.0,2.0,0.0,7812.0,-1080.0,1078.0,-215.0,157.0,8.0,-35.0,123.0,-233.0,0.979869,-0.151076,0.130559,14782.0,-1772.0,1770.0,8.0,46.0,4.0
2919.0,2821.0,2909.0,3155.0,3039.0,0.750244,-0.058594,-0.656799,0.048096,-3.0,-1.0,1.0,7698.0,-1078.0,1045.0,-329.0,159.0,-22.0,-21.0,107.0,-349.0,0.979883,-0.151098,0.130361,14784.0,-2258.0,1880.0,-48.0,-18.0,23.0
2925.0,2826.0,2913.0,3167.0,3049.0,0.749634,-0.059204,-0.657471,0.048096,-2.0,-5.0,0.0,7631.0,-1189.0,988.0,-397.0,56.0,-64.0,11.0,-5.0,-405.0,0.98003,-0.152006,0.128491,15388.0,-2672.0,1910.0,-26.0,-100.0,20.0
2919.0,2815.0,2911.0,3153.0,3043.0,0.749268,-0.059326,-0.657837,0.048157,-1.0,-4.0,0.0,7684.0,-1187.0,998.0,-344.0,60.0,-46.0,1.0,6.0,-352.0,0.980078,-0.152261,0.127452,15738.0,-2282.0,2108.0,-8.0,-89.0,13.0
2918.0,2815.0,2911.0,3155.0,3055.0,0.748962,-0.059448,-0.658142,0.048096,-1.0,-1.0,0.0,7839.0,-1199.0,1022.0,-190.0,49.0,-14.0,-10.0,19.0,-195.0,0.980129,-0.152357,0.126573,16164.0,-2514.0,2140.0,-19.0,-1.0,16.0
2927.0,2815.0,2915.0,3159.0,3055.0,0.749146,-0.05957,-0.657959,0.048157,-1.0,2.0,0.0,7871.0,-1197.0,1012.0,-157.0,53.0,-29.0,8.0,27.0,-165.0,0.980077,-0.152624,0.127079,15806.0,-2304.0,1962.0,-9.0,54.0,16.0
2921.0,2815.0,2907.0,3167.0,3049.0,0.74939,-0.059814,-0.657654,0.048096,-1.0,0.0,0.0,7674.0,-1187.0,971.0,-353.0,65.0,-76.0,29.0,9.0,-365.0,0.979924,-0.152909,0.127812,14756.0,-2448.0,1908.0,-19.0,9.0,16.0
2919.0,2820.0,2911.0,3163.0,3047.0,0.749268,-0.059937,-0.657776,0.048157,-1.0,-2.0,0.0,7650.0,-1202.0,993.0,-377.0,52.0,-51.0,1.0,-6.0,-383.0,0.979928,-0.15317,0.127459,15270.0,-2452.0,2114.0,-1.0,-43.0,20.0
2921.0,2815.0,2911.0,3165.0,3047.0,0.748901,-0.059875,-0.658203,0.048401,0.0,-4.0,0.0,7734.0,-1199.0,1061.0,-294.0,57.0,25.0,-62.0,12.0,-293.0,0.980062,-0.153397,0.126379,15960.0,-2306.0,2388.0,14.0,-72.0,8.0
2914.0,2815.0,2911.0,3149.0,3056.0,0.748779,-0.059814,-0.658386,0.048401,0.0,-2.0,0.0,7801.0,-1174.0,1086.0,-228.0,81.0,54.0,-82.0,46.0,-229.0,0.980182,-0.153309,0.125963,15932.0,-2210.0,2282.0,7.0,-43.0,7.0
2917.0,2819.0,2910.0,3163.0,3053.0,0.748718,-0.059814,-0.658386,0.048401,-1.0,0.0,0.0,7863.0,-1191.0,1096.0,-165.0,64.0,64.0,-84.0,39.0,-163.0,0.980101,-0.153301,0.125872,15792.0,-2498.0,2184.0,-2.0,6.0,12.0
2919.0,2815.0,2911.0,3151.0,3055.0,0.74884,-0.059814,-0.658264,0.048523,0.0,1.0,0.0,7819.0,-1206.0,1072.0,-209.0,51.0,37.0,-63.0,19.0,-207.0,0.980065,-0.153465,0.126227,15280.0,-2504.0,1968.0,11.0,23.0,11.0
2923.0,2819.0,2903.0,3155.0,3051.0,0.74884,-0.059753,-0.658203,0.048828,1.0,-1.0,0.0,7740.0,-1187.0,1048.0,-287.0,72.0,12.0,-48.0,27.0,-290.0,0.979943,-0.153769,0.126344,15294.0,-2074.0,2088.0,30.0,-3.0,18.0
2919.0,2817.0,2917.0,3151.0,3056.0,0.74884,-0.059692,-0.658264,0.048828,-1.0,-1.0,0.0,7697.0,-1150.0,1031.0,-331.0,108.0,-3.0,-39.0,56.0,-341.0,0.98004,-0.153684,0.126271,15138.0,-2172.0,1936.0,-3.0,-15.0,16.0
2919.0,2822.0,2914.0,3155.0,3055.0,0.748535,-0.059998,-0.658569,0.048889,-1.0,-3.0,1.0,7676.0,-1177.0,994.0,-352.0,86.0,-33.0,-11.0,30.0,-362.0,0.980058,-0.154214,0.125382,15384.0,-2444.0,1832.0,-19.0,-51.0,24.0
2923.0,2818.0,2911.0,3152.0,3055.0,0.748352,-0.06012,-0.658752,0.04895,-1.0,-2.0,0.0,7752.0,-1197.0,992.0,-276.0,68.0,-30.0,-4.0,24.0,-284.0,0.980072,-0.154473,0.124858,16066.0,-2514.0,2034.0,-6.0,-40.0,14.0
2919.0,2815.0,2910.0,3159.0,3055.0,0.748535,-0.060059,-0.658569,0.048767,-1.0,3.0,-1.0,7832.0,-1152.0,941.0,-196.0,110.0,-85.0,59.0,76.0,-219.0,0.980067,-0.154145,0.125363,15520.0,-2298.0,1602.0,-18.0,77.0,-13.0
2926.0,2823.0,2911.0,3163.0,3059.0,0.748779,-0.060059,-0.658264,0.048584,-1.0,3.0,-1.0,7783.0,-1185.0,908.0,-244.0,75.0,-125.0,93.0,33.0,-266.0,0.979953,-0.153903,0.126112,15260.0,-2666.0,1692.0,-14.0,84.0,-20.0
2919.0,2814.0,2902.0,3153.0,3039.0,0.749207,-0.059875,-0.657837,0.048584,1.0,2.0,-1.0,7701.0,-1187.0,914.0,-326.0,71.0,-129.0,86.0,17.0,-346.0,0.979893,-0.153639,0.127336,15190.0,-2242.0,1936.0,28.0,53.0,-12.0
2920.0,2819.0,2911.0,3159.0,3055.0,0.749268,-0.059814,-0.657715,0.048584,0.0,0.0,-1.0,7652.0,-1149.0,935.0,-374.0,108.0,-110.0,61.0,47.0,-397.0,0.979797,-0.153543,0.127596,15054.0,-2056.0,2026.0,6.0,16.0,-4.0
2919.0,2815.0,2911.0,3157.0,3055.0,0.749268,-0.059937,-0.657776,0.048462,-2.0,-1.0,0.0,7722.0,-1151.0,1013.0,-305.0,107.0,-31.0,-8.0,58.0,-319.0,0.979891,-0.153571,0.127489,15722.0,-2356.0,2148.0,-30.0,-9.0,10.0
2915.0,2822.0,2910.0,3199.0,3047.0,0.749268,-0.060059,-0.657776,0.04834,-2.0,0.0,-1.0,7761.0,-1190.0,1024.0,-266.0,68.0,-20.0,-14.0,26.0,-273.0,0.979894,-0.153593,0.127463,15776.0,-2654.0,2076.0,-27.0,5.0,-2.0
2923.0,2817.0,2915.0,3153.0,3055.0,0.749512,-0.060059,-0.657471,0.04834,1.0,2.0,-1.0,7835.0,-1245.0,1048.0,-191.0,13.0,-2.0,-22.0,-16.0,-189.0,0.979758,-0.153593,0.12823,15870.0,-2438.0,2216.0,23.0,50.0,-11.0
2919.0,2823.0,2910.0,3153.0,3039.0,0.749817,-0.059875,-0.657166,0.04834,0.0,3.0,-1.0,7854.0,-1219.0,1066.0,-171.0,37.0,8.0,-30.0,10.0,-172.0,0.979719,-0.153326,0.129111,15766.0,-2300.0,2196.0,20.0,78.0,-17.0
2917.0,2817.0,2903.0,3157.0,3047.0,0.750305,-0.059875,-0.656616,0.048279,-1.0,0.0,0.0,7639.0,-1224.0,1047.0,-385.0,31.0,-22.0,-29.0,-28.0,-384.0,0.979544,-0.153251,0.130559,14468.0,-2544.0,2102.0,-8.0,22.0,2.0
2919.0,2821.0,2909.0,3157.0,3047.0,0.750183,-0.059937,-0.656738,0.04834,0.0,-3.0,0.0,7597.0,-1231.0,1069.0,-427.0,25.0,2.0,-58.0,-39.0,-421.0,0.979553,-0.15342,0.130214,15166.0,-2464.0,2322.0,1.0,-57.0,14.0
2917.0,2818.0,2899.0,3155.0,3051.0,0.749756,-0.059937,-0.657166,0.048523,0.0,-3.0,0.0,7714.0,-1221.0,1095.0,-310.0,37.0,37.0,-77.0,-9.0,-304.0,0.979611,-0.153651,0.129029,15900.0,-2462.0,2222.0,1.0,-58.0,3.0
2923.0,2821.0,2905.0,3157.0,3055.0,0.749695,-0.059937,-0.657288,0.048523,-1.0,-1.0,-1.0,7772.0,-1238.0,1093.0,-253.0,20.0,38.0,-70.0,-17.0,-246.0,0.979714,-0.153655,0.128777,15814.0,-2564.0,2154.0,-3.0,-17.0,-4.0
2923.0,2821.0,2917.0,3163.0,3047.0,0.749756,-0.059753,-0.657166,0.04834,-1.0,0.0,-2.0,7799.0,-1227.0,1064.0,-226.0,27.0,6.0,-35.0,-7.0,-224.0,0.97965,-0.153136,0.129034,15712.0,-2302.0,2080.0,-1.0,22.0,-25.0
2923.0,2819.0,2911.0,3157.0,3053.0,0.749939,-0.059753,-0.657043,0.048157,-2.0,1.0,-1.0,7779.0,-1206.0,1051.0,-246.0,46.0,-9.0,-23.0,8.0,-249.0,0.97973,-0.152905,0.129451,15282.0,-2348.0,1980.0,-24.0,45.0,-20.0
2917.0,2815.0,2907.0,3155.0,3039.0,0.749939,-0.059875,-0.657043,0.048035,0.0,-2.0,-1.0,7683.0,-1251.0,1009.0,-342.0,1.0,-51.0,5.0,-51.0,-341.0,0.979733,-0.152928,0.129425,15388.0,-2494.0,2050.0,9.0,-27.0,-1.0
2925.0,2819.0,2906.0,3153.0,3055.0,0.749817,-0.059814,-0.657166,0.048096,0.0,-2.0,-1.0,7684.0,-1207.0,1019.0,-342.0,45.0,-38.0,-7.0,-8.0,-346.0,0.979754,-0.152913,0.129094,15344.0,-2094.0,2088.0,20.0,-38.0,-1.0
2927.0,2822.0,2911.0,3155.0,3049.0,0.749512,-0.059753,-0.657532,0.048096,-1.0,-2.0,0.0,7754.0,-1170.0,1063.0,-273.0,81.0,13.0,-48.0,39.0,-278.0,0.979908,-0.152821,0.128163,15798.0,-2310.0,2316.0,-3.0,-44.0,13.0
2907.0,2823.0,2906.0,3159.0,3039.0,0.749451,-0.059692,-0.657593,0.048157,0.0,-1.0,0.0,7806.0,-1175.0,1076.0,-221.0,76.0,27.0,-55.0,42.0,-224.0,0.979918,-0.152808,0.128004,15954.0,-2410.0,2208.0,11.0,-12.0,10.0
2918.0,2819.0,2914.0,3159.0,3047.0,0.749695,-0.059387,-0.657349,0.048401,1.0,1.0,-1.0,7801.0,-1144.0,1045.0,-226.0,106.0,-9.0,-20.0,70.0,-238.0,0.979873,-0.152677,0.128751,15398.0,-2086.0,1954.0,41.0,34.0,-3.0
2919.0,2819.0,2911.0,3157.0,3051.0,0.749756,-0.059265,-0.657288,0.048401,0.0,0.0,0.0,7727.0,-1102.0,1024.0,-300.0,147.0,-32.0,-6.0,99.0,-320.0,0.979873,-0.152495,0.128937,14994.0,-1936.0,1904.0,21.0,13.0,4.0
2923.0,2819.0,2911.0,3155.0,3051.0,0.749512,-0.059326,-0.657532,0.048462,-1.0,-3.0,0.0,7662.0,-1127.0,1007.0,-365.0,123.0,-43.0,-4.0,65.0,-381.0,0.979905,-0.152662,0.128249,15126.0,-2322.0,2002.0,-6.0,-53.0,18.0
2923.0,2815.0,2901.0,3152.0,3055.0,0.749207,-0.059387,-0.657837,0.048523,-1.0,-4.0,0.0,7677.0,-1140.0,1015.0,-350.0,111.0,-28.0,-17.0,56.0,-363.0,0.979948,-0.152827,0.127389,15584.0,-2350.0,2140.0,-11.0,-80.0,21.0
2922.0,2821.0,2911.0,3155.0,3053.0,0.748901,-0.05957,-0.658203,0.048584,-1.0,-1.0,0.0,7829.0,-1162.0,1026.0,-199.0,92.0,-9.0,-16.0,60.0,-210.0,0.98007,-0.153181,0.126434,16094.0,-2390.0,1998.0,-9.0,-16.0,9.0
2927.0,2823.0,2901.0,3155.0,3047.0,0.748962,-0.05957,-0.658142,0.048584,-1.0,1.0,-1.0,7882.0,-1183.0,1008.0,-146.0,71.0,-29.0,10.0,47.0,-157.0,0.980059,-0.153182,0.126605,16032.0,-2468.0,1916.0,0.0,38.0,-6.0
2924.0,2823.0,2910.0,3155.0,3056.0,0.74939,-0.059448,-0.657715,0.048462,-1.0,2.0,-1.0,7739.0,-1183.0,966.0,-289.0,69.0,-81.0,43.0,22.0,-304.0,0.980007,-0.152848,0.12781,14880.0,-2378.0,1854.0,-2.0,51.0,-9.0
2926.0,2815.0,2911.0,3152.0,3051.0,0.74939,-0.059509,-0.657654,0.048462,-1.0,0.0,0.0,7677.0,-1200.0,976.0,-350.0,52.0,-71.0,25.0,-3.0,-360.0,0.97991,-0.152934,0.127884,15002.0,-2492.0,2038.0,-5.0,8.0,2.0
2921.0,2815.0,2911.0,3157.0,3047.0,0.749207,-0.05957,-0.657898,0.048584,-1.0,-3.0,0.0,7633.0,-1203.0,1009.0,-395.0,51.0,-33.0,-18.0,-10.0,-399.0,0.980015,-0.153188,0.127293,15244.0,-2368.0,2108.0,-1.0,-56.0,10.0
2927.0,2821.0,2911.0,3155.0,3055.0,0.748962,-0.059631,-0.658081,0.048645,-1.0,-3.0,0.0,7680.0,-1192.0,1037.0,-347.0,64.0,0.0,-44.0,10.0,-349.0,0.979954,-0.153348,0.126684,15786.0,-2300.0,2278.0,-8.0,-67.0,15.0
2919.0,2823.0,2910.0,3159.0,3051.0,0.74884,-0.059692,-0.658264,0.048645,-1.0,-1.0,0.0,7800.0,-1216.0,1046.0,-228.0,41.0,11.0,-40.0,6.0,-228.0,0.980062,-0.153443,0.126253,15724.0,-2550.0,2014.0,-1.0,0.0,3.0
2917.0,2819.0,2911.0,3155.0,3051.0,0.748901,-0.059692,-0.658203,0.048706,0.0,0.0,-1.0,7809.0,-1233.0,1025.0,-219.0,24.0,-10.0,-18.0,-9.0,-219.0,0.980044,-0.153524,0.126431,15664.0,-2548.0,1882.0,9.0,18.0,-8.0
2922.0,2815.0,2907.0,3171.0,3042.0,0.749084,-0.05957,-0.657959,0.048645,-1.0,1.0,-1.0,7758.0,-1228.0,992.0,-269.0,27.0,-48.0,12.0,-15.0,-273.0,0.979938,-0.153259,0.127035,15210.0,-2350.0,1910.0,0.0,31.0,-13.0
2918.0,2819.0,2911.0,3152.0,3051.0,0.749146,-0.059631,-0.657959,0.048523,-2.0,0.0,-1.0,7736.0,-1209.0,992.0,-292.0,45.0,-49.0,11.0,0.0,-299.0,0.980027,-0.153197,0.127108,15418.0,-2340.0,1988.0,-23.0,10.0,-10.0
2919.0,2815.0,2909.0,3158.0,3023.0,0.749207,-0.059875,-0.657898,0.048096,-3.0,0.0,-1.0,7718.0,-1212.0,992.0,-310.0,41.0,-50.0,9.0,-7.0,-316.0,0.980043,-0.153002,0.127209,15262.0,-2622.0,1920.0,-58.0,6.0,-9.0
2923.0,2821.0,2909.0,3155.0,3055.0,0.749146,-0.06012,-0.657959,0.047913,-3.0,-1.0,-1.0,7708.0,-1241.0,993.0,-320.0,13.0,-47.0,5.0,-36.0,-321.0,0.980053,-0.153126,0.12699,15408.0,-2656.0,2024.0,-47.0,-12.0,-11.0
2918.0,2823.0,2911.0,3163.0,3050.0,0.749084,-0.060059,-0.65802,0.047729,0.0,-1.0,-2.0,7736.0,-1259.0,1026.0,-292.0,-7.0,-12.0,-25.0,-51.0,-286.0,0.980092,-0.152792,0.126808,15344.0,-2500.0,2112.0,14.0,-3.0,-25.0
2923.0,2821.0,2914.0,3159.0,3055.0,0.749146,-0.059875,-0.65802,0.047668,0.0,0.0,-2.0,7733.0,-1167.0,1040.0,-296.0,81.0,0.0,-37.0,35.0,-302.0,0.980197,-0.152445,0.126916,15492.0,-1822.0,2236.0,12.0,2.0,-28.0
2915.0,2817.0,2909.0,3155.0,3047.0,0.749207,-0.059631,-0.657959,0.047363,0.0,0.0,-1.0,7734.0,-1142.0,1034.0,-296.0,100.0,-7.0,-30.0,54.0,-306.0,0.980246,-0.151679,0.127088,15402.0,-2170.0,2026.0,9.0,6.0,-10.0
2915.0,2815.0,2910.0,3159.0,3047.0,0.749207,-0.059509,-0.657959,0.047363,0.0,-1.0,-1.0,7719.0,-1101.0,1028.0,-311.0,140.0,-13.0,-26.0,91.0,-327.0,0.980257,-0.151496,0.127102,15374.0,-1918.0,2034.0,16.0,-6.0,-3.0
2923.0,2819.0,2907.0,3155.0,3055.0,0.749084,-0.059509,-0.658081,0.047302,-2.0,-2.0,1.0,7718.0,-1055.0,1023.0,-312.0,185.0,-15.0,-24.0,135.0,-335.0,0.980287,-0.151412,0.126753,15474.0,-2056.0,1998.0,-34.0,-25.0,23.0
2923.0,2819.0,2905.0,3157.0,3055.0,0.749023,-0.059753,-0.658142,0.04718,-3.0,-1.0,1.0,7740.0,-1088.0,1015.0,-290.0,154.0,-21.0,-15.0,108.0,-310.0,0.980289,-0.151616,0.126541,15626.0,-2462.0,1940.0,-46.0,-22.0,26.0
2925.0,2823.0,2909.0,3157.0,3055.0,0.74884,-0.060059,-0.658325,0.047241,-1.0,-1.0,0.0,7768.0,-1139.0,1001.0,-262.0,107.0,-31.0,-2.0,65.0,-277.0,0.980286,-0.152149,0.125995,15794.0,-2332.0,2078.0,-12.0,-14.0,11.0
2917.0,2815.0,2911.0,3159.0,3047.0,0.748901,-0.060059,-0.658264,0.04718,-1.0,0.0,0.0,7783.0,-1137.0,1017.0,-247.0,108.0,-16.0,-15.0,69.0,-260.0,0.980283,-0.15207,0.12616,15518.0,-2270.0,2072.0,-9.0,9.0,8.0
2921.0,2815.0,2899.0,3155.0,3053.0,0.74884,-0.060242,-0.658264,0.047241,0.0,-1.0,0.0,7731.0,-1167.0,1029.0,-298.0,81.0,-3.0,-34.0,35.0,-304.0,0.980178,-0.152417,0.126053,15360.0,-2410.0,2120.0,2.0,-17.0,21.0
2919.0,2815.0,2907.0,3155.0,3051.0,0.748779,-0.060242,-0.658325,0.047363,0.0,-2.0,0.0,7708.0,-1150.0,1042.0,-321.0,99.0,10.0,-50.0,49.0,-328.0,0.980174,-0.152576,0.125893,15296.0,-2166.0,2158.0,11.0,-32.0,16.0
2925.0,2819.0,2909.0,3155.0,3051.0,0.748535,-0.060242,-0.65863,0.047546,0.0,-2.0,0.0,7723.0,-1166.0,1052.0,-307.0,85.0,26.0,-64.0,38.0,-310.0,0.980287,-0.152817,0.125142,15436.0,-2434.0,2038.0,10.0,-42.0,20.0
2921.0,2818.0,2931.0,3153.0,3050.0,0.748413,-0.060242,-0.658752,0.047729,0.0,-3.0,0.0,7739.0,-1184.0,1053.0,-291.0,69.0,30.0,-66.0,25.0,-292.0,0.980287,-0.153055,0.124816,15582.0,-2460.0,2108.0,22.0,-46.0,19.0
2926.0,2818.0,2901.0,3155.0,3055.0,0.74823,-0.06012,-0.658997,0.048035,0.0,-1.0,0.0,7786.0,-1158.0,1039.0,-245.0,97.0,21.0,-51.0,59.0,-252.0,0.980386,-0.153276,0.124265,15696.0,-2222.0,1998.0,18.0,-19.0,21.0
2923.0,2818.0,2911.0,3155.0,3045.0,0.748169,-0.060059,-0.658997,0.048096,0.0,-1.0,0.0,7770.0,-1162.0,1003.0,-260.0,93.0,-14.0,-18.0,52.0,-270.0,0.980304,-0.153258,0.124186,15386.0,-2414.0,1746.0,11.0,-2.0,7.0
2919.0,2815.0,2911.0,3159.0,3055.0,0.747925,-0.059937,-0.659241,0.048279,0.0,-3.0,-1.0,7711.0,-1183.0,962.0,-319.0,72.0,-49.0,8.0,21.0,-329.0,0.980338,-0.153311,0.123532,15578.0,-2298.0,1946.0,22.0,-49.0,-2.0
2917.0,2815.0,2903.0,3159.0,3047.0,0.747803,-0.059875,-0.659424,0.04834,0.0,-2.0,0.0,7740.0,-1167.0,967.0,-291.0,88.0,-41.0,4.0,41.0,-303.0,0.980449,-0.153303,0.123121,15678.0,-2182.0,1926.0,9.0,-41.0,0.0
2923.0,2815.0,2915.0,3155.0,3055.0,0.747559,-0.059998,-0.659729,0.048218,-2.0,-2.0,0.0,7787.0,-1175.0,975.0,-245.0,81.0,-27.0,-3.0,42.0,-255.0,0.980586,-0.153325,0.122327,15792.0,-2536.0,1938.0,-28.0,-30.0,15.0
2921.0,2815.0,2910.0,3153.0,3047.0,0.747498,-0.060059,-0.65979,0.048218,-1.0,-1.0,0.0,7823.0,-1205.0,970.0,-210.0,51.0,-30.0,3.0,17.0,-217.0,0.980591,-0.153415,0.122148,15782.0,-2550.0,1866.0,-3.0,-2.0,5.0
2919.0,2821.0,2911.0,3159.0,3055.0,0.747559,-0.059875,-0.659729,0.048279,0.0,0.0,-1.0,7770.0,-1149.0,956.0,-262.0,106.0,-46.0,13.0,63.0,-278.0,0.980591,-0.153223,0.122347,15324.0,-2024.0,1902.0,20.0,6.0,-13.0
2917.0,2815.0,2910.0,3159.0,3055.0,0.747559,-0.059692,-0.659729,0.048218,0.0,-1.0,-1.0,7741.0,-1124.0,959.0,-292.0,128.0,-43.0,7.0,81.0,-311.0,0.980616,-0.152868,0.122363,15250.0,-2154.0,1922.0,8.0,-13.0,-7.0
2919.0,2818.0,2907.0,3159.0,3051.0,0.747314,-0.059753,-0.660034,0.048218,-1.0,-2.0,0.0,7777.0,-1145.0,970.0,-257.0,108.0,-26.0,-5.0,67.0,-271.0,0.980744,-0.15296,0.121588,15950.0,-2564.0,2040.0,-13.0,-40.0,19.0
2919.0,2819.0,2908.0,3159.0,3051.0,0.747253,-0.059814,-0.660095,0.048279,0.0,-1.0,0.0,7793.0,-1171.0,959.0,-241.0,83.0,-35.0,5.0,44.0,-253.0,0.980741,-0.15313,0.121415,15568.0,-2486.0,1794.0,2.0,-8.0,19.0
2925.0,2819.0,2901.0,3155.0,3051.0,0.747131,-0.059875,-0.660156,0.048584,1.0,-1.0,0.0,7752.0,-1254.0,944.0,-281.0,4.0,-48.0,12.0,-39.0,-281.0,0.980629,-0.153616,0.121174,15576.0,-2682.0,1936.0,32.0,-12.0,12.0
2919.0,2819.0,2910.0,3159.0,3051.0,0.747131,-0.059692,-0.660156,0.048767,1.0,0.0,0.0,7772.0,-1256.0,945.0,-261.0,2.0,-47.0,14.0,-38.0,-261.0,0.980625,-0.153584,0.121214,15648.0,-2476.0,1866.0,45.0,6.0,1.0
2923.0,2819.0,2903.0,3153.0,3051.0,0.747437,-0.059326,-0.659851,0.04895,1.0,2.0,-1.0,7765.0,-1211.0,940.0,-267.0,44.0,-60.0,26.0,1.0,-275.0,0.980586,-0.153285,0.122134,15200.0,-2140.0,1934.0,32.0,54.0,-9.0
2923.0,2819.0,2913.0,3158.0,3055.0,0.747559,-0.059265,-0.659729,0.048889,-1.0,0.0,0.0,7650.0,-1161.0,936.0,-382.0,93.0,-67.0,19.0,32.0,-397.0,0.980577,-0.153116,0.122479,14604.0,-2084.0,1858.0,-11.0,19.0,0.0
2919.0,2822.0,2906.0,3167.0,3056.0,0.747375,-0.059753,-0.659912,0.048767,-2.0,-2.0,1.0,7676.0,-1193.0,987.0,-356.0,65.0,-11.0,-32.0,9.0,-360.0,0.980576,-0.15368,0.121894,15402.0,-2526.0,2056.0,-35.0,-23.0,23.0
2918.0,2819.0,2907.0,3167.0,3054.0,0.747253,-0.059875,-0.660034,0.048767,-1.0,-2.0,0.0,7637.0,-1214.0,984.0,-395.0,46.0,-11.0,-37.0,-14.0,-395.0,0.980586,-0.15386,0.121536,15106.0,-2560.0,2012.0,-19.0,-37.0,1.0
2919.0,2823.0,2907.0,3155.0,3051.0,0.74707,-0.059814,-0.660278,0.048767,0.0,-1.0,-1.0,7816.0,-1219.0,1042.0,-218.0,40.0,51.0,-77.0,7.0,-213.0,0.980715,-0.153771,0.120947,16168.0,-2380.0,2198.0,13.0,-14.0,-9.0
2927.0,2819.0,2906.0,3159.0,3051.0,0.747131,-0.059631,-0.660156,0.048767,1.0,1.0,-1.0,7853.0,-1236.0,1033.0,-180.0,21.0,39.0,-60.0,-5.0,-175.0,0.980631,-0.153493,0.121221,15830.0,-2590.0,1976.0,29.0,25.0,-19.0
2923.0,2819.0,2911.0,3159.0,3051.0,0.747498,-0.059204,-0.659851,0.04895,1.0,1.0,-1.0,7826.0,-1172.0,1005.0,-207.0,82.0,3.0,-28.0,49.0,-215.0,0.980678,-0.15311,0.12224,15462.0,-2070.0,1820.0,34.0,44.0,-7.0
2926.0,2819.0,2897.0,3153.0,3051.0,0.74762,-0.059143,-0.659668,0.048889,-1.0,1.0,0.0,7790.0,-1164.0,980.0,-242.0,88.0,-24.0,-5.0,49.0,-253.0,0.980579,-0.152934,0.122666,15364.0,-2374.0,1842.0,-2.0,40.0,2.0
2919.0,2815.0,2911.0,3157.0,3053.0,0.747681,-0.059326,-0.659607,0.048889,-1.0,-1.0,0.0,7675.0,-1207.0,924.0,-357.0,48.0,-82.0,36.0,-8.0,-367.0,0.98055,-0.153209,0.122816,15178.0,-2538.0,1786.0,-9.0,-1.0,6.0
2919.0,2815.0,2913.0,3155.0,3053.0,0.74762,-0.059387,-0.659668,0.048889,0.0,-1.0,-1.0,7681.0,-1207.0,925.0,-351.0,48.0,-79.0,34.0,-7.0,-361.0,0.980555,-0.153299,0.122637,15402.0,-2366.0,1862.0,4.0,-11.0,-2.0
2917.0,2819.0,2923.0,3155.0,3055.0,0.747559,-0.059326,-0.65979,0.048706,-1.0,-1.0,-1.0,7701.0,-1164.0,941.0,-332.0,89.0,-61.0,19.0,36.0,-346.0,0.980684,-0.152971,0.122374,15626.0,-2336.0,1924.0,-21.0,-16.0,-6.0
2921.0,2821.0,2917.0,3152.0,3056.0,0.747559,-0.059326,-0.65979,0.048645,-1.0,0.0,-1.0,7755.0,-1175.0,957.0,-278.0,77.0,-45.0,10.0,33.0,-289.0,0.980692,-0.152891,0.122368,15814.0,-2428.0,1966.0,-10.0,6.0,-9.0
2923.0,2819.0,2911.0,3167.0,3015.0,0.747803,-0.059021,-0.659485,0.048584,1.0,1.0,-1.0,7737.0,-1151.0,983.0,-296.0,97.0,-25.0,-11.0,50.0,-308.0,0.980594,-0.152353,0.123166,15210.0,-2156.0,2026.0,29.0,34.0,-21.0
2927.0,2819.0,2911.0,3163.0,3051.0,0.747864,-0.058899,-0.659424,0.048523,0.0,0.0,-1.0,7711.0,-1123.0,998.0,-322.0,122.0,-12.0,-27.0,71.0,-335.0,0.980603,-0.152091,0.123346,15344.0,-2096.0,2104.0,14.0,2.0,-11.0
2923.0,2821.0,2911.0,3159.0,3051.0,0.747803,-0.058899,-0.659546,0.048401,-1.0,-2.0,0.0,7730.0,-1136.0,1017.0,-304.0,108.0,8.0,-45.0,61.0,-313.0,0.980719,-0.151935,0.123082,15550.0,-2466.0,2070.0,-19.0,-26.0,1.0
2919.0,2815.0,2906.0,3151.0,3055.0,0.747681,-0.05896,-0.659668,0.048401,-1.0,-2.0,0.0,7740.0,-1172.0,1002.0,-294.0,73.0,-3.0,-33.0,27.0,-299.0,0.980735,-0.152023,0.122731,15566.0,-2536.0,1916.0,-10.0,-31.0,1.0
2915.0,2819.0,2906.0,3155.0,3047.0,0.747559,-0.058838,-0.65979,0.048462,0.0,-1.0,-1.0,7809.0,-1171.0,1017.0,-225.0,73.0,14.0,-41.0,38.0,-230.0,0.980761,-0.151919,0.122408,15754.0,-2292.0,2074.0,12.0,-5.0,-4.0
2918.0,2821.0,2907.0,3155.0,3047.0,0.74762,-0.058777,-0.65979,0.048462,0.0,0.0,-1.0,7812.0,-1155.0,1011.0,-223.0,88.0,7.0,-34.0,53.0,-231.0,0.980847,-0.151835,0.122506,15606.0,-2254.0,1996.0,6.0,9.0,-3.0
2918.0,2799.0,2915.0,3163.0,3055.0,0.747681,-0.058716,-0.659668,0.048523,0.0,0.0,0.0,7768.0,-1174.0,985.0,-266.0,69.0,-20.0,-13.0,27.0,-273.0,0.980744,-0.151819,0.122771,15484.0,-2410.0,1934.0,16.0,3.0,6.0
2906.0,2818.0,2909.0,3151.0,3051.0,0.747681,-0.058655,-0.659668,0.048584,0.0,0.0,0.0,7781.0,-1172.0,991.0,-253.0,71.0,-14.0,-17.0,31.0,-260.0,0.980743,-0.151809,0.122785,15682.0,-2290.0,2050.0,21.0,12.0,4.0
2914.0,2815.0,2899.0,3157.0,3047.0,0.747803,-0.058594,-0.659546,0.048645,-1.0,-1.0,0.0,7676.0,-1151.0,987.0,-358.0,92.0,-21.0,-23.0,36.0,-367.0,0.98072,-0.1518,0.123141,14986.0,-2338.0,2000.0,-5.0,-10.0,6.0
2918.0,2821.0,2910.0,3153.0,3058.0,0.747681,-0.058655,-0.659668,0.048645,-1.0,-2.0,0.0,7675.0,-1168.0,992.0,-359.0,76.0,-13.0,-31.0,20.0,-365.0,0.980735,-0.151889,0.12279,15406.0,-2494.0,2006.0,-14.0,-40.0,14.0
2925.0,2821.0,2917.0,3159.0,3053.0,0.747437,-0.058716,-0.659912,0.048767,0.0,-1.0,0.0,7737.0,-1206.0,981.0,-297.0,40.0,-19.0,-17.0,-5.0,-299.0,0.980758,-0.152137,0.122108,15710.0,-2538.0,2028.0,9.0,-21.0,3.0
2915.0,2811.0,2909.0,3147.0,3054.0,0.747437,-0.058655,-0.659912,0.048828,0.0,0.0,-1.0,7776.0,-1208.0,984.0,-258.0,38.0,-16.0,-16.0,-1.0,-260.0,0.980757,-0.152126,0.122121,15728.0,-2444.0,1978.0,16.0,5.0,-2.0
2918.0,2827.0,2913.0,3159.0,3043.0,0.747559,-0.058533,-0.65979,0.048828,0.0,0.0,-1.0,7769.0,-1196.0,963.0,-265.0,48.0,-40.0,6.0,6.0,-272.0,0.980747,-0.151946,0.122479,15552.0,-2452.0,1976.0,7.0,18.0,-6.0
2927.0,2821.0,2914.0,3199.0,3051.0,0.747681,-0.058472,-0.659668,0.048767,0.0,1.0,-1.0,7780.0,-1184.0,977.0,-254.0,59.0,-29.0,-2.0,19.0,-261.0,0.980739,-0.151776,0.122824,15600.0,-2252.0,2008.0,1.0,25.0,-6.0
2923.0,2822.0,2911.0,3153.0,3055.0,0.747742,-0.058533,-0.659607,0.048645,-1.0,-1.0,-1.0,7672.0,-1211.0,966.0,-362.0,31.0,-41.0,-4.0,-24.0,-364.0,0.980737,-0.151708,0.122977,15186.0,-2646.0,1958.0,-14.0,-17.0,-6.0
2914.0,2815.0,2897.0,3151.0,3055.0,0.747681,-0.058533,-0.659668,0.048706,0.0,-2.0,0.0,7719.0,-1211.0,991.0,-315.0,32.0,-15.0,-24.0,-15.0,-315.0,0.98074,-0.151787,0.122811,15782.0,-2306.0,2108.0,10.0,-29.0,3.0
2923.0,2815.0,2903.0,3158.0,3055.0,0.747681,-0.058411,-0.659668,0.048645,-1.0,0.0,-1.0,7776.0,-1183.0,1001.0,-258.0,58.0,-5.0,-27.0,18.0,-262.0,0.980759,-0.151524,0.122819,15604.0,-2460.0,1938.0,-3.0,11.0,-8.0
2917.0,2823.0,2911.0,3163.0,3051.0,0.747742,-0.058411,-0.659607,0.048645,0.0,0.0,-1.0,7797.0,-1185.0,1004.0,-237.0,56.0,-3.0,-26.0,19.0,-241.0,0.980748,-0.151525,0.122991,15748.0,-2316.0,2068.0,8.0,18.0,-4.0
2919.0,2819.0,2909.0,3159.0,3047.0,0.748047,-0.058228,-0.659302,0.048645,0.0,1.0,-1.0,7779.0,-1170.0,997.0,-254.0,69.0,-17.0,-14.0,29.0,-261.0,0.980712,-0.151257,0.123871,15468.0,-2326.0,1958.0,14.0,37.0,-3.0
2915.0,2815.0,2899.0,3152.0,3051.0,0.748169,-0.058167,-0.65918,0.048706,0.0,1.0,0.0,7747.0,-1170.0,997.0,-286.0,69.0,-20.0,-16.0,24.0,-293.0,0.980689,-0.151249,0.124228,15238.0,-2304.0,2012.0,17.0,32.0,6.0
2919.0,2819.0,2907.0,3152.0,3055.0,0.748169,-0.058105,-0.65918,0.04895,0.0,-2.0,1.0,7685.0,-1152.0,997.0,-348.0,88.0,-20.0,-23.0,34.0,-357.0,0.980667,-0.151479,0.124259,15508.0,-2238.0,2142.0,17.0,-30.0,26.0
2921.0,2823.0,2915.0,3159.0,3055.0,0.748108,-0.058105,-0.659241,0.049011,0.0,-2.0,0.0,7728.0,-1117.0,1025.0,-305.0,124.0,8.0,-45.0,77.0,-316.0,0.980671,-0.151559,0.124093,15698.0,-2040.0,2182.0,9.0,-23.0,18.0
2923.0,2821.0,2911.0,3157.0,3051.0,0.748047,-0.058167,-0.659302,0.048889,-1.0,-1.0,0.0,7750.0,-1133.0,995.0,-283.0,107.0,-20.0,-15.0,62.0,-296.0,0.98069,-0.151488,0.123902,15542.0,-2380.0,1888.0,-20.0,-6.0,6.0
2919.0,2814.0,2907.0,3163.0,3051.0,0.747986,-0.058228,-0.659363,0.048889,-1.0,-1.0,0.0,7762.0,-1155.0,982.0,-271.0,86.0,-31.0,-3.0,43.0,-282.0,0.980695,-0.151578,0.123723,15620.0,-2436.0,1920.0,-6.0,-4.0,2.0
2915.0,2819.0,2899.0,3159.0,3047.0,0.748047,-0.058105,-0.659302,0.048828,0.0,0.0,-1.0,7779.0,-1143.0,968.0,-254.0,96.0,-47.0,14.0,55.0,-269.0,0.980703,-0.151316,0.123903,15632.0,-2146.0,1930.0,5.0,10.0,-8.0
2923.0,2820.0,2911.0,3162.0,3051.0,0.748108,-0.058105,-0.659241,0.048767,-1.0,1.0,-1.0,7794.0,-1144.0,971.0,-239.0,94.0,-45.0,14.0,56.0,-254.0,0.980699,-0.151237,0.124069,15650.0,-2314.0,1946.0,-11.0,28.0,-10.0
2923.0,2822.0,2913.0,3157.0,3055.0,0.748291,-0.058228,-0.659058,0.048523,-2.0,0.0,-1.0,7708.0,-1183.0,957.0,-325.0,54.0,-63.0,21.0,3.0,-334.0,0.980683,-0.151101,0.124547,15142.0,-2544.0,1912.0,-24.0,13.0,-4.0
2917.0,2819.0,2907.0,3155.0,3055.0,0.748291,-0.05835,-0.659058,0.048523,-1.0,-1.0,0.0,7692.0,-1217.0,976.0,-341.0,22.0,-44.0,0.0,-30.0,-343.0,0.980671,-0.151284,0.124532,15310.0,-2610.0,2066.0,-8.0,-11.0,3.0
2915.0,2815.0,2907.0,3153.0,3053.0,0.748169,-0.05835,-0.659119,0.048706,0.0,-1.0,0.0,7725.0,-1177.0,1017.0,-307.0,64.0,-1.0,-37.0,17.0,-310.0,0.98058,-0.151517,0.124287,15650.0,-2132.0,2036.0,8.0,-18.0,15.0
2925.0,2819.0,2915.0,3154.0,3055.0,0.748169,-0.05835,-0.65918,0.048645,-1.0,-1.0,0.0,7773.0,-1141.0,1024.0,-260.0,99.0,6.0,-38.0,59.0,-269.0,0.980679,-0.151442,0.124201,15848.0,-2160.0,2042.0,-14.0,-5.0,14.0
2919.0,2819.0,2911.0,3167.0,3047.0,0.74823,-0.05835,-0.659058,0.048645,0.0,0.0,-1.0,7757.0,-1181.0,999.0,-275.0,59.0,-20.0,-14.0,16.0,-281.0,0.980577,-0.151438,0.124453,15466.0,-2514.0,2008.0,13.0,15.0,-9.0
2922.0,2818.0,2907.0,3155.0,3047.0,0.748291,-0.058228,-0.658997,0.048706,1.0,0.0,-1.0,7753.0,-1183.0,1002.0,-279.0,56.0,-19.0,-16.0,13.0,-284.0,0.98057,-0.151337,0.124645,15514.0,-2340.0,2032.0,25.0,11.0,-10.0
2926.0,2815.0,2907.0,3154.0,3055.0,0.748352,-0.058167,-0.658936,0.048584,-2.0,-1.0,0.0,7728.0,-1120.0,988.0,-304.0,117.0,-34.0,-4.0,69.0,-320.0,0.98058,-0.151085,0.124812,15320.0,-2200.0,1884.0,-29.0,-4.0,5.0
2923.0,2823.0,2911.0,3158.0,3055.0,0.748291,-0.058289,-0.659058,0.048462,-2.0,-2.0,0.0,7714.0,-1145.0,977.0,-319.0,92.0,-43.0,2.0,42.0,-332.0,0.980684,-0.151112,0.124533,15370.0,-2436.0,1892.0,-35.0,-24.0,14.0
2919.0,2823.0,2915.0,3159.0,3051.0,0.748108,-0.058594,-0.65918,0.04834,-2.0,-1.0,0.0,7776.0,-1138.0,1003.0,-257.0,102.0,-13.0,-19.0,62.0,-269.0,0.98061,-0.151398,0.124051,15582.0,-2246.0,2014.0,-34.0,-4.0,7.0
2922.0,2819.0,2901.0,3154.0,3051.0,0.748108,-0.058777,-0.65918,0.048218,-2.0,-1.0,0.0,7767.0,-1159.0,1012.0,-266.0,82.0,-3.0,-30.0,41.0,-273.0,0.980607,-0.151511,0.124018,15438.0,-2468.0,2070.0,-43.0,-5.0,6.0
2923.0,2815.0,2899.0,3151.0,3047.0,0.748108,-0.05896,-0.65918,0.048035,-1.0,-1.0,-1.0,7762.0,-1163.0,1038.0,-271.0,78.0,22.0,-55.0,37.0,-274.0,0.980611,-0.151544,0.123979,15512.0,-2356.0,2110.0,-19.0,-1.0,-3.0
2923.0,2821.0,2915.0,3159.0,3055.0,0.748108,-0.059021,-0.65918,0.047974,-1.0,-1.0,-1.0,7747.0,-1155.0,1045.0,-286.0,86.0,29.0,-64.0,42.0,-289.0,0.980612,-0.151555,0.123966,15402.0,-2222.0,2158.0,-16.0,-7.0,-1.0
2927.0,2819.0,2906.0,3159.0,3055.0,0.748108,-0.059143,-0.659241,0.047791,-2.0,-1.0,-1.0,7723.0,-1141.0,1041.0,-311.0,100.0,26.0,-64.0,53.0,-316.0,0.980713,-0.151502,0.123853,15244.0,-2338.0,1952.0,-25.0,-15.0,-4.0
2923.0,2821.0,2910.0,3159.0,3071.0,0.747986,-0.059204,-0.659363,0.047668,-2.0,-2.0,-1.0,7705.0,-1168.0,1029.0,-329.0,72.0,17.0,-57.0,22.0,-331.0,0.980744,-0.151429,0.123491,15352.0,-2516.0,1986.0,-25.0,-36.0,-4.0
2915.0,2815.0,2928.0,3154.0,3045.0,0.747681,-0.059326,-0.659668,0.047607,-1.0,-2.0,-1.0,7755.0,-1175.0,1015.0,-279.0,66.0,10.0,-44.0,23.0,-282.0,0.980793,-0.151524,0.122611,15790.0,-2336.0,1954.0,-18.0,-33.0,-3.0
2923.0,2821.0,2910.0,3153.0,3047.0,0.747681,-0.059387,-0.659729,0.047424,-2.0,-1.0,-1.0,7816.0,-1164.0,1006.0,-219.0,76.0,2.0,-28.0,42.0,-226.0,0.9809,-0.15138,0.122506,16014.0,-2262.0,1984.0,-35.0,-1.0,-8.0
2919.0,2822.0,2911.0,3159.0,3045.0,0.747925,-0.059631,-0.659424,0.046997,-2.0,3.0,-1.0,7842.0,-1234.0,945.0,-192.0,4.0,-64.0,39.0,-26.0,-196.0,0.980794,-0.151182,0.123205,15560.0,-2758.0,1650.0,-31.0,70.0,-20.0
2918.0,2815.0,2902.0,3155.0,3024.0,0.748169,-0.059692,-0.65918,0.046875,-1.0,3.0,-1.0,7790.0,-1263.0,924.0,-244.0,-25.0,-90.0,58.0,-63.0,-246.0,0.980759,-0.151118,0.123873,15224.0,-2666.0,1752.0,-11.0,77.0,-21.0
2923.0,2823.0,2907.0,3155.0,3043.0,0.748474,-0.059692,-0.658813,0.046814,-1.0,0.0,-1.0,7659.0,-1220.0,922.0,-374.0,17.0,-100.0,51.0,-41.0,-381.0,0.980621,-0.15104,0.124807,15004.0,-2216.0,1938.0,-9.0,22.0,-1.0
2919.0,2821.0,2913.0,3157.0,3055.0,0.748413,-0.059814,-0.658875,0.046692,-2.0,-1.0,0.0,7635.0,-1196.0,949.0,-398.0,41.0,-71.0,20.0,-20.0,-405.0,0.980635,-0.15106,0.124609,15160.0,-2324.0,2052.0,-34.0,-12.0,8.0
2917.0,2821.0,2907.0,3159.0,3055.0,0.748291,-0.060181,-0.658997,0.04657,-2.0,-1.0,0.0,7712.0,-1196.0,989.0,-321.0,44.0,-28.0,-12.0,-5.0,-324.0,0.980637,-0.151444,0.12421,15770.0,-2428.0,2118.0,-26.0,-21.0,13.0
2918.0,2817.0,2910.0,3151.0,3050.0,0.748291,-0.060242,-0.658997,0.04657,-1.0,0.0,0.0,7765.0,-1197.0,1008.0,-268.0,44.0,-9.0,-24.0,3.0,-270.0,0.980632,-0.151535,0.124203,15786.0,-2400.0,2092.0,-9.0,2.0,5.0
2919.0,2815.0,2902.0,3163.0,3051.0,0.748535,-0.060059,-0.658691,0.04657,1.0,2.0,-1.0,7817.0,-1160.0,1020.0,-215.0,79.0,-3.0,-23.0,45.0,-223.0,0.980514,-0.151262,0.124992,15516.0,-2076.0,2094.0,26.0,57.0,-9.0
2919.0,2823.0,2911.0,3153.0,3053.0,0.748779,-0.059937,-0.658508,0.04657,0.0,1.0,-1.0,7763.0,-1103.0,1020.0,-269.0,134.0,-9.0,-24.0,92.0,-285.0,0.980572,-0.151092,0.125614,15162.0,-1872.0,2092.0,1.0,44.0,-1.0
2928.0,2823.0,2911.0,3155.0,3051.0,0.748718,-0.06012,-0.658508,0.046387,-2.0,-2.0,0.0,7689.0,-1086.0,1015.0,-343.0,151.0,-12.0,-30.0,97.0,-360.0,0.980497,-0.151117,0.125483,15306.0,-2180.0,2048.0,-30.0,-30.0,16.0
2923.0,2815.0,2907.0,3155.0,3051.0,0.748596,-0.060242,-0.658691,0.046326,-1.0,-3.0,0.0,7690.0,-1104.0,1003.0,-343.0,134.0,-21.0,-21.0,80.0,-359.0,0.980606,-0.151222,0.125039,15404.0,-2334.0,1916.0,-17.0,-52.0,14.0
2922.0,2815.0,2901.0,3151.0,3055.0,0.748108,-0.060364,-0.65918,0.046387,-1.0,-3.0,0.0,7770.0,-1116.0,1015.0,-263.0,124.0,2.0,-34.0,83.0,-276.0,0.980675,-0.151472,0.123655,16022.0,-2370.0,2134.0,-16.0,-59.0,18.0
2919.0,2822.0,2911.0,3159.0,3055.0,0.748047,-0.060425,-0.659241,0.046387,-1.0,-1.0,0.0,7837.0,-1136.0,1014.0,-196.0,105.0,2.0,-25.0,74.0,-207.0,0.98068,-0.151561,0.123476,16074.0,-2380.0,1994.0,-2.0,-15.0,11.0
2925.0,2819.0,2915.0,3159.0,3051.0,0.748352,-0.060242,-0.658936,0.046448,1.0,4.0,-1.0,7930.0,-1180.0,977.0,-103.0,60.0,-41.0,28.0,42.0,-115.0,0.980635,-0.151376,0.124363,15946.0,-2340.0,1740.0,33.0,93.0,-15.0
2910.0,2815.0,2907.0,3153.0,3047.0,0.748779,-0.06012,-0.658447,0.046387,0.0,5.0,-1.0,7874.0,-1160.0,955.0,-158.0,77.0,-74.0,53.0,50.0,-175.0,0.980486,-0.151119,0.125655,15238.0,-2212.0,1780.0,20.0,126.0,-17.0
2918.0,2819.0,2902.0,3155.0,3047.0,0.749146,-0.060181,-0.65802,0.046204,-1.0,0.0,0.0,7615.0,-1169.0,918.0,-415.0,67.0,-120.0,65.0,1.0,-432.0,0.980344,-0.150974,0.126742,14824.0,-2474.0,1888.0,-19.0,9.0,3.0
2919.0,2822.0,2911.0,3159.0,3055.0,0.749084,-0.060303,-0.658142,0.046265,-1.0,-2.0,0.0,7564.0,-1160.0,930.0,-467.0,78.0,-106.0,45.0,4.0,-483.0,0.980428,-0.151241,0.126481,14808.0,-2166.0,1894.0,-14.0,-29.0,11.0
2926.0,2823.0,2911.0,3157.0,3053.0,0.748535,-0.060669,-0.658691,0.046021,-3.0,-5.0,0.0,7586.0,-1164.0,983.0,-446.0,76.0,-39.0,-17.0,7.0,-453.0,0.980523,-0.151452,0.124868,15512.0,-2394.0,2158.0,-59.0,-97.0,10.0
2923.0,2818.0,2903.0,3155.0,3047.0,0.74823,-0.060913,-0.659058,0.045898,-3.0,-4.0,-1.0,7718.0,-1180.0,1017.0,-315.0,62.0,2.0,-41.0,14.0,-318.0,0.980662,-0.151653,0.123887,16332.0,-2404.0,2228.0,-53.0,-76.0,-4.0
2919.0,2819.0,2903.0,3155.0,3055.0,0.748413,-0.060913,-0.658875,0.04541,-1.0,2.0,-2.0,7872.0,-1251.0,1023.0,-161.0,-13.0,4.0,-24.0,-36.0,-155.0,0.980688,-0.151015,0.124358,15568.0,-2696.0,1896.0,-7.0,67.0,-44.0
2923.0,2823.0,2911.0,3159.0,3051.0,0.748596,-0.060791,-0.65863,0.045349,1.0,2.0,-2.0,7808.0,-1253.0,1013.0,-224.0,-18.0,-10.0,-19.0,-51.0,-218.0,0.980583,-0.150752,0.124963,15236.0,-2414.0,2030.0,28.0,60.0,-43.0
2925.0,2826.0,2911.0,3159.0,3055.0,0.748901,-0.060425,-0.658386,0.045166,-1.0,0.0,-1.0,7736.0,-1142.0,1050.0,-297.0,86.0,19.0,-56.0,41.0,-301.0,0.980674,-0.149978,0.12577,15378.0,-2050.0,2224.0,-10.0,2.0,-12.0
2919.0,2815.0,2907.0,3151.0,3053.0,0.74884,-0.060486,-0.658447,0.045044,-2.0,-1.0,0.0,7707.0,-1155.0,1048.0,-326.0,73.0,19.0,-59.0,24.0,-328.0,0.980695,-0.149907,0.125579,15240.0,-2414.0,2062.0,-30.0,-16.0,1.0
2927.0,2817.0,2902.0,3159.0,3047.0,0.748596,-0.060547,-0.658752,0.045105,0.0,-3.0,-1.0,7738.0,-1190.0,1070.0,-296.0,39.0,47.0,-84.0,-3.0,-290.0,0.980817,-0.150076,0.12481,15784.0,-2292.0,2330.0,12.0,-51.0,-5.0
2919.0,2821.0,2911.0,3155.0,3055.0,0.748535,-0.060425,-0.658813,0.045044,0.0,-2.0,-1.0,7791.0,-1166.0,1076.0,-244.0,61.0,54.0,-84.0,26.0,-241.0,0.980847,-0.149811,0.124647,15870.0,-2242.0,2168.0,3.0,-26.0,-10.0
2922.0,2825.0,2911.0,3159.0,3055.0,0.748596,-0.060425,-0.658752,0.044922,-1.0,1.0,-1.0,7848.0,-1180.0,1041.0,-187.0,45.0,18.0,-41.0,17.0,-187.0,0.98085,-0.149652,0.124808,15670.0,-2350.0,1972.0,-2.0,33.0,-15.0
2919.0,2829.0,2907.0,3153.0,3046.0,0.748718,-0.060303,-0.65863,0.0448,0.0,1.0,-2.0,7790.0,-1172.0,1014.0,-245.0,51.0,-11.0,-19.0,14.0,-249.0,0.980854,-0.149313,0.125156,15212.0,-2268.0,1884.0,4.0,41.0,-28.0
2923.0,2817.0,2907.0,3153.0,3051.0,0.748779,-0.060181,-0.658569,0.044617,-1.0,-1.0,-1.0,7706.0,-1161.0,977.0,-329.0,58.0,-49.0,7.0,7.0,-337.0,0.980876,-0.14889,0.125326,15174.0,-2304.0,1896.0,-4.0,-5.0,-9.0
2922.0,2815.0,2911.0,3157.0,3053.0,0.748718,-0.060181,-0.658691,0.044556,-1.0,-2.0,-1.0,7677.0,-1169.0,964.0,-359.0,50.0,-60.0,14.0,-4.0,-367.0,0.980986,-0.148814,0.125068,15256.0,-2446.0,1894.0,-9.0,-29.0,-9.0
2923.0,2821.0,2910.0,3159.0,3055.0,0.748535,-0.060242,-0.658875,0.044556,-1.0,-1.0,0.0,7728.0,-1141.0,968.0,-308.0,78.0,-52.0,13.0,30.0,-320.0,0.981013,-0.148899,0.124545,15556.0,-2106.0,1922.0,-12.0,-13.0,0.0
2923.0,2815.0,2905.0,3155.0,3051.0,0.748474,-0.060242,-0.658936,0.044434,-1.0,-1.0,-1.0,7759.0,-1152.0,974.0,-277.0,66.0,-44.0,9.0,23.0,-287.0,0.981039,-0.148736,0.124363,15756.0,-2454.0,1986.0,-22.0,-3.0,-4.0
2917.0,2815.0,2906.0,3155.0,3051.0,0.748657,-0.06012,-0.658691,0.044373,1.0,1.0,-1.0,7795.0,-1170.0,985.0,-240.0,46.0,-38.0,7.0,9.0,-247.0,0.980933,-0.148474,0.124968,15582.0,-2330.0,2030.0,25.0,43.0,-18.0
2922.0,2822.0,2911.0,3159.0,3054.0,0.74884,-0.059937,-0.658508,0.044373,1.0,2.0,-1.0,7781.0,-1154.0,988.0,-254.0,60.0,-40.0,7.0,21.0,-263.0,0.980916,-0.148205,0.125505,15434.0,-2178.0,2024.0,30.0,50.0,-15.0
2923.0,2819.0,2907.0,3159.0,3054.0,0.749146,-0.059753,-0.658203,0.044312,-1.0,1.0,-1.0,7701.0,-1108.0,979.0,-334.0,103.0,-56.0,13.0,51.0,-349.0,0.980884,-0.14786,0.126381,15030.0,-2116.0,1878.0,-2.0,25.0,-7.0
2919.0,2819.0,2907.0,3155.0,3051.0,0.749084,-0.059814,-0.658264,0.04425,-2.0,-2.0,0.0,7643.0,-1096.0,971.0,-392.0,115.0,-62.0,12.0,54.0,-409.0,0.980897,-0.147869,0.126196,15032.0,-2156.0,1944.0,-23.0,-23.0,5.0
2919.0,2815.0,2910.0,3157.0,3053.0,0.748718,-0.060059,-0.658691,0.044189,-1.0,-2.0,0.0,7713.0,-1124.0,984.0,-323.0,89.0,-40.0,0.0,39.0,-335.0,0.981041,-0.148148,0.12505,15622.0,-2256.0,1996.0,-19.0,-43.0,12.0
2927.0,2822.0,2910.0,3162.0,3055.0,0.748596,-0.06012,-0.658813,0.044128,-1.0,-2.0,0.0,7760.0,-1119.0,984.0,-276.0,94.0,-37.0,2.0,51.0,-289.0,0.981065,-0.148155,0.124694,15844.0,-2250.0,1998.0,-19.0,-31.0,4.0
2925.0,2821.0,2911.0,3159.0,3051.0,0.748657,-0.060181,-0.658752,0.044067,0.0,1.0,0.0,7833.0,-1112.0,984.0,-203.0,101.0,-38.0,12.0,69.0,-218.0,0.981056,-0.148168,0.124853,15730.0,-2166.0,1970.0,2.0,36.0,4.0
2919.0,2817.0,2909.0,3154.0,3051.0,0.74884,-0.06012,-0.658569,0.044067,0.0,2.0,-1.0,7795.0,-1106.0,983.0,-241.0,107.0,-44.0,14.0,69.0,-257.0,0.981028,-0.148083,0.125376,15224.0,-2154.0,1908.0,8.0,48.0,-5.0
2918.0,2815.0,2907.0,3157.0,3051.0,0.748901,-0.060059,-0.658447,0.044006,-1.0,-1.0,0.0,7716.0,-1086.0,1008.0,-319.0,125.0,-21.0,-18.0,76.0,-334.0,0.980938,-0.147908,0.12563,15372.0,-2154.0,2106.0,-4.0,-8.0,10.0
2923.0,2821.0,2909.0,3159.0,3054.0,0.748901,-0.06012,-0.658508,0.044067,-1.0,-1.0,0.0,7697.0,-1090.0,1021.0,-339.0,123.0,-7.0,-35.0,72.0,-351.0,0.981017,-0.148085,0.125548,15218.0,-2200.0,2044.0,-2.0,-20.0,16.0
2928.0,2823.0,2909.0,3153.0,3055.0,0.731323,-0.086853,-0.675049,0.044128,0.0,-2.0,2.0,7706.0,-1480.0,578.0,-319.0,48.0,-24.0,0.0,-12.0,-323.0,0.979692,-0.186613,0.073547,15610.0,-3096.0,1226.0,13.0,-31.0,48.0
2928.0,2817.0,2915.0,3155.0,3055.0,0.731262,-0.087097,-0.675049,0.044556,-1.0,0.0,1.0,7806.0,-1488.0,608.0,-218.0,48.0,6.0,-21.0,7.0,-222.0,0.979514,-0.187536,0.073453,15872.0,-2994.0,1170.0,-1.0,12.0,44.0
2927.0,2815.0,2907.0,3153.0,3053.0,0.731323,-0.087219,-0.674927,0.044617,-1.0,1.0,0.0,7835.0,-1497.0,609.0,-188.0,41.0,5.0,-18.0,6.0,-191.0,0.979396,-0.187797,0.073691,15846.0,-3118.0,1228.0,-8.0,31.0,22.0
2925.0,2815.0,2903.0,3153.0,3054.0,0.73175,-0.087158,-0.674438,0.044678,1.0,2.0,-1.0,7765.0,-1539.0,594.0,-257.0,0.0,-20.0,-2.0,-48.0,-253.0,0.979253,-0.187821,0.074991,15022.0,-3088.0,1054.0,33.0,66.0,-18.0
2927.0,2823.0,2907.0,3159.0,3055.0,0.731934,-0.087036,-0.674316,0.0448,1.0,1.0,-1.0,7684.0,-1526.0,578.0,-338.0,12.0,-40.0,11.0,-52.0,-336.0,0.979311,-0.187828,0.075456,14914.0,-2958.0,1044.0,32.0,28.0,-13.0
2927.0,2823.0,2907.0,3153.0,3056.0,0.73175,-0.086914,-0.6745,0.044983,-1.0,-3.0,0.0,7600.0,-1483.0,579.0,-422.0,56.0,-35.0,1.0,-24.0,-426.0,0.979311,-0.187881,0.074979,15154.0,-2910.0,1186.0,-1.0,-54.0,13.0
2927.0,2819.0,2907.0,3152.0,3054.0,0.731506,-0.087036,-0.674744,0.045044,-1.0,-3.0,0.0,7658.0,-1506.0,607.0,-364.0,35.0,-1.0,-28.0,-32.0,-363.0,0.979318,-0.188121,0.074276,15778.0,-3192.0,1402.0,-13.0,-66.0,19.0
2928.0,2815.0,2907.0,3151.0,3051.0,0.731384,-0.087158,-0.674866,0.045166,0.0,0.0,-1.0,7786.0,-1547.0,621.0,-236.0,-3.0,15.0,-35.0,-45.0,-229.0,0.979299,-0.188454,0.073923,15884.0,-3110.0,1280.0,7.0,3.0,-2.0
2928.0,2819.0,2911.0,3159.0,3055.0,0.731506,-0.087097,-0.674744,0.045166,0.0,1.0,-1.0,7813.0,-1552.0,638.0,-209.0,-8.0,29.0,-47.0,-44.0,-201.0,0.979291,-0.188375,0.074277,15714.0,-3116.0,1376.0,11.0,31.0,-13.0
2927.0,2821.0,2911.0,3158.0,3055.0,0.731934,-0.086914,-0.674316,0.045166,0.0,2.0,-1.0,7770.0,-1539.0,663.0,-252.0,2.0,44.0,-65.0,-41.0,-243.0,0.979259,-0.188143,0.07551,15276.0,-2984.0,1390.0,20.0,48.0,-11.0
2927.0,2821.0,2911.0,3157.0,3055.0,0.732056,-0.086853,-0.674133,0.045166,0.0,1.0,-1.0,7708.0,-1482.0,654.0,-313.0,58.0,31.0,-55.0,1.0,-315.0,0.979161,-0.188058,0.075946,15040.0,-2584.0,1212.0,14.0,26.0,-7.0
2927.0,2817.0,2899.0,3152.0,3051.0,0.731995,-0.086914,-0.674194,0.045105,-1.0,-1.0,0.0,7702.0,-1454.0,671.0,-319.0,86.0,50.0,-73.0,29.0,-324.0,0.979173,-0.18806,0.075759,15442.0,-2804.0,1386.0,-16.0,-18.0,15.0
2928.0,2819.0,2909.0,3159.0,3055.0,0.731934,-0.087036,-0.674255,0.045044,-2.0,-2.0,0.0,7701.0,-1448.0,663.0,-320.0,93.0,44.0,-66.0,35.0,-327.0,0.979179,-0.188152,0.07556,15432.0,-2856.0,1330.0,-31.0,-24.0,15.0
2927.0,2819.0,2911.0,3155.0,3053.0,0.731812,-0.087341,-0.674438,0.044922,-2.0,-1.0,0.0,7769.0,-1504.0,640.0,-253.0,39.0,25.0,-44.0,-6.0,-253.0,0.979277,-0.188429,0.07507,15830.0,-3218.0,1210.0,-25.0,-15.0,8.0
2927.0,2819.0,2907.0,3155.0,3051.0,0.731812,-0.087402,-0.674377,0.044922,-1.0,0.0,-1.0,7811.0,-1529.0,633.0,-210.0,15.0,17.0,-34.0,-22.0,-207.0,0.979182,-0.188513,0.075142,15856.0,-3210.0,1206.0,-3.0,13.0,-11.0
2923.0,2817.0,2902.0,3155.0,3053.0,0.732056,-0.087219,-0.674194,0.0448,0.0,1.0,-2.0,7796.0,-1496.0,617.0,-226.0,44.0,-3.0,-14.0,1.0,-229.0,0.979281,-0.188106,0.075767,15470.0,-2802.0,1196.0,8.0,26.0,-24.0
2927.0,2821.0,2911.0,3159.0,3056.0,0.732117,-0.087036,-0.674133,0.044678,0.0,1.0,-2.0,7773.0,-1453.0,618.0,-249.0,84.0,-4.0,-13.0,36.0,-259.0,0.979311,-0.187679,0.07596,15382.0,-2640.0,1216.0,3.0,24.0,-24.0
2928.0,2823.0,2906.0,3154.0,3055.0,0.732117,-0.086914,-0.674133,0.044434,-1.0,-2.0,0.0,7696.0,-1406.0,606.0,-326.0,127.0,-16.0,-5.0,64.0,-344.0,0.979365,-0.187171,0.075959,15288.0,-2660.0,1218.0,-9.0,-25.0,0.0
2925.0,2815.0,2911.0,3155.0,3055.0,0.731995,-0.086975,-0.674316,0.044434,-1.0,-2.0,0.0,7722.0,-1390.0,609.0,-301.0,143.0,-9.0,-9.0,84.0,-322.0,0.979463,-0.187255,0.075523,15696.0,-2720.0,1240.0,-19.0,-42.0,12.0
2927.0,2818.0,2906.0,3155.0,3055.0,0.73175,-0.087097,-0.6745,0.044373,-1.0,-1.0,0.0,7775.0,-1421.0,603.0,-248.0,113.0,-10.0,-5.0,64.0,-264.0,0.979401,-0.187325,0.074892,15616.0,-2982.0,1186.0,-1.0,-17.0,4.0
2927.0,2823.0,2907.0,3157.0,3055.0,0.73175,-0.086975,-0.674561,0.044434,0.0,-1.0,-1.0,7793.0,-1439.0,601.0,-230.0,94.0,-12.0,-2.0,49.0,-243.0,0.979491,-0.187234,0.074837,15698.0,-2968.0,1178.0,21.0,-9.0,-5.0
2929.0,2823.0,2903.0,3155.0,3054.0,0.731812,-0.086609,-0.6745,0.044617,1.0,0.0,-1.0,7764.0,-1413.0,590.0,-259.0,118.0,-25.0,8.0,66.0,-277.0,0.979485,-0.186951,0.075088,15340.0,-2624.0,1134.0,39.0,7.0,-3.0
2927.0,2819.0,2909.0,3155.0,3053.0,0.731812,-0.086487,-0.6745,0.044678,0.0,-1.0,0.0,7722.0,-1385.0,580.0,-301.0,145.0,-35.0,16.0,85.0,-324.0,0.979485,-0.186854,0.075115,15148.0,-2634.0,1084.0,10.0,-6.0,16.0
2927.0,2815.0,2906.0,3151.0,3053.0,0.731506,-0.086792,-0.674805,0.0448,-1.0,-3.0,1.0,7699.0,-1435.0,562.0,-324.0,100.0,-45.0,22.0,35.0,-339.0,0.979471,-0.18744,0.074214,15554.0,-3112.0,1118.0,-9.0,-48.0,38.0
2927.0,2823.0,2903.0,3157.0,3055.0,0.731384,-0.086853,-0.674927,0.044983,0.0,-2.0,1.0,7738.0,-1469.0,554.0,-285.0,69.0,-51.0,30.0,12.0,-295.0,0.979448,-0.187766,0.073877,15682.0,-3102.0,1050.0,18.0,-25.0,24.0
2928.0,2823.0,2910.0,3157.0,3055.0,0.731323,-0.086731,-0.674988,0.045227,0.0,0.0,0.0,7770.0,-1471.0,538.0,-253.0,68.0,-66.0,47.0,15.0,-265.0,0.979423,-0.187912,0.073748,15608.0,-2964.0,1114.0,17.0,6.0,0.0
2927.0,2819.0,2903.0,3157.0,3055.0,0.731384,-0.08667,-0.674927,0.045227,0.0,1.0,-1.0,7784.0,-1475.0,549.0,-239.0,63.0,-56.0,38.0,14.0,-250.0,0.979422,-0.187828,0.073931,15606.0,-2954.0,1196.0,18.0,29.0,-7.0
2927.0,2819.0,2902.0,3154.0,3035.0,0.731689,-0.086609,-0.674561,0.045227,0.0,1.0,0.0,7742.0,-1484.0,544.0,-280.0,54.0,-69.0,47.0,-2.0,-289.0,0.979304,-0.187758,0.074882,15316.0,-3070.0,1070.0,3.0,44.0,0.0
2928.0,2823.0,2911.0,3159.0,3055.0,0.731812,-0.086609,-0.674438,0.045288,0.0,1.0,0.0,7709.0,-1502.0,549.0,-313.0,36.0,-67.0,41.0,-26.0,-318.0,0.979279,-0.187851,0.075231,15200.0,-3104.0,1150.0,8.0,32.0,2.0
2927.0,2818.0,2911.0,3159.0,3055.0,0.731873,-0.086548,-0.674377,0.045471,1.0,-1.0,0.0,7699.0,-1529.0,591.0,-322.0,11.0,-26.0,-1.0,-49.0,-319.0,0.979246,-0.188013,0.07543,15458.0,-3122.0,1364.0,25.0,-5.0,0.0
2927.0,2819.0,2903.0,3153.0,3053.0,0.731873,-0.086426,-0.674377,0.045593,1.0,-1.0,0.0,7707.0,-1526.0,611.0,-314.0,14.0,-7.0,-19.0,-44.0,-310.0,0.979236,-0.187999,0.075462,15478.0,-3032.0,1310.0,28.0,-15.0,0.0
2926.0,2819.0,2906.0,3155.0,3055.0,0.731873,-0.086243,-0.674377,0.045776,1.0,0.0,0.0,7801.0,-1491.0,671.0,-220.0,48.0,52.0,-68.0,10.0,-220.0,0.979221,-0.187978,0.07551,15814.0,-2794.0,1504.0,25.0,7.0,1.0
2930.0,2823.0,2907.0,3155.0,3055.0,0.731995,-0.086121,-0.674316,0.045776,0.0,0.0,-1.0,7795.0,-1449.0,690.0,-227.0,89.0,69.0,-83.0,50.0,-233.0,0.979307,-0.187815,0.075792,15506.0,-2622.0,1478.0,2.0,14.0,-2.0
2929.0,2823.0,2910.0,3159.0,3055.0,0.732117,-0.086243,-0.674194,0.045471,-2.0,0.0,-1.0,7776.0,-1461.0,712.0,-246.0,75.0,88.0,-105.0,34.0,-248.0,0.979335,-0.187592,0.076087,15404.0,-3150.0,1398.0,-30.0,1.0,-12.0
2927.0,2823.0,2906.0,3155.0,3053.0,0.732056,-0.086243,-0.674194,0.045349,-1.0,-1.0,-1.0,7739.0,-1485.0,711.0,-283.0,50.0,88.0,-109.0,3.0,-279.0,0.979273,-0.187417,0.075986,15264.0,-3080.0,1438.0,-6.0,-14.0,-18.0
2927.0,2819.0,2903.0,3151.0,3051.0,0.731934,-0.086121,-0.674438,0.045288,-1.0,-2.0,-1.0,7737.0,-1455.0,703.0,-286.0,78.0,84.0,-104.0,29.0,-288.0,0.979488,-0.187157,0.075494,15544.0,-2864.0,1332.0,-5.0,-41.0,-10.0
2927.0,2823.0,2911.0,3159.0,3055.0,0.73175,-0.086121,-0.674561,0.045227,-1.0,-2.0,-1.0,7745.0,-1457.0,688.0,-278.0,75.0,73.0,-92.0,27.0,-280.0,0.97943,-0.187054,0.075056,15530.0,-2922.0,1302.0,-12.0,-42.0,-1.0
2928.0,2819.0,2911.0,3159.0,3056.0,0.731506,-0.086182,-0.674866,0.045227,-1.0,-2.0,0.0,7784.0,-1472.0,670.0,-240.0,60.0,61.0,-78.0,19.0,-241.0,0.979542,-0.187129,0.074276,15788.0,-3060.0,1236.0,-9.0,-30.0,1.0
2927.0,2821.0,2907.0,3157.0,3055.0,0.731506,-0.086121,-0.674866,0.045166,0.0,-1.0,-1.0,7799.0,-1495.0,652.0,-225.0,36.0,43.0,-60.0,-2.0,-223.0,0.979558,-0.186958,0.074281,15628.0,-3140.0,1194.0,4.0,0.0,-9.0
2927.0,2815.0,2903.0,3151.0,3051.0,0.731506,-0.085938,-0.674866,0.045166,0.0,-1.0,-1.0,7749.0,-1482.0,604.0,-275.0,47.0,-4.0,-17.0,-4.0,-278.0,0.979574,-0.18669,0.074313,15426.0,-2938.0,1082.0,17.0,-1.0,-19.0
2928.0,2823.0,2909.0,3159.0,3057.0,0.731567,-0.085815,-0.674866,0.045166,1.0,0.0,-1.0,7735.0,-1480.0,587.0,-290.0,47.0,-22.0,0.0,-8.0,-294.0,0.979668,-0.186522,0.074423,15326.0,-2916.0,1026.0,24.0,4.0,-21.0
2925.0,2823.0,2909.0,3159.0,3055.0,0.731506,-0.085571,-0.674988,0.045166,0.0,-1.0,-1.0,7700.0,-1450.0,561.0,-326.0,75.0,-46.0,21.0,11.0,-336.0,0.979786,-0.186165,0.074211,15280.0,-2828.0,1090.0,6.0,-13.0,-11.0
2928.0,2819.0,2903.0,3154.0,3051.0,0.731384,-0.08551,-0.675049,0.045105,-1.0,-2.0,-1.0,7703.0,-1443.0,556.0,-322.0,80.0,-49.0,25.0,16.0,-333.0,0.979726,-0.185978,0.073954,15478.0,-2856.0,1068.0,-4.0,-23.0,-3.0
2927.0,2819.0,2901.0,3153.0,3051.0,0.731323,-0.085571,-0.675171,0.045044,-1.0,-1.0,0.0,7757.0,-1446.0,570.0,-269.0,77.0,-33.0,13.0,24.0,-280.0,0.979827,-0.185985,0.073684,15680.0,-2940.0,1170.0,-6.0,0.0,3.0
2927.0,2821.0,2914.0,3158.0,3055.0,0.731323,-0.085571,-0.67511,0.045044,-1.0,0.0,0.0,7775.0,-1453.0,571.0,-251.0,70.0,-33.0,15.0,21.0,-261.0,0.979738,-0.18598,0.073767,15654.0,-2920.0,1212.0,-4.0,13.0,1.0
2927.0,2821.0,2909.0,3159.0,3051.0,0.731506,-0.085571,-0.674927,0.044983,-1.0,1.0,-1.0,7788.0,-1453.0,591.0,-237.0,69.0,-17.0,0.0,23.0,-246.0,0.979728,-0.185912,0.074276,15704.0,-2876.0,1266.0,-2.0,26.0,-3.0
2926.0,2819.0,2907.0,3152.0,3054.0,0.731689,-0.08551,-0.674805,0.044922,0.0,1.0,-1.0,7799.0,-1450.0,590.0,-227.0,71.0,-22.0,6.0,27.0,-237.0,0.979812,-0.185761,0.074714,15618.0,-2896.0,1136.0,7.0,45.0,-18.0
2927.0,2822.0,2907.0,3155.0,3061.0,0.731934,-0.085205,-0.674561,0.044861,1.0,0.0,-1.0,7728.0,-1443.0,580.0,-298.0,74.0,-38.0,15.0,16.0,-308.0,0.979822,-0.185252,0.075447,15250.0,-2836.0,1192.0,30.0,17.0,-21.0
2928.0,2821.0,2911.0,3159.0,3055.0,0.731934,-0.084961,-0.674561,0.044861,1.0,-1.0,-1.0,7722.0,-1409.0,591.0,-304.0,105.0,-27.0,5.0,46.0,-319.0,0.979844,-0.184894,0.075489,15464.0,-2586.0,1250.0,28.0,-1.0,-11.0
2929.0,2822.0,2909.0,3163.0,3055.0,0.731873,-0.084961,-0.674683,0.0448,-1.0,-2.0,0.0,7733.0,-1384.0,599.0,-294.0,129.0,-17.0,-1.0,72.0,-313.0,0.979951,-0.184812,0.075229,15554.0,-2824.0,1198.0,-19.0,-24.0,17.0
2926.0,2819.0,2903.0,3155.0,3055.0,0.73175,-0.085083,-0.674744,0.044861,-1.0,-2.0,0.0,7770.0,-1403.0,590.0,-256.0,112.0,-24.0,7.0,62.0,-273.0,0.979854,-0.185058,0.074953,15850.0,-2912.0,1190.0,-16.0,-24.0,19.0
2928.0,2822.0,2909.0,3154.0,3055.0,0.73175,-0.085205,-0.674683,0.0448,-1.0,0.0,0.0,7787.0,-1397.0,590.0,-239.0,119.0,-24.0,9.0,72.0,-257.0,0.979764,-0.185149,0.075009,15362.0,-2828.0,1138.0,-10.0,14.0,10.0
2929.0,2823.0,2911.0,3157.0,3054.0,0.73175,-0.085266,-0.674683,0.0448,-1.0,-1.0,0.0,7779.0,-1419.0,600.0,-247.0,98.0,-14.0,-2.0,50.0,-261.0,0.979759,-0.185238,0.074999,15568.0,-3020.0,1254.0,-6.0,-1.0,11.0
2931.0,2837.0,2902.0,3191.0,3051.0,0.731812,-0.085144,-0.674683,0.044983,1.0,-1.0,0.0,7732.0,-1443.0,588.0,-294.0,75.0,-27.0,5.0,18.0,-303.0,0.979821,-0.185317,0.075125,15234.0,-2898.0,1160.0,30.0,-3.0,0.0
2923.0,2819.0,2903.0,3157.0,3053.0,0.731812,-0.085022,-0.674683,0.045105,1.0,-1.0,0.0,7715.0,-1432.0,597.0,-311.0,86.0,-18.0,-4.0,27.0,-322.0,0.979811,-0.185303,0.075157,15356.0,-2808.0,1152.0,30.0,-14.0,3.0
2928.0,2822.0,2903.0,3155.0,3055.0,0.731689,-0.084839,-0.674866,0.045227,0.0,-1.0,0.0,7722.0,-1420.0,576.0,-305.0,97.0,-36.0,14.0,37.0,-319.0,0.97991,-0.185196,0.074774,15452.0,-2932.0,1100.0,8.0,-16.0,3.0
2928.0,2823.0,2911.0,3159.0,3055.0,0.731567,-0.0849,-0.674927,0.045288,0.0,-1.0,0.0,7733.0,-1430.0,572.0,-293.0,88.0,-38.0,17.0,30.0,-306.0,0.979819,-0.185352,0.074508,15560.0,-2890.0,1178.0,4.0,-18.0,10.0
2927.0,2821.0,2910.0,3159.0,3055.0,0.731506,-0.084961,-0.674988,0.045288,-1.0,-1.0,0.0,7744.0,-1438.0,564.0,-282.0,81.0,-44.0,23.0,25.0,-294.0,0.97982,-0.185437,0.074326,15466.0,-3030.0,1094.0,-21.0,0.0,8.0
2926.0,2819.0,2906.0,3155.0,3055.0,0.731506,-0.085144,-0.674988,0.045288,-1.0,0.0,0.0,7739.0,-1479.0,570.0,-287.0,42.0,-38.0,15.0,-13.0,-291.0,0.979804,-0.185705,0.074294,15458.0,-3228.0,1208.0,-16.0,1.0,16.0
2922.0,2821.0,2909.0,3155.0,3047.0,0.731567,-0.085205,-0.674866,0.045532,1.0,0.0,-1.0,7758.0,-1523.0,599.0,-267.0,1.0,-11.0,-11.0,-48.0,-262.0,0.97966,-0.186123,0.07456,15646.0,-3040.0,1368.0,29.0,15.0,-2.0
2926.0,2821.0,2910.0,3159.0,3055.0,0.731689,-0.085022,-0.674744,0.045593,1.0,0.0,-1.0,7748.0,-1488.0,622.0,-277.0,35.0,8.0,-29.0,-15.0,-277.0,0.979653,-0.185947,0.07494,15376.0,-2732.0,1388.0,25.0,22.0,-9.0
2928.0,2815.0,2907.0,3163.0,3055.0,0.73175,-0.085022,-0.674744,0.045532,-1.0,-1.0,0.0,7709.0,-1503.0,654.0,-317.0,19.0,39.0,-64.0,-36.0,-311.0,0.979746,-0.185875,0.075024,15374.0,-3112.0,1396.0,0.0,-21.0,3.0
2925.0,2821.0,2907.0,3154.0,3055.0,0.731689,-0.084961,-0.674805,0.045654,0.0,-2.0,0.0,7716.0,-1497.0,666.0,-310.0,26.0,52.0,-76.0,-27.0,-304.0,0.979737,-0.185946,0.074874,15482.0,-2872.0,1378.0,17.0,-34.0,1.0
2926.0,2821.0,2903.0,3155.0,3055.0,0.731445,-0.0849,-0.675049,0.045593,-2.0,-2.0,0.0,7755.0,-1437.0,661.0,-271.0,84.0,53.0,-71.0,36.0,-277.0,0.979781,-0.185755,0.074192,15646.0,-2868.0,1320.0,-25.0,-40.0,2.0
2928.0,2819.0,2906.0,3163.0,3056.0,0.731323,-0.085022,-0.675171,0.045532,-2.0,-2.0,0.0,7758.0,-1442.0,648.0,-268.0,80.0,43.0,-61.0,32.0,-274.0,0.979794,-0.185841,0.073822,15498.0,-2924.0,1206.0,-42.0,-33.0,14.0
2928.0,2819.0,2911.0,3155.0,3055.0,0.731079,-0.085327,-0.675415,0.045471,0.0,-1.0,-1.0,7770.0,-1532.0,593.0,-256.0,-6.0,-5.0,-16.0,-52.0,-250.0,0.979804,-0.186186,0.073078,15600.0,-3262.0,962.0,2.0,-19.0,-11.0
