flex_1,flex_2,flex_3,flex_4,flex_5,Qw,Qx,Qy,Qz,GYRx,GYRy,GYRz,ACCx,ACCy,ACCz,ACCx_real,ACCy_real,ACCz_real,ACCx_world,ACCy_world,ACCz_world,GRAx,GRAy,GRAz,ACCx_raw,ACCy_raw,ACCz_raw,GYRx_raw,GYRy_raw,GYRz_raw
2883.0,2815.0,2847.0,3091.0,2983.0,1.0,0.0,0.0,0.0,0.0,0.0,0.0,0.0,0.0,0.0,0.0,0.0,0.0,0.0,0.0,0.0,0.0,0.0,0.0,0.0,0.0,0.0,0.0,0.0,0.0
2877.0,2807.0,2834.0,3071.0,2983.0,0.89856,-0.10321,-0.426514,0.003479,-1.0,0.0,0.0,7187.0,-1712.0,2764.0,913.0,-168.0,-2272.0,2310.0,-492.0,-666.0,0.765778,-0.188449,0.614855,14430.0,-3460.0,5664.0,-22.0,10.0,11.0
2871.0,2805.0,2835.0,3089.0,2994.0,0.897583,-0.103882,-0.428345,0.003479,-1.0,0.0,0.0,7206.0,-1723.0,2783.0,912.0,-170.0,-2225.0,2275.0,-487.0,-627.0,0.768227,-0.189466,0.611397,14498.0,-3486.0,5612.0,-22.0,10.0,13.0
2877.0,2815.0,2839.0,3071.0,2989.0,0.897156,-0.104248,-0.42926,0.003479,-1.0,0.0,0.0,7220.0,-1736.0,2783.0,916.0,-179.0,-2212.0,2268.0,-494.0,-609.0,0.769501,-0.19004,0.609769,14544.0,-3560.0,5604.0,-13.0,13.0,13.0
2875.0,2817.0,2847.0,3088.0,2991.0,0.89624,-0.104736,-0.430969,0.00354,-1.0,1.0,0.0,7239.0,-1751.0,2770.0,916.0,-188.0,-2198.0,2259.0,-501.0,-590.0,0.771762,-0.190789,0.606555,14424.0,-3526.0,5422.0,-2.0,32.0,7.0
2867.0,2807.0,2838.0,3091.0,2987.0,0.895813,-0.105042,-0.431763,0.00354,-1.0,1.0,0.0,7216.0,-1762.0,2757.0,885.0,-195.0,-2199.0,2241.0,-511.0,-609.0,0.772814,-0.191252,0.605041,14260.0,-3574.0,5458.0,0.0,28.0,8.0
2879.0,2811.0,2830.0,3071.0,2990.0,0.894897,-0.10553,-0.433533,0.003662,0.0,0.0,0.0,7177.0,-1775.0,2753.0,826.0,-201.0,-2176.0,2188.0,-519.0,-630.0,0.775162,-0.192052,0.601768,14298.0,-3544.0,5530.0,4.0,2.0,10.0
2871.0,2815.0,2833.0,3019.0,2991.0,0.894409,-0.105713,-0.434509,0.003662,0.0,-1.0,0.0,7174.0,-1764.0,2755.0,813.0,-188.0,-2160.0,2170.0,-505.0,-628.0,0.776484,-0.192284,0.600008,14328.0,-3468.0,5526.0,6.0,-6.0,6.0
2879.0,2811.0,2835.0,3088.0,2991.0,0.893494,-0.106079,-0.43634,0.003723,0.0,0.0,0.0,7203.0,-1755.0,2771.0,821.0,-175.0,-2117.0,2145.0,-484.0,-589.0,0.778945,-0.192811,0.596699,14484.0,-3410.0,5576.0,11.0,2.0,7.0
2875.0,2811.0,2831.0,3103.0,2993.0,0.893005,-0.106262,-0.437256,0.003723,-1.0,0.0,0.0,7197.0,-1723.0,2771.0,805.0,-141.0,-2103.0,2128.0,-449.0,-596.0,0.780152,-0.193041,0.594988,14308.0,-3238.0,5534.0,0.0,8.0,6.0
2874.0,2815.0,2839.0,3095.0,2991.0,0.89209,-0.106812,-0.439026,0.003662,-2.0,-1.0,0.0,7193.0,-1716.0,2778.0,782.0,-128.0,-2069.0,2091.0,-434.0,-587.0,0.782519,-0.193786,0.591685,14510.0,-3492.0,5650.0,-27.0,-9.0,4.0
2871.0,2815.0,2843.0,3089.0,2989.0,0.891602,-0.107178,-0.440002,0.003601,-2.0,-1.0,0.0,7212.0,-1741.0,2776.0,790.0,-149.0,-2056.0,2085.0,-452.0,-564.0,0.783842,-0.194289,0.589877,14508.0,-3634.0,5522.0,-23.0,-5.0,2.0
2875.0,2813.0,2847.0,3091.0,2991.0,0.890625,-0.107727,-0.441772,0.003601,-1.0,-1.0,0.0,7196.0,-1772.0,2754.0,756.0,-173.0,-2050.0,2060.0,-479.0,-574.0,0.786131,-0.195071,0.586458,14300.0,-3544.0,5512.0,-3.0,-5.0,0.0
2881.0,2811.0,2822.0,3089.0,2995.0,0.890137,-0.107971,-0.442688,0.003601,-1.0,-1.0,-1.0,7191.0,-1776.0,2755.0,741.0,-175.0,-2035.0,2040.0,-480.0,-572.0,0.787328,-0.195407,0.584726,14374.0,-3580.0,5528.0,-1.0,-12.0,-4.0
2875.0,2809.0,2838.0,3091.0,2991.0,0.88916,-0.108337,-0.444519,0.00354,-1.0,-1.0,-1.0,7203.0,-1782.0,2762.0,733.0,-177.0,-1999.0,2009.0,-476.0,-548.0,0.78973,-0.195806,0.581284,14406.0,-3516.0,5576.0,0.0,-6.0,-1.0
2875.0,2813.0,2832.0,3091.0,2993.0,0.888733,-0.108521,-0.445374,0.00354,-1.0,-1.0,-1.0,7198.0,-1775.0,2769.0,719.0,-169.0,-1980.0,1987.0,-466.0,-546.0,0.790868,-0.196045,0.579724,14380.0,-3516.0,5558.0,-5.0,-5.0,-3.0
2871.0,2815.0,2837.0,3071.0,2991.0,0.887817,-0.108948,-0.447144,0.003418,-1.0,-1.0,-1.0,7204.0,-1752.0,2788.0,705.0,-142.0,-1934.0,1947.0,-433.0,-527.0,0.793219,-0.196508,0.576424,14422.0,-3440.0,5678.0,-16.0,-9.0,-14.0
2870.0,2815.0,2847.0,3088.0,2987.0,0.887329,-0.109192,-0.447998,0.003296,-1.0,-1.0,-1.0,7204.0,-1761.0,2790.0,696.0,-149.0,-1918.0,1929.0,-439.0,-520.0,0.794324,-0.196731,0.574739,14412.0,-3636.0,5578.0,-17.0,-12.0,-16.0
2873.0,2815.0,2838.0,3088.0,2991.0,0.886353,-0.109558,-0.449768,0.003174,0.0,-1.0,-1.0,7199.0,-1755.0,2793.0,673.0,-140.0,-1887.0,1893.0,-427.0,-514.0,0.796611,-0.197069,0.571337,14352.0,-3438.0,5556.0,3.0,-21.0,-11.0
2876.0,2813.0,2835.0,3093.0,2987.0,0.885864,-0.10968,-0.450745,0.003113,0.0,-2.0,-1.0,7202.0,-1741.0,2783.0,665.0,-126.0,-1882.0,1887.0,-413.0,-516.0,0.797914,-0.19713,0.569565,14408.0,-3396.0,5522.0,4.0,-26.0,-8.0
2879.0,2811.0,2839.0,3091.0,2993.0,0.884888,-0.109985,-0.452637,0.003052,-1.0,-2.0,-1.0,7210.0,-1721.0,2770.0,653.0,-103.0,-1867.0,1872.0,-390.0,-513.0,0.800394,-0.197412,0.566059,14438.0,-3392.0,5498.0,-7.0,-29.0,-1.0
2877.0,2806.0,2832.0,3093.0,2993.0,0.884399,-0.110229,-0.453552,0.003052,-1.0,-2.0,0.0,7210.0,-1719.0,2760.0,643.0,-99.0,-1862.0,1864.0,-386.0,-515.0,0.80157,-0.197742,0.564311,14408.0,-3440.0,5460.0,-11.0,-29.0,2.0
2877.0,2807.0,2835.0,3089.0,2990.0,0.883362,-0.110657,-0.455444,0.003052,-1.0,-2.0,0.0,7220.0,-1733.0,2738.0,633.0,-108.0,-1854.0,1853.0,-395.0,-509.0,0.803969,-0.19828,0.560663,14496.0,-3560.0,5402.0,-8.0,-30.0,1.0
2877.0,2809.0,2834.0,3095.0,2991.0,0.882874,-0.11084,-0.45636,0.003052,-1.0,-2.0,0.0,7223.0,-1745.0,2718.0,627.0,-118.0,-1860.0,1854.0,-407.0,-511.0,0.80514,-0.198501,0.558925,14474.0,-3564.0,5300.0,-1.0,-24.0,0.0
2871.0,2814.0,2835.0,3071.0,2987.0,0.881897,-0.111206,-0.458069,0.003052,-1.0,-1.0,-1.0,7235.0,-1744.0,2690.0,621.0,-114.0,-1861.0,1854.0,-404.0,-509.0,0.80726,-0.19894,0.555558,14482.0,-3468.0,5250.0,-3.0,-6.0,-4.0
2875.0,2815.0,2839.0,3087.0,2988.0,0.88147,-0.11145,-0.458862,0.002991,-1.0,-1.0,-1.0,7222.0,-1752.0,2673.0,600.0,-119.0,-1865.0,1845.0,-412.0,-524.0,0.80828,-0.199225,0.554022,14348.0,-3588.0,5226.0,-11.0,0.0,-5.0
2869.0,2805.0,2846.0,3095.0,2993.0,0.880615,-0.111816,-0.460449,0.00293,0.0,-1.0,-1.0,7203.0,-1767.0,2652.0,565.0,-131.0,-1861.0,1823.0,-428.0,-541.0,0.810302,-0.199632,0.550975,14382.0,-3536.0,5286.0,1.0,-1.0,-4.0
2883.0,2819.0,2831.0,3103.0,2997.0,0.880188,-0.112,-0.461182,0.00293,0.0,-1.0,-1.0,7196.0,-1770.0,2654.0,550.0,-132.0,-1847.0,1803.0,-428.0,-542.0,0.811197,-0.199863,0.549507,14332.0,-3544.0,5338.0,4.0,-1.0,-6.0
2886.0,2807.0,2833.0,3091.0,2998.0,0.879333,-0.112305,-0.462769,0.002869,-1.0,-1.0,-1.0,7176.0,-1753.0,2674.0,514.0,-113.0,-1802.0,1750.0,-405.0,-544.0,0.813211,-0.200162,0.546469,14370.0,-3480.0,5480.0,-3.0,-16.0,-2.0
2875.0,2813.0,2847.0,3071.0,2987.0,0.878906,-0.112488,-0.463562,0.002869,-1.0,-1.0,0.0,7192.0,-1751.0,2692.0,521.0,-109.0,-1772.0,1731.0,-394.0,-519.0,0.81421,-0.200392,0.544941,14522.0,-3506.0,5474.0,-3.0,-15.0,2.0
2885.0,2821.0,2831.0,3071.0,2987.0,0.878113,-0.112793,-0.464966,0.002869,0.0,0.0,0.0,7235.0,-1742.0,2715.0,550.0,-97.0,-1726.0,1713.0,-371.0,-467.0,0.815938,-0.200758,0.542175,14576.0,-3448.0,5470.0,2.0,12.0,2.0
2867.0,2809.0,2842.0,3071.0,2989.0,0.877747,-0.112976,-0.465637,0.002869,-1.0,0.0,0.0,7229.0,-1728.0,2710.0,537.0,-81.0,-1720.0,1703.0,-356.0,-475.0,0.816775,-0.201,0.540866,14384.0,-3362.0,5382.0,-2.0,17.0,1.0
2874.0,2815.0,2855.0,3099.0,2991.0,0.876953,-0.113342,-0.46698,0.002808,-1.0,0.0,0.0,7233.0,-1733.0,2721.0,528.0,-83.0,-1687.0,1672.0,-353.0,-459.0,0.818403,-0.201414,0.538138,14542.0,-3480.0,5512.0,-6.0,7.0,2.0
2879.0,2807.0,2832.0,3071.0,2993.0,0.876587,-0.113525,-0.46759,0.002808,-1.0,0.0,0.0,7224.0,-1733.0,2720.0,513.0,-81.0,-1678.0,1657.0,-351.0,-464.0,0.81913,-0.201655,0.536884,14368.0,-3454.0,5440.0,-8.0,10.0,3.0
2883.0,2815.0,2838.0,3087.0,2987.0,0.875854,-0.113892,-0.468933,0.002747,-1.0,-1.0,0.0,7195.0,-1736.0,2729.0,470.0,-80.0,-1647.0,1609.0,-349.0,-477.0,0.820809,-0.202081,0.534259,14282.0,-3476.0,5488.0,-7.0,-2.0,1.0
2869.0,2815.0,2833.0,3107.0,3003.0,0.875427,-0.114075,-0.469604,0.002747,-1.0,-1.0,0.0,7195.0,-1731.0,2740.0,464.0,-73.0,-1625.0,1588.0,-339.0,-469.0,0.821582,-0.202308,0.532839,14428.0,-3418.0,5550.0,-6.0,-12.0,2.0
2875.0,2815.0,2829.0,3071.0,2983.0,0.874634,-0.11438,-0.471069,0.002686,-1.0,-1.0,0.0,7227.0,-1734.0,2747.0,481.0,-74.0,-1594.0,1574.0,-332.0,-433.0,0.823412,-0.202611,0.530002,14568.0,-3534.0,5460.0,-1.0,-13.0,1.0
2878.0,2821.0,2829.0,3071.0,2975.0,0.874207,-0.114563,-0.471802,0.002747,0.0,-1.0,0.0,7240.0,-1738.0,2744.0,487.0,-75.0,-1585.0,1570.0,-331.0,-421.0,0.824275,-0.202895,0.528523,14530.0,-3490.0,5494.0,5.0,-10.0,3.0
2869.0,2806.0,2837.0,3071.0,2999.0,0.873474,-0.114746,-0.473145,0.002686,-1.0,-1.0,-1.0,7239.0,-1715.0,2743.0,472.0,-52.0,-1565.0,1549.0,-306.0,-422.0,0.825943,-0.202997,0.525932,14446.0,-3400.0,5440.0,-5.0,-7.0,-5.0
2883.0,2803.0,2832.0,3103.0,2987.0,0.873047,-0.114929,-0.473877,0.002625,-1.0,-1.0,-1.0,7228.0,-1723.0,2732.0,454.0,-58.0,-1564.0,1539.0,-314.0,-433.0,0.82683,-0.203165,0.52445,14394.0,-3512.0,5384.0,-11.0,-9.0,-5.0
2877.0,2822.0,2839.0,3068.0,2993.0,0.872253,-0.115295,-0.47522,0.002625,0.0,-1.0,-1.0,7220.0,-1747.0,2712.0,433.0,-78.0,-1561.0,1524.0,-336.0,-439.0,0.828419,-0.203628,0.521706,14360.0,-3530.0,5356.0,1.0,-5.0,-2.0
2871.0,2815.0,2843.0,3071.0,2981.0,0.871887,-0.115417,-0.475891,0.002625,0.0,-1.0,-1.0,7193.0,-1748.0,2691.0,399.0,-78.0,-1572.0,1515.0,-342.0,-471.0,0.829241,-0.20376,0.520401,14210.0,-3490.0,5262.0,6.0,-3.0,-3.0
2877.0,2815.0,2851.0,3095.0,2983.0,0.871155,-0.115662,-0.477234,0.002563,-1.0,-1.0,-1.0,7181.0,-1738.0,2676.0,374.0,-67.0,-1565.0,1498.0,-333.0,-485.0,0.830896,-0.203965,0.517787,14414.0,-3494.0,5328.0,-5.0,-12.0,-4.0
2877.0,2823.0,2828.0,3103.0,3014.0,0.870728,-0.115845,-0.477905,0.002563,-1.0,-1.0,0.0,7194.0,-1747.0,2678.0,381.0,-74.0,-1552.0,1491.0,-337.0,-469.0,0.831657,-0.204189,0.51636,14470.0,-3546.0,5372.0,-4.0,-5.0,3.0
2875.0,2807.0,2863.0,3103.0,2987.0,0.870056,-0.11615,-0.479065,0.002625,-1.0,0.0,0.0,7210.0,-1734.0,2686.0,385.0,-57.0,-1524.0,1473.0,-315.0,-450.0,0.833017,-0.204628,0.514011,14444.0,-3360.0,5402.0,-3.0,10.0,8.0
2875.0,2801.0,2853.0,3095.0,2983.0,0.869751,-0.116333,-0.479614,0.002563,-1.0,0.0,0.0,7222.0,-1734.0,2683.0,392.0,-56.0,-1518.0,1473.0,-312.0,-440.0,0.833694,-0.20482,0.51291,14512.0,-3502.0,5360.0,-8.0,18.0,5.0
2869.0,2803.0,2845.0,3091.0,2991.0,0.869141,-0.116699,-0.480591,0.002563,-1.0,1.0,0.0,7210.0,-1733.0,2688.0,371.0,-51.0,-1496.0,1444.0,-306.0,-444.0,0.834804,-0.20532,0.510826,14346.0,-3382.0,5376.0,-8.0,24.0,8.0
2889.0,2800.0,2831.0,3103.0,2971.0,0.868835,-0.116882,-0.481079,0.002563,-1.0,0.0,0.0,7203.0,-1727.0,2698.0,359.0,-42.0,-1478.0,1424.0,-295.0,-444.0,0.835358,-0.205569,0.509783,14378.0,-3420.0,5484.0,-13.0,13.0,5.0
2895.0,2818.0,2833.0,3087.0,2979.0,0.868164,-0.11731,-0.482239,0.002502,-1.0,0.0,0.0,7207.0,-1745.0,2705.0,352.0,-56.0,-1451.0,1398.0,-305.0,-430.0,0.836738,-0.206101,0.507399,14500.0,-3612.0,5494.0,-10.0,1.0,3.0
2864.0,2815.0,2855.0,3107.0,2975.0,0.867798,-0.117493,-0.482788,0.002502,-1.0,0.0,0.0,7231.0,-1755.0,2712.0,371.0,-64.0,-1434.0,1393.0,-307.0,-402.0,0.837337,-0.206336,0.50619,14598.0,-3546.0,5460.0,-1.0,7.0,2.0
2887.0,2805.0,2839.0,3103.0,2987.0,0.867249,-0.117676,-0.483765,0.002441,-1.0,1.0,0.0,7249.0,-1756.0,2709.0,379.0,-64.0,-1421.0,1387.0,-304.0,-385.0,0.838514,-0.20647,0.50425,14492.0,-3522.0,5400.0,0.0,24.0,1.0
2881.0,2809.0,2851.0,3099.0,2992.0,0.866943,-0.117859,-0.484253,0.002441,-1.0,1.0,-1.0,7231.0,-1748.0,2702.0,357.0,-54.0,-1420.0,1376.0,-297.0,-403.0,0.839064,-0.206718,0.503205,14304.0,-3446.0,5352.0,-4.0,25.0,-1.0
2883.0,2819.0,2858.0,3111.0,2982.0,0.866333,-0.118103,-0.485229,0.00238,0.0,-1.0,-1.0,7193.0,-1745.0,2697.0,310.0,-49.0,-1408.0,1343.0,-295.0,-435.0,0.840178,-0.206943,0.501143,14350.0,-3412.0,5428.0,5.0,0.0,-2.0
2877.0,2811.0,2815.0,3071.0,3005.0,0.866028,-0.118164,-0.48584,0.002319,0.0,-1.0,-1.0,7205.0,-1718.0,2711.0,315.0,-22.0,-1385.0,1330.0,-264.0,-423.0,0.840954,-0.20692,0.500006,14518.0,-3284.0,5508.0,6.0,-7.0,-8.0
2879.0,2821.0,2827.0,3095.0,3011.0,0.865417,-0.118347,-0.486877,0.002197,-1.0,0.0,-1.0,7232.0,-1707.0,2752.0,332.0,-11.0,-1326.0,1291.0,-239.0,-378.0,0.842184,-0.206979,0.497897,14522.0,-3342.0,5604.0,-15.0,10.0,-6.0
2870.0,2817.0,2855.0,3071.0,3010.0,0.865112,-0.11853,-0.487366,0.002075,-2.0,0.0,-1.0,7224.0,-1703.0,2762.0,320.0,-6.0,-1308.0,1270.0,-233.0,-378.0,0.84276,-0.207107,0.496849,14388.0,-3404.0,5574.0,-27.0,12.0,-4.0
2869.0,2795.0,2850.0,3071.0,2993.0,0.864502,-0.118958,-0.488281,0.001892,-1.0,0.0,-1.0,7224.0,-1745.0,2759.0,311.0,-44.0,-1294.0,1250.0,-269.0,-368.0,0.84379,-0.207526,0.494798,14484.0,-3632.0,5520.0,-10.0,10.0,-2.0
2880.0,2830.0,2847.0,3103.0,2992.0,0.864258,-0.11908,-0.48877,0.001892,0.0,0.0,-1.0,7220.0,-1753.0,2751.0,302.0,-51.0,-1294.0,1245.0,-277.0,-373.0,0.844395,-0.207681,0.49387,14404.0,-3530.0,5426.0,8.0,9.0,-1.0
2863.0,2813.0,2847.0,3063.0,2995.0,0.863647,-0.119202,-0.489746,0.001953,0.0,0.0,-1.0,7205.0,-1746.0,2731.0,278.0,-43.0,-1298.0,1238.0,-273.0,-394.0,0.84547,-0.207809,0.49183,14344.0,-3432.0,5454.0,9.0,5.0,-2.0
2879.0,2800.0,2842.0,3088.0,3007.0,0.863403,-0.119263,-0.490234,0.001892,-1.0,0.0,-1.0,7191.0,-1735.0,2732.0,259.0,-32.0,-1289.0,1222.0,-263.0,-407.0,0.846089,-0.207799,0.490916,14280.0,-3400.0,5502.0,0.0,2.0,-2.0
2879.0,2802.0,2833.0,3095.0,2996.0,0.862732,-0.119568,-0.491272,0.00177,-1.0,-1.0,-1.0,7176.0,-1735.0,2735.0,235.0,-30.0,-1268.0,1193.0,-260.0,-414.0,0.847249,-0.208049,0.488665,14310.0,-3512.0,5440.0,-17.0,-7.0,-3.0
2887.0,2821.0,2837.0,3103.0,3006.0,0.862427,-0.119751,-0.491821,0.00177,-1.0,-1.0,-1.0,7171.0,-1738.0,2736.0,225.0,-31.0,-1258.0,1180.0,-260.0,-416.0,0.847896,-0.208294,0.487555,14346.0,-3500.0,5494.0,-16.0,-11.0,-2.0
2879.0,2814.0,2839.0,3093.0,2995.0,0.861816,-0.119995,-0.492859,0.001709,-1.0,-1.0,-1.0,7200.0,-1724.0,2747.0,244.0,-15.0,-1229.0,1168.0,-237.0,-386.0,0.849098,-0.208512,0.485422,14526.0,-3330.0,5516.0,-1.0,-2.0,-4.0
2865.0,2803.0,2833.0,3099.0,2979.0,0.861511,-0.120056,-0.493286,0.001648,-1.0,0.0,-1.0,7219.0,-1710.0,2749.0,259.0,-2.0,-1219.0,1169.0,-220.0,-370.0,0.849547,-0.208485,0.48446,14560.0,-3362.0,5470.0,-3.0,5.0,-5.0
2881.0,2791.0,2821.0,3071.0,2995.0,0.860962,-0.1203,-0.494141,0.001648,0.0,0.0,0.0,7220.0,-1719.0,2737.0,252.0,-8.0,-1216.0,1163.0,-227.0,-370.0,0.850476,-0.208777,0.482611,14428.0,-3456.0,5412.0,2.0,11.0,14.0
2851.0,2805.0,2823.0,3088.0,2981.0,0.860718,-0.120422,-0.494629,0.001709,0.0,0.0,0.0,7213.0,-1719.0,2724.0,241.0,-6.0,-1221.0,1162.0,-227.0,-381.0,0.85106,-0.20899,0.481679,14406.0,-3418.0,5414.0,7.0,4.0,18.0
2885.0,2815.0,2847.0,3103.0,2987.0,0.860107,-0.120605,-0.495605,0.001892,0.0,-1.0,0.0,7213.0,-1726.0,2719.0,232.0,-11.0,-1210.0,1148.0,-230.0,-380.0,0.852091,-0.209343,0.479618,14448.0,-3500.0,5402.0,10.0,-3.0,17.0
2875.0,2798.0,2831.0,3095.0,2971.0,0.859863,-0.120728,-0.496094,0.001953,0.0,-1.0,0.0,7212.0,-1723.0,2712.0,226.0,-6.0,-1209.0,1146.0,-226.0,-384.0,0.852674,-0.209556,0.478685,14422.0,-3408.0,5390.0,8.0,-5.0,16.0
2851.0,2815.0,2835.0,3095.0,2971.0,0.859253,-0.120972,-0.497009,0.002075,0.0,0.0,0.0,7218.0,-1731.0,2709.0,225.0,-11.0,-1195.0,1133.0,-228.0,-375.0,0.853611,-0.209953,0.476668,14506.0,-3514.0,5474.0,4.0,7.0,11.0
2871.0,2813.0,2835.0,3091.0,2975.0,0.85907,-0.121033,-0.497375,0.002136,0.0,0.0,0.0,7212.0,-1729.0,2701.0,215.0,-8.0,-1198.0,1132.0,-227.0,-384.0,0.854043,-0.210076,0.475974,14368.0,-3414.0,5348.0,6.0,19.0,10.0
2875.0,2821.0,2838.0,3071.0,2991.0,0.858582,-0.121277,-0.498108,0.002136,-1.0,0.0,0.0,7201.0,-1724.0,2703.0,198.0,0.0,-1182.0,1111.0,-218.0,-391.0,0.854814,-0.21038,0.474347,14436.0,-3474.0,5442.0,-3.0,19.0,9.0
2871.0,2815.0,2855.0,3091.0,2983.0,0.858398,-0.121399,-0.498413,0.002197,-1.0,1.0,0.0,7207.0,-1732.0,2711.0,201.0,-6.0,-1169.0,1101.0,-221.0,-380.0,0.855141,-0.210608,0.473699,14440.0,-3502.0,5478.0,0.0,25.0,11.0
2864.0,2806.0,2839.0,3071.0,2987.0,0.857971,-0.121582,-0.499023,0.002197,0.0,1.0,0.0,7192.0,-1725.0,2714.0,181.0,2.0,-1155.0,1080.0,-213.0,-391.0,0.855761,-0.210821,0.472313,14306.0,-3432.0,5404.0,1.0,26.0,8.0
2878.0,2815.0,2845.0,3099.0,2983.0,0.857788,-0.121704,-0.49939,0.002258,-1.0,0.0,0.0,7181.0,-1727.0,2719.0,167.0,1.0,-1144.0,1064.0,-214.0,-396.0,0.856191,-0.211048,0.471604,14330.0,-3460.0,5472.0,-2.0,14.0,10.0
2873.0,2806.0,2835.0,3091.0,2995.0,0.8573,-0.122009,-0.500122,0.002258,-1.0,0.0,0.0,7207.0,-1740.0,2748.0,186.0,-7.0,-1101.0,1036.0,-211.0,-356.0,0.856958,-0.211456,0.46996,14506.0,-3582.0,5570.0,-13.0,12.0,10.0
2887.0,2814.0,2830.0,3088.0,3003.0,0.857056,-0.122253,-0.500488,0.002258,-1.0,0.0,0.0,7210.0,-1762.0,2756.0,186.0,-26.0,-1086.0,1022.0,-226.0,-344.0,0.85734,-0.211816,0.469115,14384.0,-3648.0,5546.0,-15.0,15.0,13.0
2871.0,2803.0,2838.0,3071.0,2983.0,0.856628,-0.12262,-0.50116,0.002319,-1.0,0.0,0.0,7215.0,-1798.0,2759.0,185.0,-57.0,-1071.0,1005.0,-254.0,-329.0,0.858046,-0.212404,0.467621,14458.0,-3656.0,5530.0,-3.0,17.0,10.0
2879.0,2815.0,2843.0,3071.0,2991.0,0.856445,-0.122742,-0.501465,0.002319,-1.0,0.0,0.0,7212.0,-1806.0,2769.0,180.0,-64.0,-1056.0,989.0,-258.0,-325.0,0.858385,-0.212569,0.466971,14396.0,-3660.0,5634.0,-1.0,22.0,5.0
2867.0,2815.0,2825.0,3095.0,2987.0,0.856079,-0.122986,-0.502014,0.00238,-1.0,0.0,0.0,7175.0,-1792.0,2779.0,138.0,-47.0,-1036.0,953.0,-243.0,-353.0,0.858942,-0.212961,0.465733,14286.0,-3468.0,5644.0,-1.0,17.0,5.0
2879.0,2822.0,2839.0,3071.0,2990.0,0.855835,-0.123169,-0.502319,0.00238,-1.0,0.0,0.0,7165.0,-1772.0,2784.0,126.0,-25.0,-1024.0,940.0,-221.0,-362.0,0.859219,-0.213216,0.464964,14284.0,-3412.0,5606.0,-13.0,12.0,8.0
2883.0,2801.0,2819.0,3102.0,2992.0,0.855408,-0.123535,-0.503052,0.002319,-1.0,0.0,0.0,7166.0,-1757.0,2780.0,120.0,-6.0,-1016.0,933.0,-202.0,-366.0,0.860056,-0.213679,0.463406,14386.0,-3452.0,5580.0,-19.0,2.0,7.0
2855.0,2815.0,2847.0,3099.0,2991.0,0.855164,-0.123657,-0.503418,0.002258,-1.0,0.0,0.0,7171.0,-1745.0,2778.0,122.0,6.0,-1011.0,931.0,-190.0,-363.0,0.860451,-0.213768,0.462589,14356.0,-3406.0,5520.0,-20.0,2.0,4.0
2879.0,2813.0,2843.0,3091.0,2995.0,0.854614,-0.124023,-0.504211,0.002075,-2.0,-1.0,-1.0,7198.0,-1729.0,2768.0,142.0,24.0,-1006.0,940.0,-169.0,-346.0,0.861298,-0.214077,0.460759,14470.0,-3448.0,5480.0,-29.0,-2.0,-3.0
2865.0,2815.0,2839.0,3091.0,2979.0,0.85437,-0.124268,-0.504639,0.001953,-2.0,-1.0,-1.0,7204.0,-1738.0,2761.0,144.0,17.0,-1006.0,940.0,-176.0,-342.0,0.861811,-0.214312,0.459849,14436.0,-3546.0,5496.0,-28.0,0.0,-4.0
2879.0,2815.0,2847.0,3071.0,2995.0,0.853821,-0.124573,-0.505371,0.001831,-1.0,-1.0,0.0,7206.0,-1739.0,2751.0,140.0,18.0,-1001.0,935.0,-175.0,-341.0,0.862536,-0.214576,0.458095,14464.0,-3498.0,5460.0,-13.0,0.0,2.0
2885.0,2815.0,2834.0,3111.0,2975.0,0.853577,-0.124695,-0.505798,0.001831,-1.0,0.0,0.0,7218.0,-1743.0,2747.0,148.0,16.0,-998.0,936.0,-175.0,-332.0,0.863019,-0.214725,0.457216,14512.0,-3506.0,5486.0,-3.0,4.0,3.0
2881.0,2815.0,2831.0,3095.0,2981.0,0.85321,-0.124817,-0.506409,0.001831,0.0,0.0,0.0,7215.0,-1748.0,2739.0,139.0,12.0,-996.0,930.0,-180.0,-336.0,0.863689,-0.214845,0.455942,14320.0,-3488.0,5404.0,7.0,15.0,7.0
2878.0,2811.0,2837.0,3091.0,2995.0,0.852966,-0.124878,-0.506775,0.001892,0.0,0.0,0.0,7199.0,-1751.0,2740.0,120.0,9.0,-988.0,914.0,-184.0,-347.0,0.864051,-0.214951,0.45514,14314.0,-3500.0,5516.0,6.0,9.0,6.0
2875.0,2803.0,2835.0,3095.0,2981.0,0.8526,-0.125061,-0.507385,0.001953,0.0,0.0,0.0,7199.0,-1773.0,2755.0,115.0,-9.0,-962.0,887.0,-196.0,-335.0,0.864705,-0.215236,0.453851,14410.0,-3638.0,5570.0,4.0,11.0,5.0
2879.0,2815.0,2843.0,3088.0,2999.0,0.852417,-0.125122,-0.50769,0.001953,0.0,0.0,0.0,7203.0,-1782.0,2754.0,116.0,-18.0,-958.0,883.0,-204.0,-329.0,0.865039,-0.215296,0.453213,14422.0,-3598.0,5496.0,7.0,19.0,8.0
2879.0,2811.0,2833.0,3071.0,2991.0,0.852112,-0.125305,-0.508179,0.002075,0.0,1.0,0.0,7193.0,-1773.0,2753.0,102.0,-6.0,-951.0,872.0,-193.0,-340.0,0.86553,-0.215657,0.452152,14312.0,-3484.0,5512.0,1.0,26.0,9.0
2870.0,2801.0,2831.0,3103.0,2975.0,0.851929,-0.125427,-0.508423,0.002014,-1.0,1.0,0.0,7182.0,-1760.0,2745.0,89.0,7.0,-954.0,870.0,-183.0,-355.0,0.865775,-0.215758,0.451561,14302.0,-3436.0,5450.0,-8.0,23.0,5.0
2887.0,2812.0,2847.0,3071.0,2991.0,0.851562,-0.125732,-0.508972,0.001831,-2.0,0.0,-1.0,7169.0,-1750.0,2746.0,71.0,19.0,-942.0,853.0,-172.0,-366.0,0.866383,-0.216002,0.450301,14284.0,-3494.0,5510.0,-23.0,15.0,-7.0
2864.0,2811.0,2853.0,3071.0,2999.0,0.851379,-0.125854,-0.509216,0.001709,-2.0,0.0,-1.0,7170.0,-1749.0,2752.0,70.0,20.0,-932.0,844.0,-169.0,-362.0,0.866642,-0.21604,0.449709,14368.0,-3538.0,5548.0,-26.0,11.0,-8.0
2871.0,2815.0,2833.0,3088.0,2991.0,0.850952,-0.126221,-0.509827,0.001587,-1.0,0.0,0.0,7183.0,-1779.0,2766.0,78.0,-5.0,-906.0,823.0,-187.0,-337.0,0.867276,-0.216434,0.448267,14368.0,-3628.0,5572.0,-16.0,10.0,6.0
2883.0,2807.0,2807.0,3071.0,2975.0,0.850769,-0.126404,-0.510071,0.001587,-1.0,0.0,0.0,7188.0,-1775.0,2777.0,81.0,0.0,-890.0,811.0,-179.0,-328.0,0.867504,-0.2167,0.44766,14438.0,-3514.0,5638.0,-14.0,9.0,7.0
2859.0,2811.0,2832.0,3071.0,2963.0,0.850403,-0.126709,-0.51062,0.001526,-1.0,0.0,0.0,7203.0,-1769.0,2803.0,91.0,9.0,-853.0,785.0,-161.0,-303.0,0.868079,-0.217066,0.446399,14422.0,-3552.0,5694.0,-21.0,10.0,10.0
2877.0,2815.0,2850.0,3103.0,2987.0,0.85022,-0.126892,-0.510864,0.001526,-1.0,0.0,0.0,7201.0,-1778.0,2811.0,87.0,2.0,-840.0,771.0,-166.0,-299.0,0.868307,-0.217331,0.445792,14402.0,-3624.0,5658.0,-21.0,11.0,7.0
2885.0,2814.0,2829.0,3071.0,2993.0,0.849854,-0.127136,-0.511475,0.001465,-1.0,-1.0,-1.0,7162.0,-1777.0,2815.0,43.0,5.0,-826.0,739.0,-166.0,-330.0,0.868985,-0.217593,0.444483,14244.0,-3520.0,5646.0,-6.0,-6.0,-2.0
2887.0,2790.0,2831.0,3095.0,2983.0,0.849609,-0.127197,-0.51178,0.001404,-1.0,-1.0,-1.0,7169.0,-1766.0,2817.0,47.0,16.0,-818.0,736.0,-153.0,-325.0,0.869269,-0.217573,0.44374,14430.0,-3468.0,5686.0,-4.0,-12.0,-2.0
2865.0,2799.0,2833.0,3071.0,2992.0,0.849182,-0.12738,-0.512451,0.001404,-1.0,0.0,0.0,7211.0,-1741.0,2825.0,84.0,43.0,-798.0,740.0,-118.0,-289.0,0.869971,-0.217777,0.44228,14478.0,-3378.0,5638.0,-11.0,2.0,7.0
2887.0,2805.0,2842.0,3095.0,2989.0,0.848999,-0.127502,-0.512756,0.001343,-2.0,0.0,0.0,7212.0,-1725.0,2813.0,82.0,59.0,-804.0,746.0,-104.0,-296.0,0.870317,-0.217876,0.441625,14396.0,-3380.0,5598.0,-24.0,9.0,12.0
2865.0,2813.0,2851.0,3071.0,3015.0,0.848572,-0.128052,-0.513306,0.001221,-2.0,-1.0,0.0,7197.0,-1725.0,2784.0,63.0,65.0,-822.0,754.0,-106.0,-321.0,0.870841,-0.218575,0.440196,14412.0,-3494.0,5428.0,-42.0,-2.0,16.0
2858.0,2803.0,2811.0,3071.0,2971.0,0.848328,-0.128296,-0.513611,0.00116,-2.0,0.0,0.0,7210.0,-1735.0,2770.0,73.0,57.0,-829.0,764.0,-114.0,-313.0,0.871123,-0.218865,0.439405,14494.0,-3486.0,5428.0,-36.0,1.0,15.0
2882.0,2806.0,2839.0,3089.0,2975.0,0.847961,-0.128845,-0.51416,0.001038,-3.0,0.0,0.0,7190.0,-1740.0,2733.0,48.0,58.0,-855.0,775.0,-123.0,-345.0,0.871709,-0.219579,0.438078,14262.0,-3512.0,5294.0,-48.0,11.0,15.0
2887.0,2799.0,2849.0,3089.0,2997.0,0.847717,-0.129211,-0.514465,0.000916,-3.0,0.0,0.0,7174.0,-1753.0,2713.0,30.0,49.0,-868.0,777.0,-137.0,-364.0,0.872006,-0.220012,0.437255,14272.0,-3610.0,5318.0,-56.0,1.0,18.0
2879.0,2803.0,2853.0,3099.0,2975.0,0.847229,-0.129944,-0.515076,0.000793,-2.0,0.0,0.0,7191.0,-1796.0,2696.0,42.0,14.0,-872.0,782.0,-172.0,-346.0,0.872568,-0.221002,0.435609,14412.0,-3736.0,5316.0,-39.0,9.0,13.0
2875.0,2813.0,2847.0,3089.0,2991.0,0.847046,-0.130188,-0.51532,0.000793,-1.0,0.0,0.0,7193.0,-1799.0,2687.0,43.0,14.0,-876.0,786.0,-173.0,-346.0,0.872792,-0.221368,0.434984,14404.0,-3570.0,5322.0,-22.0,14.0,12.0
2879.0,2805.0,2842.0,3089.0,3011.0,0.84668,-0.130493,-0.515808,0.000671,-2.0,0.0,0.0,7191.0,-1788.0,2704.0,37.0,27.0,-849.0,762.0,-155.0,-341.0,0.873273,-0.221664,0.43378,14334.0,-3584.0,5444.0,-23.0,21.0,6.0
2865.0,2811.0,2831.0,3093.0,2994.0,0.846558,-0.130737,-0.515991,0.00061,-2.0,1.0,0.0,7181.0,-1778.0,2717.0,25.0,40.0,-832.0,744.0,-141.0,-347.0,0.873473,-0.221983,0.433321,14268.0,-3492.0,5484.0,-28.0,23.0,8.0
2871.0,2815.0,2847.0,3102.0,2995.0,0.846252,-0.131226,-0.516296,0.000427,-2.0,0.0,0.0,7173.0,-1782.0,2739.0,15.0,41.0,-802.0,713.0,-136.0,-342.0,0.873722,-0.222541,0.432361,14366.0,-3622.0,5576.0,-43.0,22.0,11.0
2886.0,2807.0,2835.0,3095.0,2999.0,0.84613,-0.131531,-0.516479,0.000305,-2.0,1.0,0.0,7172.0,-1781.0,2753.0,12.0,44.0,-785.0,697.0,-130.0,-338.0,0.873938,-0.2229,0.431885,14332.0,-3558.0,5592.0,-43.0,27.0,10.0
2879.0,2801.0,2835.0,3071.0,2978.0,0.845886,-0.132019,-0.516724,0.000122,-2.0,1.0,0.0,7173.0,-1802.0,2773.0,11.0,28.0,-758.0,671.0,-140.0,-323.0,0.874147,-0.223472,0.431091,14404.0,-3658.0,5622.0,-33.0,26.0,9.0
2878.0,2815.0,2833.0,3099.0,2987.0,0.845764,-0.132202,-0.516846,6.1e-05,-2.0,1.0,0.0,7174.0,-1798.0,2786.0,12.0,34.0,-742.0,658.0,-131.0,-316.0,0.874243,-0.223687,0.43071,14350.0,-3562.0,5690.0,-27.0,27.0,9.0
2881.0,2815.0,2839.0,3103.0,2975.0,0.845581,-0.132568,-0.517151,-6.1e-05,-2.0,0.0,0.0,7181.0,-1783.0,2813.0,16.0,53.0,-709.0,634.0,-105.0,-302.0,0.874602,-0.224131,0.429988,14352.0,-3532.0,5738.0,-24.0,22.0,5.0
2879.0,2815.0,2831.0,3071.0,2983.0,0.845459,-0.13269,-0.517273,-0.000122,-1.0,0.0,0.0,7176.0,-1784.0,2824.0,10.0,52.0,-695.0,619.0,-104.0,-301.0,0.874699,-0.224242,0.429623,14322.0,-3582.0,5720.0,-20.0,15.0,5.0
2885.0,2807.0,2838.0,3099.0,3003.0,0.845154,-0.132935,-0.5177,-0.000244,-1.0,0.0,0.0,7184.0,-1773.0,2829.0,14.0,65.0,-682.0,612.0,-88.0,-294.0,0.875138,-0.224448,0.4286,14390.0,-3492.0,5632.0,-16.0,11.0,5.0
2875.0,2813.0,2831.0,3102.0,2975.0,0.845032,-0.133057,-0.517883,-0.000305,-1.0,0.0,0.0,7182.0,-1761.0,2834.0,11.0,78.0,-673.0,604.0,-74.0,-296.0,0.875337,-0.224558,0.428172,14350.0,-3468.0,5680.0,-18.0,8.0,7.0
2871.0,2811.0,2835.0,3093.0,2987.0,0.844727,-0.133362,-0.518311,-0.000305,-1.0,-1.0,0.0,7171.0,-1767.0,2840.0,-3.0,76.0,-659.0,586.0,-75.0,-301.0,0.875743,-0.224992,0.427132,14370.0,-3552.0,5686.0,-20.0,-6.0,15.0
2855.0,2811.0,2823.0,3099.0,2992.0,0.844543,-0.133545,-0.518616,-0.000305,-1.0,-1.0,0.0,7174.0,-1770.0,2855.0,-2.0,75.0,-638.0,568.0,-72.0,-290.0,0.876069,-0.225252,0.426457,14350.0,-3566.0,5806.0,-19.0,-9.0,19.0
2879.0,2803.0,2815.0,3067.0,3005.0,0.844116,-0.133911,-0.519165,-0.000244,-1.0,-2.0,0.0,7172.0,-1770.0,2871.0,-8.0,79.0,-611.0,542.0,-63.0,-284.0,0.876537,-0.22582,0.425068,14454.0,-3560.0,5788.0,-19.0,-23.0,22.0
2881.0,2787.0,2847.0,3071.0,2982.0,0.843933,-0.134094,-0.51947,-0.000183,-2.0,-1.0,0.0,7189.0,-1786.0,2870.0,5.0,66.0,-606.0,542.0,-72.0,-267.0,0.876845,-0.226143,0.424393,14508.0,-3684.0,5730.0,-24.0,-19.0,21.0
2871.0,2815.0,2841.0,3071.0,2983.0,0.843506,-0.134521,-0.52002,-0.000122,-2.0,-1.0,0.0,7177.0,-1812.0,2842.0,-9.0,46.0,-623.0,548.0,-98.0,-281.0,0.877312,-0.226812,0.422986,14248.0,-3656.0,5570.0,-23.0,-16.0,22.0
2864.0,2803.0,2832.0,3095.0,2986.0,0.843262,-0.134766,-0.520325,-6.1e-05,-2.0,-1.0,0.0,7167.0,-1816.0,2821.0,-21.0,45.0,-637.0,555.0,-104.0,-297.0,0.877556,-0.227222,0.422191,14286.0,-3666.0,5494.0,-24.0,-17.0,18.0
2871.0,2807.0,2847.0,3087.0,2997.0,0.842834,-0.135193,-0.520935,-6.1e-05,-1.0,-1.0,0.0,7153.0,-1857.0,2770.0,-40.0,9.0,-676.0,576.0,-151.0,-321.0,0.878141,-0.227827,0.42072,14274.0,-3836.0,5362.0,-22.0,-14.0,17.0
2875.0,2813.0,2837.0,3099.0,2991.0,0.84259,-0.135437,-0.52124,0.0,-1.0,-1.0,1.0,7144.0,-1847.0,2743.0,-51.0,22.0,-697.0,592.0,-145.0,-342.0,0.878384,-0.228236,0.419924,14264.0,-3602.0,5360.0,-22.0,-15.0,26.0
2874.0,2815.0,2837.0,3089.0,2991.0,0.842102,-0.136047,-0.521851,6.1e-05,-2.0,-1.0,1.0,7156.0,-1844.0,2716.0,-43.0,33.0,-710.0,609.0,-136.0,-342.0,0.878886,-0.229195,0.418299,14404.0,-3720.0,5320.0,-43.0,-14.0,30.0
2875.0,2803.0,2823.0,3056.0,2991.0,0.841919,-0.136414,-0.522095,6.1e-05,-3.0,-1.0,1.0,7172.0,-1849.0,2715.0,-29.0,33.0,-706.0,612.0,-134.0,-327.0,0.879106,-0.229762,0.417636,14424.0,-3734.0,5440.0,-47.0,-7.0,28.0
2875.0,2810.0,2830.0,3071.0,2983.0,0.841492,-0.137024,-0.522583,6.1e-05,-2.0,0.0,0.0,7169.0,-1882.0,2706.0,-35.0,7.0,-703.0,603.0,-160.0,-325.0,0.879482,-0.230673,0.41624,14326.0,-3884.0,5382.0,-33.0,3.0,16.0
2875.0,2811.0,2843.0,3089.0,2991.0,0.84137,-0.137207,-0.522766,6.1e-05,-1.0,0.0,0.0,7181.0,-1899.0,2709.0,-25.0,-7.0,-697.0,600.0,-171.0,-310.0,0.879662,-0.230947,0.415793,14450.0,-3878.0,5454.0,-17.0,11.0,11.0
2879.0,2809.0,2845.0,3087.0,2988.0,0.841187,-0.13739,-0.52301,6.1e-05,0.0,1.0,0.0,7182.0,-1876.0,2726.0,-25.0,18.0,-675.0,585.0,-142.0,-306.0,0.879882,-0.231205,0.415179,14278.0,-3594.0,5474.0,6.0,34.0,2.0
2867.0,2807.0,2832.0,3091.0,2983.0,0.841125,-0.13739,-0.523071,0.0,-1.0,1.0,0.0,7165.0,-1852.0,2735.0,-43.0,41.0,-664.0,570.0,-120.0,-322.0,0.879937,-0.231125,0.415012,14238.0,-3570.0,5568.0,-1.0,30.0,1.0
2879.0,2806.0,2831.0,3089.0,2995.0,0.841003,-0.137573,-0.523254,-6.1e-05,-1.0,0.0,0.0,7158.0,-1834.0,2755.0,-52.0,61.0,-641.0,549.0,-97.0,-325.0,0.880134,-0.231335,0.414565,14348.0,-3678.0,5524.0,-19.0,19.0,8.0
2875.0,2811.0,2845.0,3094.0,2989.0,0.840881,-0.137756,-0.523438,-0.000122,-1.0,0.0,0.0,7158.0,-1843.0,2760.0,-53.0,53.0,-632.0,540.0,-103.0,-320.0,0.880331,-0.231546,0.414118,14308.0,-3770.0,5568.0,-18.0,13.0,9.0
2879.0,2807.0,2861.0,3095.0,2983.0,0.840637,-0.137939,-0.523743,-0.000183,-1.0,0.0,-1.0,7165.0,-1855.0,2780.0,-48.0,43.0,-606.0,518.0,-106.0,-302.0,0.880606,-0.231722,0.413337,14320.0,-3734.0,5628.0,-13.0,11.0,-2.0
2864.0,2807.0,2838.0,3093.0,2991.0,0.840515,-0.138062,-0.523865,-0.000305,-1.0,0.0,-1.0,7167.0,-1854.0,2792.0,-47.0,44.0,-591.0,505.0,-101.0,-295.0,0.880717,-0.231766,0.412971,14332.0,-3684.0,5672.0,-16.0,11.0,-9.0
2871.0,2811.0,2833.0,3071.0,2987.0,0.840332,-0.138245,-0.52417,-0.000488,-1.0,0.0,-1.0,7168.0,-1866.0,2812.0,-49.0,33.0,-565.0,480.0,-106.0,-283.0,0.881089,-0.231831,0.412292,14322.0,-3786.0,5634.0,-10.0,8.0,-9.0
2871.0,2811.0,2839.0,3089.0,2991.0,0.84021,-0.138245,-0.524353,-0.000549,0.0,0.0,-1.0,7168.0,-1860.0,2816.0,-51.0,38.0,-558.0,474.0,-100.0,-283.0,0.881285,-0.231733,0.411895,14334.0,-3668.0,5638.0,4.0,6.0,-9.0
2875.0,2811.0,2839.0,3091.0,2995.0,0.839966,-0.138184,-0.52478,-0.000549,0.0,-1.0,0.0,7171.0,-1822.0,2821.0,-52.0,74.0,-546.0,468.0,-63.0,-287.0,0.881747,-0.231562,0.411054,14430.0,-3482.0,5722.0,13.0,-9.0,0.0
2875.0,2813.0,2835.0,3087.0,2991.0,0.839844,-0.138123,-0.524963,-0.000549,0.0,-1.0,0.0,7170.0,-1797.0,2828.0,-54.0,98.0,-536.0,462.0,-38.0,-290.0,0.881926,-0.231426,0.410673,14354.0,-3480.0,5718.0,6.0,-8.0,3.0
2876.0,2815.0,2842.0,3091.0,2991.0,0.839539,-0.138184,-0.525391,-0.000549,-1.0,-1.0,0.0,7171.0,-1780.0,2835.0,-56.0,115.0,-521.0,451.0,-18.0,-289.0,0.882323,-0.231444,0.409695,14310.0,-3532.0,5692.0,-6.0,-7.0,9.0
2880.0,2814.0,2845.0,3089.0,2987.0,0.839417,-0.138245,-0.525635,-0.000549,-1.0,-1.0,0.0,7168.0,-1784.0,2823.0,-62.0,112.0,-529.0,455.0,-24.0,-297.0,0.882605,-0.231512,0.409217,14308.0,-3620.0,5600.0,-8.0,-11.0,14.0
2871.0,2811.0,2839.0,3090.0,2985.0,0.83905,-0.138489,-0.526184,-0.000488,-1.0,-2.0,0.0,7162.0,-1829.0,2793.0,-72.0,70.0,-548.0,461.0,-70.0,-303.0,0.883125,-0.231884,0.407957,14340.0,-3826.0,5448.0,-19.0,-24.0,10.0
2874.0,2813.0,2838.0,3095.0,2991.0,0.838806,-0.138672,-0.526489,-0.000488,-1.0,-2.0,0.0,7162.0,-1860.0,2783.0,-74.0,41.0,-552.0,460.0,-100.0,-299.0,0.88338,-0.232123,0.407175,14340.0,-3904.0,5508.0,-16.0,-26.0,5.0
2879.0,2810.0,2835.0,3071.0,2987.0,0.838379,-0.138855,-0.5271,-0.000427,0.0,-1.0,-1.0,7175.0,-1901.0,2759.0,-66.0,2.0,-565.0,470.0,-139.0,-288.0,0.883937,-0.232376,0.405765,14458.0,-3838.0,5462.0,6.0,-22.0,-3.0
2875.0,2811.0,2845.0,3091.0,2995.0,0.838196,-0.138855,-0.527344,-0.000427,0.0,-1.0,-1.0,7184.0,-1903.0,2750.0,-58.0,0.0,-569.0,477.0,-141.0,-281.0,0.884153,-0.232325,0.4052,14390.0,-3796.0,5480.0,14.0,-12.0,-7.0
2879.0,2813.0,2832.0,3089.0,2991.0,0.837952,-0.138794,-0.527771,-0.000427,0.0,0.0,-1.0,7183.0,-1873.0,2736.0,-63.0,28.0,-576.0,485.0,-116.0,-295.0,0.884612,-0.232154,0.404357,14334.0,-3616.0,5430.0,11.0,4.0,-12.0
2873.0,2813.0,2839.0,3071.0,2987.0,0.83783,-0.138733,-0.527954,-0.000488,0.0,0.0,-1.0,7174.0,-1848.0,2741.0,-74.0,52.0,-568.0,477.0,-93.0,-306.0,0.884807,-0.231954,0.403976,14302.0,-3546.0,5496.0,3.0,7.0,-11.0
2870.0,2807.0,2839.0,3091.0,2991.0,0.837646,-0.138855,-0.52832,-0.000671,-1.0,-1.0,-1.0,7140.0,-1813.0,2751.0,-112.0,86.0,-552.0,451.0,-62.0,-341.0,0.885278,-0.231913,0.403249,14272.0,-3582.0,5528.0,-22.0,-6.0,-1.0
2881.0,2815.0,2834.0,3091.0,2992.0,0.837463,-0.138977,-0.528503,-0.000732,-2.0,-1.0,0.0,7150.0,-1813.0,2760.0,-103.0,87.0,-539.0,444.0,-57.0,-328.0,0.885408,-0.232002,0.402715,14378.0,-3636.0,5586.0,-27.0,-11.0,1.0
2871.0,2812.0,2839.0,3091.0,2997.0,0.837158,-0.13916,-0.528931,-0.000793,-1.0,0.0,0.0,7174.0,-1833.0,2758.0,-82.0,68.0,-532.0,445.0,-71.0,-302.0,0.885818,-0.232159,0.401701,14404.0,-3724.0,5536.0,-8.0,1.0,3.0
2877.0,2814.0,2839.0,3071.0,2983.0,0.837036,-0.139221,-0.529053,-0.000793,-1.0,0.0,0.0,7182.0,-1845.0,2765.0,-75.0,57.0,-522.0,437.0,-78.0,-289.0,0.885893,-0.232227,0.401351,14424.0,-3790.0,5588.0,0.0,2.0,3.0
2882.0,2807.0,2833.0,3071.0,2979.0,0.836853,-0.139282,-0.529358,-0.000732,0.0,0.0,0.0,7181.0,-1844.0,2766.0,-78.0,59.0,-516.0,431.0,-75.0,-289.0,0.886194,-0.232342,0.400704,14378.0,-3642.0,5548.0,4.0,1.0,8.0
2871.0,2815.0,2846.0,3091.0,2991.0,0.836731,-0.139343,-0.529541,-0.000732,0.0,0.0,0.0,7193.0,-1847.0,2765.0,-68.0,56.0,-514.0,433.0,-76.0,-279.0,0.886371,-0.23241,0.400289,14428.0,-3682.0,5534.0,2.0,5.0,5.0
2879.0,2815.0,2833.0,3071.0,2991.0,0.836609,-0.139404,-0.529785,-0.000732,-1.0,0.0,0.0,7166.0,-1833.0,2758.0,-97.0,71.0,-517.0,426.0,-66.0,-309.0,0.88665,-0.232478,0.399809,14150.0,-3594.0,5514.0,-4.0,8.0,0.0
2877.0,2811.0,2833.0,3088.0,2991.0,0.836487,-0.139465,-0.529968,-0.000793,-1.0,-1.0,0.0,7144.0,-1832.0,2759.0,-121.0,72.0,-512.0,411.0,-68.0,-328.0,0.886844,-0.232481,0.399394,14200.0,-3700.0,5518.0,-14.0,-4.0,0.0
2869.0,2813.0,2835.0,3090.0,2992.0,0.836182,-0.139709,-0.530334,-0.000854,-1.0,-1.0,0.0,7159.0,-1861.0,2767.0,-108.0,45.0,-496.0,399.0,-88.0,-303.0,0.887151,-0.232739,0.398427,14416.0,-3784.0,5554.0,-11.0,-4.0,6.0
2879.0,2819.0,2832.0,3091.0,2991.0,0.83606,-0.139832,-0.530457,-0.000854,-1.0,0.0,0.0,7167.0,-1861.0,2780.0,-101.0,46.0,-480.0,388.0,-83.0,-291.0,0.887226,-0.232908,0.398059,14334.0,-3674.0,5600.0,-5.0,6.0,5.0
2871.0,2815.0,2847.0,3091.0,2993.0,0.835938,-0.139954,-0.530701,-0.000854,-1.0,0.0,0.0,7173.0,-1854.0,2786.0,-97.0,55.0,-470.0,382.0,-71.0,-285.0,0.887504,-0.233078,0.397562,14392.0,-3682.0,5662.0,-9.0,10.0,5.0
2863.0,2827.0,2839.0,3091.0,2987.0,0.835876,-0.140076,-0.530762,-0.000916,-1.0,0.0,0.0,7176.0,-1849.0,2783.0,-94.0,61.0,-472.0,386.0,-66.0,-285.0,0.887559,-0.2332,0.397361,14374.0,-3662.0,5534.0,-9.0,11.0,4.0
2879.0,2810.0,2839.0,3071.0,2997.0,0.835693,-0.140137,-0.531006,-0.000916,0.0,0.0,0.0,7184.0,-1859.0,2774.0,-88.0,51.0,-476.0,391.0,-75.0,-278.0,0.887773,-0.23325,0.396779,14382.0,-3744.0,5586.0,3.0,9.0,6.0
2879.0,2815.0,2842.0,3071.0,2999.0,0.835632,-0.140198,-0.531128,-0.000854,0.0,0.0,0.0,7176.0,-1855.0,2772.0,-97.0,57.0,-476.0,388.0,-71.0,-288.0,0.887895,-0.2334,0.39653,14264.0,-3680.0,5520.0,7.0,8.0,5.0
2885.0,2807.0,2837.0,3089.0,2993.0,0.835388,-0.140198,-0.531494,-0.000854,-1.0,-1.0,-1.0,7165.0,-1858.0,2763.0,-111.0,53.0,-478.0,384.0,-77.0,-300.0,0.888247,-0.233331,0.395733,14408.0,-3732.0,5522.0,0.0,-13.0,-3.0
2875.0,2803.0,2835.0,3091.0,2993.0,0.835266,-0.140259,-0.531677,-0.000854,0.0,-1.0,-1.0,7176.0,-1863.0,2773.0,-101.0,48.0,-465.0,376.0,-78.0,-284.0,0.888424,-0.233398,0.395317,14426.0,-3736.0,5632.0,3.0,-10.0,-6.0
2869.0,2809.0,2845.0,3094.0,2995.0,0.835022,-0.140259,-0.532043,-0.000977,-1.0,0.0,-1.0,7197.0,-1837.0,2788.0,-84.0,73.0,-443.0,368.0,-46.0,-266.0,0.88881,-0.233199,0.39452,14468.0,-3668.0,5668.0,-13.0,1.0,-9.0
2879.0,2811.0,2849.0,3095.0,2994.0,0.834961,-0.14032,-0.532166,-0.001099,-1.0,0.0,-1.0,7194.0,-1833.0,2787.0,-88.0,76.0,-442.0,365.0,-44.0,-270.0,0.888983,-0.233154,0.394271,14374.0,-3628.0,5562.0,-20.0,10.0,-6.0
2878.0,2809.0,2847.0,3099.0,2999.0,0.834778,-0.140503,-0.53241,-0.001282,-1.0,-1.0,-1.0,7165.0,-1826.0,2783.0,-119.0,84.0,-441.0,353.0,-40.0,-299.0,0.889248,-0.233213,0.393655,14260.0,-3628.0,5568.0,-18.0,0.0,-3.0
2875.0,2815.0,2842.0,3088.0,2990.0,0.834656,-0.140625,-0.532532,-0.001343,-1.0,-1.0,-1.0,7165.0,-1832.0,2788.0,-120.0,79.0,-433.0,344.0,-44.0,-295.0,0.889339,-0.233317,0.393287,14350.0,-3720.0,5588.0,-14.0,-7.0,-2.0
2876.0,2813.0,2837.0,3089.0,2999.0,0.834412,-0.140686,-0.532898,-0.001343,0.0,-1.0,0.0,7169.0,-1843.0,2793.0,-119.0,68.0,-422.0,334.0,-51.0,-287.0,0.88969,-0.233349,0.392472,14366.0,-3672.0,5570.0,7.0,-9.0,4.0
2875.0,2811.0,2855.0,3091.0,2987.0,0.83429,-0.140625,-0.533081,-0.001282,0.0,-1.0,0.0,7167.0,-1836.0,2791.0,-122.0,75.0,-421.0,333.0,-45.0,-291.0,0.889848,-0.233277,0.39209,14294.0,-3622.0,5540.0,9.0,-10.0,5.0
2882.0,2815.0,2829.0,3091.0,2986.0,0.834045,-0.140686,-0.533447,-0.001221,-1.0,-1.0,0.0,7162.0,-1819.0,2784.0,-130.0,92.0,-421.0,332.0,-30.0,-301.0,0.890182,-0.233375,0.391275,14328.0,-3558.0,5572.0,-1.0,-14.0,8.0
2875.0,2815.0,2847.0,3095.0,2987.0,0.833923,-0.140747,-0.53363,-0.001221,-1.0,-1.0,0.0,7169.0,-1818.0,2782.0,-124.0,94.0,-419.0,333.0,-27.0,-296.0,0.890357,-0.233442,0.390859,14396.0,-3652.0,5556.0,-7.0,-12.0,6.0
2870.0,2813.0,2833.0,3089.0,2994.0,0.833679,-0.140869,-0.533936,-0.001282,-1.0,0.0,0.0,7169.0,-1842.0,2765.0,-126.0,70.0,-430.0,339.0,-53.0,-296.0,0.890623,-0.233511,0.390091,14264.0,-3754.0,5470.0,-13.0,2.0,3.0
2878.0,2818.0,2834.0,3095.0,2987.0,0.833618,-0.140991,-0.534058,-0.001343,-1.0,-1.0,0.0,7152.0,-1841.0,2751.0,-145.0,72.0,-442.0,342.0,-56.0,-318.0,0.890779,-0.233631,0.389825,14206.0,-3698.0,5428.0,-20.0,-2.0,0.0
2871.0,2809.0,2839.0,3099.0,2995.0,0.833374,-0.141296,-0.534363,-0.001465,-2.0,-1.0,0.0,7162.0,-1854.0,2750.0,-137.0,62.0,-436.0,338.0,-64.0,-306.0,0.891062,-0.23394,0.389006,14396.0,-3708.0,5500.0,-24.0,0.0,0.0
2875.0,2818.0,2847.0,3095.0,2992.0,0.833252,-0.141418,-0.534485,-0.001526,-1.0,0.0,-1.0,7168.0,-1855.0,2746.0,-132.0,62.0,-437.0,342.0,-63.0,-301.0,0.891153,-0.234043,0.388638,14344.0,-3694.0,5472.0,-19.0,4.0,-2.0
2879.0,2819.0,2837.0,3071.0,2987.0,0.833069,-0.141541,-0.534729,-0.001587,-1.0,0.0,0.0,7163.0,-1853.0,2749.0,-139.0,64.0,-429.0,332.0,-61.0,-305.0,0.891381,-0.234129,0.388037,14320.0,-3650.0,5460.0,-8.0,5.0,5.0
2878.0,2813.0,2847.0,3091.0,2995.0,0.833008,-0.141602,-0.534851,-0.001587,-1.0,0.0,0.0,7171.0,-1854.0,2755.0,-132.0,64.0,-421.0,328.0,-58.0,-295.0,0.89152,-0.234213,0.387788,14416.0,-3730.0,5576.0,-9.0,6.0,6.0
2875.0,2813.0,2847.0,3071.0,2991.0,0.832947,-0.141724,-0.534912,-0.001648,-1.0,1.0,0.0,7196.0,-1835.0,2771.0,-107.0,84.0,-404.0,327.0,-31.0,-271.0,0.891574,-0.234333,0.387587,14398.0,-3610.0,5608.0,-9.0,25.0,6.0
2879.0,2813.0,2835.0,3103.0,2983.0,0.832886,-0.141846,-0.534912,-0.001709,-1.0,1.0,0.0,7186.0,-1841.0,2771.0,-117.0,79.0,-402.0,320.0,-37.0,-278.0,0.891526,-0.234454,0.38745,14282.0,-3722.0,5528.0,-15.0,30.0,6.0
2877.0,2807.0,2831.0,3071.0,2983.0,0.832825,-0.142029,-0.534973,-0.001709,-1.0,0.0,0.0,7145.0,-1830.0,2769.0,-158.0,93.0,-403.0,305.0,-30.0,-318.0,0.891563,-0.234742,0.387231,14282.0,-3666.0,5618.0,-17.0,3.0,8.0
2864.0,2815.0,2839.0,3106.0,2997.0,0.832703,-0.142151,-0.535095,-0.00177,-1.0,-1.0,0.0,7151.0,-1843.0,2784.0,-153.0,80.0,-385.0,289.0,-37.0,-304.0,0.891654,-0.234845,0.386863,14348.0,-3760.0,5644.0,-13.0,-5.0,3.0
2863.0,2815.0,2843.0,3091.0,2997.0,0.832581,-0.142212,-0.535339,-0.00177,0.0,-1.0,-1.0,7165.0,-1853.0,2798.0,-141.0,71.0,-367.0,277.0,-40.0,-284.0,0.89193,-0.234911,0.386381,14352.0,-3726.0,5592.0,5.0,-4.0,-3.0
2865.0,2811.0,2838.0,3071.0,2995.0,0.832458,-0.142151,-0.535522,-0.00177,0.0,-1.0,-1.0,7171.0,-1861.0,2798.0,-137.0,62.0,-364.0,275.0,-47.0,-277.0,0.892104,-0.234774,0.385999,14388.0,-3752.0,5660.0,4.0,-3.0,-7.0
2873.0,2815.0,2843.0,3095.0,3015.0,0.832336,-0.14209,-0.535706,-0.001831,0.0,-1.0,-1.0,7169.0,-1857.0,2801.0,-140.0,64.0,-357.0,268.0,-44.0,-277.0,0.892295,-0.234571,0.385617,14340.0,-3624.0,5564.0,8.0,0.0,-10.0
2879.0,2803.0,2831.0,3103.0,2995.0,0.832275,-0.142029,-0.535828,-0.001892,-1.0,-1.0,-1.0,7173.0,-1832.0,2798.0,-137.0,88.0,-359.0,275.0,-21.0,-281.0,0.89245,-0.234387,0.385402,14362.0,-3518.0,5568.0,-2.0,-3.0,-13.0
2871.0,2807.0,2849.0,3071.0,2983.0,0.832092,-0.142151,-0.536133,-0.002075,-1.0,-1.0,-1.0,7172.0,-1830.0,2800.0,-141.0,89.0,-351.0,266.0,-19.0,-281.0,0.892814,-0.23434,0.384737,14328.0,-3602.0,5590.0,-18.0,-8.0,-5.0
2871.0,2813.0,2833.0,3095.0,2991.0,0.83197,-0.142212,-0.536316,-0.002197,-2.0,-1.0,-1.0,7174.0,-1829.0,2799.0,-141.0,90.0,-349.0,265.0,-18.0,-281.0,0.893023,-0.234275,0.38432,14374.0,-3702.0,5626.0,-28.0,-9.0,-6.0
2879.0,2822.0,2839.0,3088.0,2994.0,0.831726,-0.142517,-0.53656,-0.002258,-1.0,-1.0,0.0,7167.0,-1905.0,2788.0,-149.0,17.0,-354.0,255.0,-90.0,-272.0,0.893186,-0.234647,0.383566,14270.0,-3946.0,5550.0,-5.0,-4.0,4.0
2883.0,2801.0,2829.0,3063.0,2995.0,0.831665,-0.142517,-0.536682,-0.002197,0.0,-1.0,0.0,7154.0,-1899.0,2783.0,-163.0,23.0,-357.0,252.0,-87.0,-287.0,0.893306,-0.234694,0.383333,14226.0,-3708.0,5546.0,12.0,-6.0,1.0
2871.0,2819.0,2833.0,3095.0,2990.0,0.831482,-0.142395,-0.536926,-0.002136,0.0,-1.0,-1.0,7171.0,-1878.0,2791.0,-148.0,43.0,-344.0,251.0,-63.0,-274.0,0.893497,-0.234504,0.382801,14498.0,-3706.0,5594.0,19.0,-9.0,-1.0
2875.0,2810.0,2839.0,3095.0,2990.0,0.831421,-0.142334,-0.537048,-0.002075,1.0,-1.0,0.0,7188.0,-1859.0,2798.0,-132.0,61.0,-336.0,253.0,-41.0,-260.0,0.893617,-0.23445,0.382585,14472.0,-3574.0,5654.0,27.0,0.0,5.0
2887.0,2810.0,2838.0,3071.0,2959.0,0.831299,-0.142151,-0.537292,-0.001953,0.0,-1.0,0.0,7182.0,-1812.0,2782.0,-140.0,106.0,-348.0,268.0,-2.0,-282.0,0.893857,-0.234241,0.382171,14370.0,-3524.0,5556.0,8.0,-3.0,11.0
2871.0,2802.0,2834.0,3099.0,2979.0,0.831238,-0.142212,-0.537415,-0.001953,-1.0,-1.0,0.0,7187.0,-1800.0,2773.0,-136.0,119.0,-355.0,278.0,9.0,-285.0,0.893994,-0.234325,0.381921,14418.0,-3528.0,5452.0,-4.0,-6.0,10.0
2881.0,2843.0,2851.0,3095.0,2979.0,0.831055,-0.142273,-0.537659,-0.001953,-1.0,-1.0,0.0,7183.0,-1820.0,2762.0,-142.0,99.0,-361.0,277.0,-12.0,-287.0,0.894203,-0.234373,0.381337,14280.0,-3766.0,5470.0,-9.0,-1.0,3.0
2867.0,2801.0,2843.0,3071.0,2995.0,0.830933,-0.142395,-0.537781,-0.002014,-1.0,-1.0,0.0,7160.0,-1823.0,2757.0,-166.0,97.0,-363.0,269.0,-18.0,-309.0,0.894293,-0.234475,0.380969,14206.0,-3658.0,5504.0,-12.0,-8.0,1.0
2879.0,2815.0,2845.0,3095.0,2983.0,0.830688,-0.142578,-0.538147,-0.002075,-1.0,-1.0,0.0,7161.0,-1866.0,2760.0,-168.0,56.0,-353.0,253.0,-55.0,-297.0,0.894657,-0.234642,0.380117,14388.0,-3904.0,5520.0,-15.0,-17.0,3.0
2867.0,2814.0,2835.0,3103.0,3023.0,0.830566,-0.1427,-0.538269,-0.002014,-1.0,-1.0,0.0,7159.0,-1876.0,2766.0,-170.0,48.0,-344.0,243.0,-61.0,-294.0,0.894711,-0.234876,0.379748,14252.0,-3786.0,5566.0,-2.0,-11.0,4.0
2866.0,2819.0,2849.0,3071.0,2963.0,0.830383,-0.1427,-0.538635,-0.002014,0.0,-1.0,-1.0,7154.0,-1883.0,2769.0,-178.0,40.0,-336.0,231.0,-68.0,-296.0,0.895122,-0.234822,0.379049,14366.0,-3794.0,5564.0,9.0,-20.0,-4.0
2867.0,2814.0,2827.0,3061.0,2997.0,0.830261,-0.142639,-0.538757,-0.001953,0.0,-1.0,-1.0,7169.0,-1877.0,2778.0,-164.0,46.0,-324.0,228.0,-57.0,-280.0,0.895176,-0.234751,0.378732,14424.0,-3690.0,5612.0,12.0,-15.0,-2.0
2879.0,2815.0,2857.0,3071.0,2995.0,0.830139,-0.142639,-0.539001,-0.002014,-1.0,0.0,-1.0,7188.0,-1849.0,2767.0,-147.0,73.0,-331.0,245.0,-31.0,-273.0,0.895467,-0.234649,0.378267,14366.0,-3720.0,5458.0,-14.0,3.0,-2.0
2875.0,2811.0,2831.0,3067.0,2995.0,0.830017,-0.142761,-0.539124,-0.002075,-1.0,0.0,0.0,7179.0,-1858.0,2760.0,-157.0,65.0,-335.0,244.0,-41.0,-282.0,0.895556,-0.234751,0.377898,14290.0,-3776.0,5472.0,-18.0,1.0,0.0
2891.0,2815.0,2807.0,3089.0,2973.0,0.829895,-0.142944,-0.539307,-0.002258,-1.0,-1.0,-1.0,7159.0,-1872.0,2748.0,-179.0,51.0,-344.0,240.0,-60.0,-302.0,0.895781,-0.234822,0.377446,14302.0,-3840.0,5458.0,-12.0,-4.0,-12.0
2881.0,2821.0,2835.0,3107.0,3013.0,0.829773,-0.142944,-0.539429,-0.002319,-1.0,-1.0,-1.0,7169.0,-1883.0,2748.0,-169.0,39.0,-341.0,240.0,-69.0,-289.0,0.89587,-0.23472,0.377112,14408.0,-3798.0,5548.0,-5.0,0.0,-16.0
2874.0,2805.0,2831.0,3095.0,2991.0,0.829712,-0.143005,-0.539551,-0.002563,-1.0,0.0,-1.0,7187.0,-1882.0,2740.0,-153.0,39.0,-347.0,252.0,-68.0,-277.0,0.896077,-0.23454,0.376863,14446.0,-3832.0,5438.0,-13.0,20.0,-17.0
2879.0,2811.0,2815.0,3071.0,3005.0,0.829712,-0.143005,-0.539551,-0.002625,-1.0,1.0,-1.0,7196.0,-1892.0,2736.0,-144.0,28.0,-351.0,258.0,-79.0,-267.0,0.896094,-0.234474,0.376863,14410.0,-3802.0,5454.0,0.0,34.0,-10.0
2867.0,2807.0,2859.0,3071.0,2983.0,0.829834,-0.142822,-0.539368,-0.002686,1.0,1.0,-1.0,7166.0,-1841.0,2739.0,-173.0,77.0,-351.0,253.0,-36.0,-305.0,0.895938,-0.234141,0.377316,14144.0,-3432.0,5510.0,25.0,42.0,-6.0
2864.0,2814.0,2847.0,3091.0,2979.0,0.829895,-0.1427,-0.539368,-0.002686,0.0,1.0,-1.0,7143.0,-1811.0,2744.0,-197.0,105.0,-348.0,245.0,-12.0,-332.0,0.896004,-0.233955,0.377452,14186.0,-3476.0,5538.0,17.0,25.0,-3.0
2881.0,2815.0,2811.0,3111.0,2991.0,0.829895,-0.142578,-0.539429,-0.002625,0.0,0.0,0.0,7158.0,-1779.0,2776.0,-182.0,136.0,-315.0,227.0,27.0,-313.0,0.896087,-0.233818,0.377421,14416.0,-3380.0,5692.0,11.0,8.0,13.0
2877.0,2803.0,2849.0,3089.0,2983.0,0.829834,-0.142578,-0.539429,-0.002625,-1.0,0.0,0.0,7163.0,-1765.0,2797.0,-177.0,150.0,-294.0,212.0,47.0,-304.0,0.896021,-0.233801,0.377319,14374.0,-3508.0,5682.0,-5.0,7.0,10.0
2846.0,2801.0,2837.0,3098.0,3039.0,0.829773,-0.1427,-0.539551,-0.002563,-1.0,-1.0,0.0,7168.0,-1801.0,2814.0,-173.0,116.0,-274.0,191.0,19.0,-285.0,0.896141,-0.234051,0.377051,14318.0,-3706.0,5638.0,-6.0,-2.0,13.0
2875.0,2819.0,2832.0,3067.0,2991.0,0.829712,-0.1427,-0.539612,-0.002563,0.0,-1.0,0.0,7167.0,-1814.0,2809.0,-174.0,103.0,-278.0,192.0,6.0,-284.0,0.896176,-0.234034,0.376884,14342.0,-3690.0,5580.0,5.0,-7.0,8.0
2859.0,2815.0,2854.0,3088.0,2983.0,0.829529,-0.1427,-0.539917,-0.002441,0.0,-1.0,0.0,7156.0,-1833.0,2808.0,-187.0,84.0,-274.0,180.0,-13.0,-290.0,0.89645,-0.234112,0.37625,14330.0,-3688.0,5674.0,10.0,-21.0,5.0
2873.0,2817.0,2827.0,3062.0,3011.0,0.829407,-0.1427,-0.5401,-0.00238,-1.0,-2.0,0.0,7162.0,-1837.0,2816.0,-182.0,81.0,-262.0,171.0,-12.0,-280.0,0.896605,-0.234142,0.37585,14370.0,-3726.0,5712.0,-1.0,-24.0,7.0
2881.0,2807.0,2829.0,3071.0,2967.0,0.829224,-0.142883,-0.540344,-0.002319,-1.0,-1.0,0.0,7168.0,-1878.0,2812.0,-178.0,42.0,-261.0,166.0,-49.0,-267.0,0.896795,-0.234458,0.37523,14326.0,-3850.0,5638.0,-9.0,-12.0,9.0
2891.0,2825.0,2847.0,3087.0,2993.0,0.829163,-0.142944,-0.540466,-0.002258,-1.0,-1.0,0.0,7164.0,-1887.0,2805.0,-183.0,34.0,-266.0,167.0,-58.0,-271.0,0.896915,-0.234607,0.374979,14286.0,-3804.0,5558.0,-4.0,-5.0,3.0
2885.0,2815.0,2832.0,3089.0,2991.0,0.828979,-0.143005,-0.540649,-0.002319,-1.0,-1.0,-1.0,7145.0,-1885.0,2775.0,-203.0,36.0,-292.0,182.0,-66.0,-299.0,0.897038,-0.234589,0.37446,14242.0,-3708.0,5412.0,-2.0,-4.0,-6.0
2875.0,2805.0,2829.0,3067.0,2991.0,0.828918,-0.143066,-0.540771,-0.002319,-1.0,-1.0,-1.0,7145.0,-1879.0,2757.0,-204.0,43.0,-308.0,198.0,-63.0,-308.0,0.897175,-0.234672,0.374209,14276.0,-3724.0,5416.0,-4.0,-6.0,-7.0
2866.0,2807.0,2834.0,3090.0,2987.0,0.828796,-0.143066,-0.540955,-0.002441,-1.0,0.0,-1.0,7154.0,-1851.0,2743.0,-197.0,70.0,-319.0,215.0,-39.0,-312.0,0.897381,-0.234504,0.37381,14332.0,-3620.0,5440.0,-6.0,2.0,-6.0
2881.0,2819.0,2835.0,3099.0,3003.0,0.828735,-0.143127,-0.541077,-0.002502,-1.0,0.0,-1.0,7158.0,-1834.0,2734.0,-194.0,87.0,-326.0,225.0,-24.0,-316.0,0.897535,-0.234522,0.373559,14306.0,-3574.0,5398.0,-12.0,1.0,-3.0
2875.0,2811.0,2827.0,3103.0,2983.0,0.828552,-0.14325,-0.54126,-0.002625,-1.0,-1.0,0.0,7164.0,-1842.0,2728.0,-189.0,79.0,-327.0,227.0,-31.0,-310.0,0.897676,-0.234538,0.373023,14370.0,-3730.0,5468.0,-10.0,0.0,2.0
2866.0,2810.0,2837.0,3093.0,2983.0,0.828491,-0.14325,-0.541321,-0.002625,-1.0,0.0,-1.0,7187.0,-1841.0,2735.0,-167.0,80.0,-319.0,229.0,-25.0,-287.0,0.897711,-0.234521,0.372856,14510.0,-3626.0,5530.0,-4.0,3.0,-3.0
2883.0,2811.0,2837.0,3071.0,2975.0,0.82843,-0.14325,-0.541443,-0.002686,0.0,0.0,-1.0,7197.0,-1840.0,2766.0,-158.0,80.0,-286.0,203.0,-15.0,-267.0,0.897865,-0.234436,0.372623,14374.0,-3626.0,5628.0,4.0,9.0,-3.0
2874.0,2805.0,2839.0,3099.0,2991.0,0.82843,-0.14325,-0.541443,-0.002747,0.0,0.0,0.0,7184.0,-1822.0,2781.0,-171.0,97.0,-271.0,187.0,2.0,-277.0,0.897882,-0.23437,0.372623,14302.0,-3524.0,5654.0,2.0,3.0,3.0
2871.0,2821.0,2837.0,3088.0,2995.0,0.828308,-0.14325,-0.541626,-0.002747,-1.0,-1.0,0.0,7202.0,-1818.0,2805.0,-154.0,101.0,-244.0,171.0,15.0,-252.0,0.898053,-0.234334,0.372223,14494.0,-3712.0,5652.0,-4.0,-8.0,3.0
2865.0,2805.0,2833.0,3090.0,2999.0,0.828247,-0.14325,-0.541687,-0.002747,0.0,-1.0,0.0,7195.0,-1827.0,2816.0,-162.0,92.0,-231.0,154.0,8.0,-252.0,0.898088,-0.234316,0.372055,14316.0,-3676.0,5692.0,4.0,-5.0,2.0
2880.0,2803.0,2826.0,3095.0,2994.0,0.828125,-0.143188,-0.541931,-0.002686,0.0,-1.0,0.0,7161.0,-1810.0,2810.0,-198.0,108.0,-234.0,145.0,17.0,-290.0,0.898343,-0.234245,0.371606,14200.0,-3572.0,5624.0,3.0,-16.0,3.0
2879.0,2815.0,2843.0,3091.0,3013.0,0.828064,-0.143188,-0.542053,-0.002686,-1.0,-1.0,0.0,7158.0,-1807.0,2807.0,-202.0,111.0,-235.0,145.0,19.0,-294.0,0.898479,-0.234227,0.371373,14324.0,-3606.0,5612.0,-8.0,-20.0,3.0
2881.0,2811.0,2825.0,3099.0,2975.0,0.827881,-0.143311,-0.542297,-0.002747,-1.0,-1.0,-1.0,7164.0,-1849.0,2786.0,-198.0,70.0,-251.0,154.0,-23.0,-287.0,0.898702,-0.234309,0.37077,14368.0,-3914.0,5472.0,-10.0,-13.0,-1.0
2887.0,2803.0,2827.0,3087.0,2992.0,0.827759,-0.143372,-0.542419,-0.002747,0.0,-1.0,-1.0,7171.0,-1876.0,2774.0,-191.0,43.0,-260.0,161.0,-50.0,-278.0,0.898772,-0.234375,0.370418,14374.0,-3882.0,5498.0,10.0,-7.0,-2.0
2871.0,2813.0,2849.0,3071.0,2999.0,0.827698,-0.143188,-0.542603,-0.002625,1.0,0.0,0.0,7173.0,-1860.0,2754.0,-191.0,58.0,-278.0,180.0,-39.0,-288.0,0.898973,-0.234185,0.37017,14346.0,-3606.0,5442.0,27.0,6.0,0.0
2870.0,2811.0,2839.0,3103.0,2991.0,0.827698,-0.143127,-0.542664,-0.002563,0.0,0.0,0.0,7162.0,-1832.0,2749.0,-203.0,86.0,-283.0,184.0,-16.0,-307.0,0.899057,-0.23415,0.370121,14262.0,-3484.0,5472.0,15.0,2.0,4.0
2883.0,2807.0,2833.0,3071.0,2990.0,0.827576,-0.143127,-0.542847,-0.002502,-1.0,-1.0,0.0,7159.0,-1814.0,2748.0,-207.0,104.0,-280.0,182.0,1.0,-314.0,0.89921,-0.234181,0.36972,14354.0,-3674.0,5514.0,-4.0,-7.0,11.0
2871.0,2815.0,2846.0,3103.0,2987.0,0.827454,-0.143188,-0.542908,-0.002502,-1.0,-1.0,0.0,7169.0,-1809.0,2752.0,-197.0,109.0,-274.0,182.0,9.0,-303.0,0.899179,-0.234246,0.369434,14384.0,-3580.0,5578.0,-7.0,-4.0,9.0
2871.0,2802.0,2832.0,3071.0,2982.0,0.827332,-0.143372,-0.543091,-0.002563,-1.0,-1.0,0.0,7186.0,-1815.0,2763.0,-181.0,105.0,-259.0,175.0,11.0,-282.0,0.899367,-0.234447,0.368981,14418.0,-3710.0,5586.0,-21.0,-1.0,5.0
2879.0,2817.0,2862.0,3091.0,2991.0,0.827332,-0.143433,-0.543091,-0.002625,-1.0,0.0,0.0,7194.0,-1836.0,2768.0,-173.0,84.0,-254.0,170.0,-6.0,-269.0,0.899385,-0.234482,0.368964,14416.0,-3784.0,5540.0,-17.0,3.0,5.0
2879.0,2819.0,2827.0,3099.0,2987.0,0.827209,-0.143555,-0.543213,-0.002563,0.0,0.0,0.0,7194.0,-1883.0,2756.0,-174.0,39.0,-263.0,171.0,-52.0,-262.0,0.899438,-0.234715,0.368594,14372.0,-3886.0,5490.0,12.0,5.0,3.0
2869.0,2815.0,2865.0,3101.0,2991.0,0.827209,-0.143494,-0.543274,-0.002502,1.0,0.0,0.0,7188.0,-1883.0,2752.0,-180.0,39.0,-267.0,172.0,-54.0,-269.0,0.899521,-0.23468,0.368545,14320.0,-3728.0,5484.0,27.0,6.0,0.0
2875.0,2805.0,2800.0,3088.0,2997.0,0.827148,-0.143311,-0.543396,-0.00238,0.0,-1.0,-1.0,7166.0,-1859.0,2771.0,-203.0,61.0,-246.0,147.0,-31.0,-287.0,0.899621,-0.234491,0.368363,14296.0,-3622.0,5644.0,16.0,-5.0,-3.0
2887.0,2803.0,2832.0,3095.0,2992.0,0.827087,-0.14325,-0.543457,-0.00238,0.0,-1.0,-1.0,7169.0,-1843.0,2785.0,-200.0,76.0,-231.0,137.0,-12.0,-282.0,0.899655,-0.234372,0.368213,14378.0,-3608.0,5642.0,4.0,-11.0,-3.0
2881.0,2814.0,2815.0,3087.0,2999.0,0.827026,-0.14325,-0.54364,-0.002441,-1.0,-1.0,-1.0,7194.0,-1855.0,2803.0,-178.0,64.0,-210.0,126.0,-15.0,-252.0,0.899909,-0.234288,0.367914,14374.0,-3758.0,5694.0,-4.0,-1.0,-9.0
2883.0,2805.0,2842.0,3090.0,3007.0,0.826965,-0.143188,-0.54364,-0.002502,-1.0,-1.0,-1.0,7181.0,-1854.0,2809.0,-190.0,63.0,-204.0,115.0,-17.0,-260.0,0.89986,-0.234103,0.36783,14296.0,-3690.0,5658.0,-2.0,-2.0,-11.0
2863.0,2803.0,2851.0,3061.0,2983.0,0.826904,-0.143127,-0.543823,-0.002563,0.0,-1.0,-1.0,7183.0,-1854.0,2813.0,-190.0,62.0,-197.0,109.0,-16.0,-257.0,0.900113,-0.233917,0.367548,14372.0,-3672.0,5596.0,9.0,-5.0,-8.0
2871.0,2815.0,2837.0,3071.0,2967.0,0.826843,-0.143066,-0.543884,-0.002625,0.0,-1.0,-1.0,7186.0,-1834.0,2811.0,-188.0,80.0,-198.0,113.0,0.0,-260.0,0.900165,-0.233732,0.367399,14376.0,-3536.0,5610.0,11.0,-2.0,-8.0
2865.0,2799.0,2839.0,3071.0,3007.0,0.826782,-0.142883,-0.544006,-0.002686,-1.0,-1.0,-1.0,7172.0,-1797.0,2796.0,-203.0,114.0,-212.0,125.0,27.0,-287.0,0.900317,-0.233345,0.367217,14278.0,-3500.0,5542.0,0.0,-5.0,-7.0
2875.0,2806.0,2818.0,3087.0,2985.0,0.826721,-0.142883,-0.544128,-0.002747,-1.0,-1.0,-1.0,7156.0,-1783.0,2787.0,-220.0,127.0,-219.0,127.0,36.0,-308.0,0.90047,-0.23326,0.366984,14216.0,-3500.0,5496.0,-7.0,-16.0,-3.0
2863.0,2806.0,2837.0,3091.0,2975.0,0.826477,-0.142944,-0.544495,-0.002869,-1.0,-2.0,-1.0,7170.0,-1806.0,2767.0,-209.0,104.0,-232.0,140.0,12.0,-297.0,0.900845,-0.233157,0.366165,14454.0,-3680.0,5528.0,-8.0,-32.0,-9.0
2879.0,2801.0,2838.0,3102.0,2974.0,0.826355,-0.142944,-0.544678,-0.002869,-1.0,-2.0,-1.0,7192.0,-1816.0,2765.0,-189.0,93.0,-231.0,145.0,5.0,-276.0,0.901014,-0.233121,0.365764,14516.0,-3702.0,5516.0,-2.0,-23.0,-13.0
2884.0,2822.0,2843.0,3071.0,2997.0,0.826172,-0.142883,-0.544983,-0.00293,0.0,-1.0,-1.0,7182.0,-1839.0,2734.0,-201.0,68.0,-257.0,160.0,-26.0,-290.0,0.901336,-0.232899,0.365147,14306.0,-3694.0,5414.0,11.0,-10.0,-9.0
2855.0,2813.0,2831.0,3061.0,2983.0,0.826111,-0.142822,-0.545105,-0.00293,0.0,-1.0,-1.0,7177.0,-1845.0,2719.0,-207.0,61.0,-270.0,168.0,-37.0,-299.0,0.901471,-0.23278,0.36493,14374.0,-3736.0,5366.0,12.0,-13.0,-8.0
2877.0,2815.0,2838.0,3095.0,2974.0,0.825989,-0.142639,-0.545288,-0.002869,0.0,0.0,-1.0,7188.0,-1828.0,2711.0,-198.0,76.0,-275.0,179.0,-22.0,-296.0,0.901622,-0.232508,0.364581,14356.0,-3498.0,5398.0,21.0,5.0,-3.0
2895.0,2801.0,2847.0,3089.0,2995.0,0.825989,-0.142578,-0.545349,-0.002869,0.0,0.0,-1.0,7167.0,-1803.0,2710.0,-219.0,100.0,-276.0,175.0,-2.0,-321.0,0.901722,-0.232407,0.364532,14214.0,-3494.0,5414.0,7.0,4.0,-6.0
2879.0,2811.0,2843.0,3095.0,2992.0,0.825867,-0.142578,-0.545532,-0.00293,-1.0,-1.0,0.0,7131.0,-1786.0,2719.0,-257.0,117.0,-263.0,151.0,10.0,-354.0,0.901909,-0.232305,0.36413,14252.0,-3508.0,5528.0,-7.0,-20.0,5.0
2885.0,2791.0,2831.0,3063.0,2987.0,0.825745,-0.142578,-0.545715,-0.00293,-1.0,-2.0,0.0,7152.0,-1787.0,2731.0,-237.0,115.0,-248.0,145.0,15.0,-330.0,0.902078,-0.232269,0.363729,14462.0,-3618.0,5536.0,-7.0,-24.0,3.0
2883.0,2796.0,2843.0,3103.0,2983.0,0.825623,-0.142578,-0.545898,-0.00293,-1.0,-1.0,0.0,7192.0,-1796.0,2748.0,-199.0,106.0,-228.0,141.0,17.0,-287.0,0.902248,-0.232233,0.363328,14458.0,-3662.0,5452.0,-3.0,-9.0,1.0
2883.0,2807.0,2833.0,3095.0,2999.0,0.825562,-0.142639,-0.546021,-0.00293,-1.0,-1.0,0.0,7192.0,-1805.0,2750.0,-200.0,98.0,-224.0,136.0,10.0,-284.0,0.902383,-0.232315,0.363076,14388.0,-3656.0,5528.0,-6.0,-7.0,4.0
2879.0,2803.0,2851.0,3091.0,2994.0,0.825378,-0.1427,-0.546204,-0.00293,0.0,-1.0,0.0,7201.0,-1831.0,2750.0,-192.0,72.0,-220.0,132.0,-12.0,-269.0,0.902485,-0.232363,0.362556,14478.0,-3768.0,5506.0,3.0,-11.0,6.0
2864.0,2803.0,2849.0,3090.0,2992.0,0.825317,-0.1427,-0.546265,-0.002808,0.0,-1.0,0.0,7206.0,-1831.0,2742.0,-187.0,73.0,-226.0,139.0,-12.0,-267.0,0.902485,-0.232478,0.362388,14424.0,-3628.0,5402.0,21.0,-3.0,5.0
2870.0,2815.0,2815.0,3088.0,2983.0,0.825256,-0.142578,-0.546448,-0.002747,0.0,-1.0,0.0,7170.0,-1815.0,2729.0,-224.0,88.0,-237.0,137.0,-5.0,-308.0,0.902702,-0.232325,0.362122,14218.0,-3636.0,5452.0,7.0,-7.0,1.0
2879.0,2813.0,2851.0,3087.0,2983.0,0.825195,-0.142578,-0.546509,-0.002747,-1.0,-1.0,0.0,7164.0,-1822.0,2727.0,-231.0,81.0,-238.0,134.0,-13.0,-313.0,0.902736,-0.232308,0.361954,14338.0,-3694.0,5444.0,-3.0,-16.0,5.0
2879.0,2811.0,2830.0,3095.0,2990.0,0.825073,-0.142639,-0.546692,-0.002686,0.0,-1.0,0.0,7180.0,-1857.0,2738.0,-216.0,47.0,-223.0,121.0,-40.0,-286.0,0.902888,-0.232439,0.361535,14358.0,-3870.0,5492.0,7.0,-1.0,2.0
2870.0,2815.0,2835.0,3099.0,2998.0,0.825073,-0.142578,-0.546753,-0.002625,0.0,0.0,0.0,7164.0,-1861.0,2736.0,-233.0,42.0,-225.0,115.0,-48.0,-301.0,0.902971,-0.232405,0.361485,14200.0,-3666.0,5468.0,20.0,2.0,2.0
2883.0,2803.0,2823.0,3067.0,3005.0,0.825012,-0.142456,-0.546875,-0.002502,0.0,-1.0,0.0,7159.0,-1834.0,2744.0,-238.0,69.0,-215.0,109.0,-21.0,-308.0,0.90307,-0.232319,0.361285,14386.0,-3620.0,5534.0,12.0,-12.0,0.0
2879.0,2814.0,2833.0,3099.0,2987.0,0.824951,-0.142395,-0.546936,-0.002441,0.0,-1.0,0.0,7172.0,-1825.0,2762.0,-226.0,77.0,-196.0,98.0,-6.0,-292.0,0.903086,-0.232267,0.361135,14426.0,-3564.0,5640.0,10.0,-7.0,6.0
2871.0,2815.0,2837.0,3071.0,2998.0,0.82489,-0.142456,-0.546997,-0.002441,-1.0,0.0,0.0,7192.0,-1791.0,2779.0,-206.0,112.0,-177.0,94.0,34.0,-275.0,0.903121,-0.23235,0.36095,14406.0,-3496.0,5560.0,-13.0,4.0,11.0
2881.0,2807.0,2831.0,3095.0,2983.0,0.82489,-0.142517,-0.546997,-0.002441,-1.0,0.0,0.0,7191.0,-1792.0,2773.0,-207.0,112.0,-183.0,99.0,32.0,-279.0,0.903121,-0.232451,0.360933,14388.0,-3592.0,5478.0,-14.0,1.0,10.0
2879.0,2814.0,2847.0,3093.0,2989.0,0.824768,-0.142639,-0.54718,-0.002441,-1.0,-1.0,0.0,7179.0,-1793.0,2784.0,-220.0,112.0,-169.0,82.0,33.0,-285.0,0.90329,-0.232617,0.360496,14372.0,-3566.0,5658.0,-3.0,-18.0,8.0
2877.0,2807.0,2839.0,3091.0,2995.0,0.824707,-0.142639,-0.547302,-0.002441,-1.0,-2.0,0.0,7178.0,-1780.0,2784.0,-222.0,125.0,-167.0,81.0,46.0,-289.0,0.903425,-0.232599,0.360262,14370.0,-3464.0,5592.0,-2.0,-28.0,5.0
2879.0,2810.0,2840.0,3101.0,2991.0,0.824463,-0.1427,-0.547607,-0.002441,-1.0,-2.0,0.0,7202.0,-1758.0,2796.0,-200.0,147.0,-149.0,77.0,75.0,-268.0,0.903661,-0.232628,0.359508,14440.0,-3466.0,5630.0,-19.0,-29.0,10.0
2879.0,2800.0,2815.0,3071.0,2995.0,0.824341,-0.142822,-0.547791,-0.002441,-2.0,-2.0,0.0,7200.0,-1763.0,2795.0,-204.0,144.0,-146.0,73.0,72.0,-270.0,0.90383,-0.232794,0.359071,14370.0,-3588.0,5580.0,-28.0,-28.0,15.0
2875.0,2810.0,2829.0,3091.0,2993.0,0.824158,-0.143066,-0.548035,-0.00238,-1.0,-2.0,1.0,7200.0,-1802.0,2786.0,-205.0,108.0,-150.0,70.0,36.0,-264.0,0.904015,-0.23321,0.358432,14394.0,-3684.0,5550.0,-4.0,-24.0,24.0
2875.0,2814.0,2835.0,3093.0,2995.0,0.824036,-0.143127,-0.548096,-0.002258,0.0,-1.0,1.0,7206.0,-1802.0,2787.0,-199.0,110.0,-146.0,70.0,40.0,-257.0,0.903947,-0.233409,0.358146,14450.0,-3618.0,5578.0,2.0,-18.0,23.0
2875.0,2813.0,2832.0,3097.0,2987.0,0.823914,-0.14325,-0.548279,-0.002075,0.0,-1.0,0.0,7181.0,-1843.0,2744.0,-225.0,72.0,-186.0,89.0,-9.0,-286.0,0.904063,-0.233775,0.357708,14250.0,-3836.0,5370.0,2.0,-11.0,20.0
2879.0,2814.0,2829.0,3087.0,2992.0,0.823853,-0.143311,-0.548401,-0.001953,0.0,-1.0,0.0,7156.0,-1845.0,2717.0,-250.0,71.0,-211.0,102.0,-20.0,-318.0,0.904163,-0.233991,0.357455,14186.0,-3676.0,5326.0,3.0,-21.0,17.0
2875.0,2803.0,2831.0,3089.0,2981.0,0.823608,-0.143494,-0.548706,-0.001831,-1.0,-2.0,0.0,7169.0,-1880.0,2703.0,-239.0,39.0,-218.0,108.0,-51.0,-303.0,0.904363,-0.234356,0.356665,14428.0,-3920.0,5326.0,-12.0,-23.0,9.0
2879.0,2815.0,2839.0,3090.0,2995.0,0.823486,-0.143616,-0.548828,-0.001831,-1.0,-1.0,0.0,7173.0,-1895.0,2691.0,-236.0,26.0,-227.0,115.0,-65.0,-300.0,0.904431,-0.234521,0.356295,14352.0,-3864.0,5290.0,-10.0,-15.0,7.0
2874.0,2813.0,2839.0,3091.0,2999.0,0.823303,-0.143799,-0.549011,-0.00177,-1.0,-1.0,-1.0,7171.0,-1907.0,2651.0,-238.0,16.0,-263.0,145.0,-84.0,-312.0,0.904514,-0.234837,0.35574,14396.0,-3808.0,5176.0,-5.0,-8.0,-3.0
2877.0,2807.0,2831.0,3071.0,2991.0,0.823242,-0.143799,-0.549133,-0.001831,-1.0,-1.0,-1.0,7180.0,-1905.0,2644.0,-231.0,18.0,-268.0,153.0,-82.0,-308.0,0.904666,-0.234752,0.355506,14434.0,-3820.0,5252.0,-4.0,-1.0,-11.0
2871.0,2807.0,2839.0,3088.0,2993.0,0.823242,-0.143799,-0.549194,-0.001892,0.0,0.0,-1.0,7194.0,-1896.0,2658.0,-217.0,26.0,-253.0,146.0,-69.0,-292.0,0.904784,-0.234684,0.355439,14414.0,-3630.0,5362.0,7.0,19.0,-5.0
2874.0,2813.0,2842.0,2975.0,2991.0,0.823303,-0.143799,-0.549133,-0.001953,-1.0,1.0,-1.0,7185.0,-1861.0,2669.0,-226.0,61.0,-244.0,140.0,-34.0,-305.0,0.904768,-0.234635,0.355607,14280.0,-3500.0,5388.0,0.0,26.0,-6.0
2873.0,2815.0,2843.0,3089.0,2992.0,0.823303,-0.14386,-0.549011,-0.002136,-1.0,0.0,-1.0,7158.0,-1835.0,2678.0,-252.0,86.0,-236.0,127.0,-12.0,-332.0,0.90462,-0.234535,0.355724,14322.0,-3684.0,5378.0,-22.0,13.0,-2.0
2879.0,2809.0,2835.0,3037.0,2991.0,0.823303,-0.143921,-0.549011,-0.002197,-1.0,0.0,-1.0,7163.0,-1838.0,2689.0,-247.0,83.0,-224.0,117.0,-12.0,-322.0,0.904638,-0.234568,0.355706,14334.0,-3690.0,5446.0,-16.0,9.0,-2.0
2875.0,2811.0,2832.0,3071.0,2987.0,0.823242,-0.143921,-0.549072,-0.002319,-1.0,-1.0,-1.0,7172.0,-1832.0,2714.0,-239.0,88.0,-198.0,98.0,0.0,-307.0,0.904706,-0.234417,0.35554,14362.0,-3618.0,5538.0,-1.0,-1.0,-7.0
2879.0,2810.0,2832.0,3091.0,2992.0,0.823242,-0.143921,-0.549133,-0.00238,0.0,-1.0,-1.0,7179.0,-1823.0,2727.0,-233.0,96.0,-185.0,90.0,11.0,-299.0,0.904825,-0.234349,0.355473,14410.0,-3572.0,5516.0,3.0,-5.0,-6.0
2871.0,2814.0,2839.0,3088.0,2991.0,0.823242,-0.143799,-0.549194,-0.002441,0.0,0.0,-1.0,7225.0,-1810.0,2774.0,-188.0,107.0,-137.0,66.0,40.0,-243.0,0.904942,-0.234081,0.355441,14570.0,-3628.0,5672.0,5.0,6.0,-3.0
2877.0,2813.0,2833.0,3071.0,2987.0,0.823242,-0.143738,-0.549133,-0.002441,0.0,0.0,0.0,7228.0,-1810.0,2778.0,-184.0,106.0,-134.0,65.0,41.0,-238.0,0.904841,-0.233981,0.355526,14410.0,-3594.0,5544.0,9.0,14.0,3.0
2875.0,2814.0,2837.0,3091.0,2993.0,0.823303,-0.143616,-0.549133,-0.00238,0.0,0.0,0.0,7197.0,-1794.0,2766.0,-215.0,121.0,-147.0,67.0,47.0,-275.0,0.90489,-0.233864,0.355661,14300.0,-3604.0,5492.0,13.0,5.0,10.0
2879.0,2814.0,2839.0,3088.0,2990.0,0.823303,-0.143616,-0.549133,-0.002258,0.0,-1.0,0.0,7194.0,-1802.0,2765.0,-218.0,114.0,-148.0,65.0,40.0,-276.0,0.904855,-0.233998,0.35566,14382.0,-3664.0,5538.0,21.0,-4.0,14.0
2879.0,2815.0,2843.0,3094.0,2991.0,0.823242,-0.143372,-0.549255,-0.002014,1.0,-1.0,0.0,7181.0,-1779.0,2734.0,-232.0,136.0,-178.0,90.0,52.0,-305.0,0.904918,-0.233846,0.355495,14390.0,-3418.0,5422.0,30.0,-16.0,11.0
2875.0,2811.0,2838.0,3089.0,2987.0,0.823181,-0.14325,-0.549377,-0.001953,0.0,-1.0,0.0,7187.0,-1770.0,2729.0,-227.0,144.0,-181.0,96.0,60.0,-303.0,0.905034,-0.233695,0.355295,14424.0,-3554.0,5446.0,16.0,-18.0,4.0
2878.0,2806.0,2831.0,3071.0,2989.0,0.823059,-0.14325,-0.549622,-0.001831,0.0,-1.0,0.0,7193.0,-1805.0,2706.0,-222.0,110.0,-200.0,110.0,23.0,-297.0,0.905267,-0.233793,0.354825,14374.0,-3650.0,5364.0,5.0,-11.0,6.0
2874.0,2807.0,2850.0,3094.0,2992.0,0.822998,-0.14325,-0.549683,-0.001831,0.0,-1.0,0.0,7201.0,-1820.0,2711.0,-215.0,95.0,-194.0,105.0,11.0,-285.0,0.9053,-0.233775,0.354658,14454.0,-3750.0,5440.0,2.0,-3.0,8.0
2871.0,2809.0,2839.0,3089.0,2993.0,0.822998,-0.143311,-0.549622,-0.001648,0.0,0.0,0.0,7204.0,-1855.0,2711.0,-210.0,62.0,-194.0,102.0,-19.0,-273.0,0.905147,-0.234077,0.354707,14352.0,-3766.0,5420.0,9.0,20.0,18.0
2870.0,2814.0,2843.0,3095.0,2989.0,0.823059,-0.143311,-0.549561,-0.001526,0.0,1.0,0.0,7199.0,-1852.0,2713.0,-215.0,66.0,-194.0,100.0,-16.0,-278.0,0.905079,-0.234229,0.354874,14364.0,-3662.0,5452.0,12.0,24.0,17.0
2871.0,2822.0,2842.0,3095.0,2997.0,0.823181,-0.143311,-0.549438,-0.001465,0.0,0.0,0.0,7163.0,-1845.0,2704.0,-250.0,74.0,-205.0,98.0,-16.0,-316.0,0.904995,-0.234331,0.355209,14274.0,-3756.0,5366.0,4.0,14.0,5.0
2871.0,2815.0,2847.0,3089.0,2993.0,0.823181,-0.143311,-0.549377,-0.001465,0.0,0.0,0.0,7172.0,-1853.0,2720.0,-240.0,66.0,-190.0,87.0,-19.0,-300.0,0.904894,-0.234332,0.355276,14420.0,-3722.0,5558.0,4.0,13.0,5.0
2879.0,2811.0,2839.0,3088.0,2990.0,0.823242,-0.143372,-0.549316,-0.001465,-1.0,0.0,0.0,7175.0,-1838.0,2756.0,-237.0,82.0,-155.0,59.0,5.0,-288.0,0.904861,-0.23445,0.355426,14370.0,-3654.0,5582.0,-10.0,8.0,3.0
2871.0,2811.0,2835.0,3089.0,2987.0,0.823181,-0.143433,-0.549316,-0.001465,-1.0,-1.0,0.0,7181.0,-1854.0,2775.0,-231.0,67.0,-135.0,41.0,-3.0,-272.0,0.904794,-0.234533,0.355308,14392.0,-3836.0,5686.0,-16.0,-1.0,8.0
2874.0,2815.0,2835.0,3089.0,2989.0,0.823181,-0.143555,-0.549316,-0.001465,0.0,-1.0,0.0,7193.0,-1886.0,2795.0,-219.0,36.0,-115.0,22.0,-26.0,-247.0,0.904794,-0.234734,0.355273,14424.0,-3870.0,5640.0,2.0,-5.0,1.0
2879.0,2813.0,2833.0,3093.0,2997.0,0.82312,-0.143494,-0.549377,-0.001404,0.0,-1.0,-1.0,7196.0,-1887.0,2794.0,-216.0,35.0,-115.0,23.0,-27.0,-244.0,0.90481,-0.234683,0.355123,14386.0,-3716.0,5568.0,18.0,-8.0,-5.0
2871.0,2807.0,2846.0,3090.0,2997.0,0.82312,-0.14325,-0.5495,-0.001404,0.0,-1.0,-1.0,7194.0,-1842.0,2795.0,-219.0,77.0,-113.0,27.0,13.0,-256.0,0.90501,-0.23428,0.355059,14388.0,-3552.0,5544.0,15.0,-12.0,-12.0
2871.0,2807.0,2839.0,3091.0,2991.0,0.823059,-0.143127,-0.549622,-0.001404,0.0,-1.0,-1.0,7198.0,-1820.0,2783.0,-216.0,97.0,-124.0,42.0,30.0,-262.0,0.905144,-0.234062,0.354859,14446.0,-3498.0,5474.0,12.0,-13.0,-7.0
2874.0,2815.0,2843.0,3091.0,2991.0,0.822937,-0.143066,-0.549805,-0.001404,-1.0,-1.0,0.0,7188.0,-1780.0,2778.0,-228.0,136.0,-125.0,44.0,65.0,-282.0,0.905311,-0.233926,0.354474,14288.0,-3466.0,5552.0,-3.0,-21.0,6.0
2883.0,2815.0,2838.0,3095.0,3024.0,0.822876,-0.143066,-0.549927,-0.001404,-1.0,-2.0,0.0,7182.0,-1774.0,2761.0,-235.0,142.0,-140.0,56.0,66.0,-295.0,0.905445,-0.233908,0.354239,14344.0,-3540.0,5392.0,-6.0,-33.0,10.0
2883.0,2815.0,2837.0,3088.0,2987.0,0.822571,-0.143127,-0.550354,-0.001282,-1.0,-2.0,0.0,7184.0,-1798.0,2736.0,-236.0,119.0,-157.0,68.0,40.0,-297.0,0.905777,-0.234054,0.353249,14406.0,-3692.0,5440.0,0.0,-43.0,6.0
2879.0,2807.0,2833.0,3089.0,2993.0,0.822449,-0.143127,-0.550537,-0.001282,-1.0,-2.0,0.0,7197.0,-1799.0,2725.0,-224.0,118.0,-165.0,79.0,39.0,-288.0,0.905944,-0.234019,0.352847,14474.0,-3586.0,5376.0,-1.0,-40.0,4.0
2878.0,2811.0,2832.0,3089.0,2983.0,0.822205,-0.143188,-0.550842,-0.001282,-1.0,-1.0,0.0,7218.0,-1816.0,2718.0,-205.0,101.0,-166.0,85.0,25.0,-267.0,0.906177,-0.234048,0.352092,14446.0,-3712.0,5364.0,-11.0,-12.0,1.0
2879.0,2814.0,2831.0,3095.0,2993.0,0.822144,-0.14325,-0.550903,-0.001282,-1.0,-1.0,0.0,7203.0,-1839.0,2696.0,-220.0,79.0,-186.0,94.0,-2.0,-283.0,0.90621,-0.234131,0.351907,14300.0,-3836.0,5278.0,-8.0,-1.0,4.0
2871.0,2815.0,2847.0,3095.0,2997.0,0.822083,-0.143311,-0.551025,-0.001221,0.0,-1.0,0.0,7173.0,-1834.0,2666.0,-251.0,85.0,-214.0,108.0,-8.0,-322.0,0.906327,-0.234281,0.351654,14320.0,-3542.0,5272.0,5.0,-3.0,2.0
2869.0,2811.0,2839.0,3091.0,2990.0,0.822083,-0.14325,-0.551086,-0.001221,0.0,-1.0,-1.0,7173.0,-1827.0,2660.0,-252.0,91.0,-220.0,114.0,-4.0,-327.0,0.906427,-0.23418,0.351604,14352.0,-3598.0,5272.0,1.0,0.0,-2.0
2871.0,2814.0,2845.0,3093.0,2993.0,0.82196,-0.143311,-0.551147,-0.001282,-1.0,0.0,0.0,7188.0,-1812.0,2663.0,-237.0,106.0,-215.0,118.0,13.0,-315.0,0.90641,-0.234178,0.351319,14436.0,-3506.0,5406.0,-5.0,3.0,6.0
2880.0,2813.0,2842.0,3093.0,2999.0,0.82196,-0.143311,-0.551147,-0.001282,-1.0,0.0,0.0,7191.0,-1809.0,2670.0,-234.0,109.0,-208.0,114.0,18.0,-310.0,0.90641,-0.234178,0.351319,14390.0,-3616.0,5338.0,-14.0,8.0,5.0
2879.0,2811.0,2841.0,3090.0,2991.0,0.821899,-0.143555,-0.551208,-0.001404,-1.0,0.0,0.0,7192.0,-1825.0,2687.0,-233.0,95.0,-189.0,95.0,9.0,-299.0,0.906479,-0.234427,0.351082,14398.0,-3712.0,5412.0,-21.0,1.0,7.0
2878.0,2807.0,2835.0,3097.0,2989.0,0.821899,-0.143677,-0.551208,-0.001404,-1.0,0.0,0.0,7194.0,-1842.0,2696.0,-231.0,80.0,-179.0,84.0,-1.0,-291.0,0.906479,-0.234628,0.351047,14378.0,-3780.0,5444.0,-17.0,2.0,4.0
2879.0,2815.0,2833.0,3088.0,2987.0,0.821899,-0.143738,-0.551208,-0.001465,-1.0,0.0,-1.0,7194.0,-1838.0,2719.0,-232.0,84.0,-156.0,63.0,7.0,-284.0,0.906497,-0.234661,0.351029,14376.0,-3614.0,5506.0,-11.0,4.0,-1.0
2879.0,2815.0,2847.0,3071.0,2987.0,0.821838,-0.143799,-0.551208,-0.001526,-1.0,0.0,-1.0,7183.0,-1820.0,2726.0,-242.0,102.0,-148.0,55.0,24.0,-295.0,0.906447,-0.234677,0.350912,14290.0,-3552.0,5540.0,-16.0,1.0,-2.0
2876.0,2815.0,2853.0,3091.0,2987.0,0.821777,-0.143982,-0.55127,-0.001709,-2.0,-1.0,0.0,7184.0,-1823.0,2748.0,-242.0,100.0,-124.0,33.0,28.0,-286.0,0.906534,-0.234758,0.350692,14484.0,-3700.0,5532.0,-25.0,-9.0,2.0
2877.0,2811.0,2843.0,3094.0,2991.0,0.821716,-0.144043,-0.551331,-0.00177,-1.0,-1.0,0.0,7198.0,-1826.0,2758.0,-228.0,97.0,-113.0,28.0,30.0,-269.0,0.906585,-0.234773,0.350507,14502.0,-3692.0,5632.0,-19.0,-9.0,5.0
2871.0,2814.0,2839.0,3091.0,2991.0,0.821655,-0.144165,-0.551392,-0.00177,-1.0,-1.0,0.0,7203.0,-1823.0,2774.0,-224.0,101.0,-95.0,14.0,39.0,-260.0,0.906618,-0.234956,0.350304,14380.0,-3610.0,5584.0,-10.0,-11.0,9.0
2885.0,2813.0,2837.0,3095.0,2992.0,0.821594,-0.144226,-0.551453,-0.00177,-1.0,-1.0,0.0,7194.0,-1819.0,2773.0,-233.0,106.0,-95.0,11.0,42.0,-269.0,0.906651,-0.235038,0.350119,14340.0,-3628.0,5532.0,-15.0,-20.0,11.0
2877.0,2815.0,2832.0,3071.0,2983.0,0.821411,-0.144409,-0.551697,-0.001648,-1.0,-2.0,0.0,7199.0,-1855.0,2761.0,-229.0,73.0,-102.0,14.0,9.0,-260.0,0.906816,-0.23542,0.349496,14414.0,-3820.0,5464.0,-5.0,-26.0,12.0
2874.0,2813.0,2833.0,3071.0,2993.0,0.82135,-0.14447,-0.551819,-0.001648,-1.0,-2.0,0.0,7200.0,-1853.0,2749.0,-229.0,76.0,-111.0,23.0,10.0,-264.0,0.906949,-0.235503,0.349243,14400.0,-3702.0,5416.0,-4.0,-23.0,5.0
2864.0,2811.0,2833.0,3095.0,2989.0,0.821167,-0.144592,-0.552002,-0.001709,-1.0,-1.0,-1.0,7197.0,-1879.0,2709.0,-233.0,50.0,-147.0,50.0,-23.0,-274.0,0.907066,-0.235582,0.348705,14334.0,-3890.0,5260.0,-19.0,-11.0,-6.0
2879.0,2819.0,2837.0,3071.0,2987.0,0.821106,-0.144714,-0.552124,-0.00177,-1.0,-1.0,-1.0,7192.0,-1898.0,2682.0,-239.0,32.0,-172.0,67.0,-48.0,-284.0,0.907217,-0.235697,0.348435,14322.0,-3874.0,5190.0,-17.0,-9.0,-6.0
2879.0,2815.0,2837.0,3089.0,2997.0,0.820923,-0.144836,-0.552307,-0.001892,-1.0,-1.0,-1.0,7166.0,-1886.0,2659.0,-267.0,44.0,-190.0,75.0,-45.0,-318.0,0.907351,-0.235709,0.347897,14342.0,-3768.0,5292.0,-19.0,-19.0,-9.0
2867.0,2815.0,2839.0,3091.0,2987.0,0.820862,-0.144897,-0.552429,-0.001953,-1.0,-1.0,-1.0,7179.0,-1878.0,2659.0,-255.0,53.0,-188.0,79.0,-34.0,-309.0,0.907502,-0.235724,0.347645,14488.0,-3726.0,5360.0,-16.0,-15.0,-6.0
2879.0,2813.0,2836.0,3091.0,2999.0,0.820801,-0.144958,-0.55249,-0.002136,-1.0,0.0,-1.0,7219.0,-1828.0,2665.0,-215.0,102.0,-181.0,97.0,20.0,-282.0,0.907588,-0.235604,0.34746,14496.0,-3506.0,5346.0,-22.0,15.0,-4.0
2891.0,2809.0,2833.0,3071.0,2991.0,0.820801,-0.145081,-0.552429,-0.002258,-2.0,0.0,-1.0,7218.0,-1815.0,2671.0,-216.0,115.0,-175.0,93.0,34.0,-283.0,0.907524,-0.235669,0.347493,14410.0,-3568.0,5392.0,-28.0,21.0,-1.0
2867.0,2814.0,2839.0,3070.0,2991.0,0.820862,-0.145264,-0.552368,-0.002441,-2.0,0.0,0.0,7196.0,-1798.0,2675.0,-238.0,133.0,-172.0,84.0,48.0,-307.0,0.907545,-0.235786,0.347608,14340.0,-3608.0,5426.0,-26.0,14.0,5.0
2878.0,2819.0,2855.0,3087.0,2983.0,0.820862,-0.145325,-0.552307,-0.002563,-2.0,0.0,0.0,7190.0,-1798.0,2674.0,-244.0,133.0,-174.0,84.0,47.0,-313.0,0.907481,-0.235751,0.347658,14366.0,-3644.0,5408.0,-25.0,4.0,5.0
2873.0,2807.0,2843.0,3071.0,2991.0,0.820801,-0.145508,-0.552368,-0.002563,-1.0,0.0,0.0,7190.0,-1813.0,2666.0,-244.0,120.0,-180.0,87.0,33.0,-312.0,0.907514,-0.236034,0.347437,14344.0,-3624.0,5224.0,-1.0,2.0,9.0
2875.0,2806.0,2835.0,3091.0,2993.0,0.820801,-0.145447,-0.552429,-0.002563,0.0,-1.0,0.0,7191.0,-1809.0,2674.0,-244.0,123.0,-171.0,80.0,38.0,-309.0,0.907614,-0.235933,0.347388,14348.0,-3604.0,5368.0,5.0,0.0,4.0
2870.0,2815.0,2835.0,3099.0,3003.0,0.82074,-0.145447,-0.552429,-0.002502,-1.0,0.0,0.0,7213.0,-1815.0,2683.0,-221.0,118.0,-161.0,79.0,39.0,-284.0,0.907529,-0.235983,0.347287,14534.0,-3638.0,5358.0,-2.0,5.0,6.0
2879.0,2811.0,2835.0,3071.0,2990.0,0.82074,-0.145447,-0.552429,-0.002502,0.0,0.0,0.0,7216.0,-1827.0,2688.0,-218.0,106.0,-156.0,73.0,29.0,-277.0,0.907529,-0.235983,0.347287,14416.0,-3724.0,5392.0,4.0,16.0,6.0
2879.0,2811.0,2835.0,3102.0,2983.0,0.820801,-0.145447,-0.552307,-0.002502,-1.0,0.0,0.0,7195.0,-1819.0,2689.0,-238.0,114.0,-157.0,68.0,33.0,-297.0,0.907396,-0.236001,0.347522,14362.0,-3642.0,5396.0,0.0,9.0,9.0
2883.0,2809.0,2831.0,3091.0,2983.0,0.820862,-0.145447,-0.552307,-0.002441,0.0,0.0,0.0,7196.0,-1825.0,2692.0,-237.0,109.0,-155.0,65.0,29.0,-294.0,0.907446,-0.236087,0.347622,14440.0,-3696.0,5426.0,4.0,4.0,8.0
2866.0,2815.0,2823.0,3071.0,2979.0,0.820862,-0.145386,-0.552307,-0.00238,0.0,0.0,0.0,7195.0,-1810.0,2700.0,-238.0,123.0,-147.0,60.0,45.0,-296.0,0.907428,-0.236054,0.34764,14364.0,-3572.0,5436.0,2.0,1.0,3.0
2867.0,2815.0,2834.0,3095.0,2973.0,0.820801,-0.145386,-0.552368,-0.00238,-1.0,-1.0,0.0,7192.0,-1811.0,2711.0,-241.0,122.0,-135.0,48.0,46.0,-294.0,0.907461,-0.236036,0.347472,14378.0,-3660.0,5490.0,-7.0,-6.0,5.0
2885.0,2815.0,2832.0,3101.0,3005.0,0.82074,-0.145447,-0.552429,-0.00238,-1.0,-1.0,0.0,7203.0,-1813.0,2734.0,-231.0,121.0,-110.0,29.0,53.0,-276.0,0.907494,-0.236118,0.347287,14456.0,-3620.0,5534.0,-4.0,-12.0,9.0
2875.0,2815.0,2847.0,3093.0,2999.0,0.82074,-0.145447,-0.55249,-0.002319,0.0,-1.0,0.0,7211.0,-1819.0,2739.0,-223.0,115.0,-105.0,27.0,49.0,-266.0,0.907576,-0.236185,0.347219,14458.0,-3646.0,5510.0,6.0,-8.0,9.0
2879.0,2800.0,2823.0,3059.0,2987.0,0.82074,-0.145325,-0.552551,-0.002197,0.0,-1.0,0.0,7205.0,-1822.0,2741.0,-230.0,112.0,-103.0,22.0,46.0,-270.0,0.90764,-0.236119,0.347186,14406.0,-3684.0,5486.0,20.0,-6.0,8.0
2875.0,2805.0,2859.0,3095.0,2991.0,0.82074,-0.145264,-0.552551,-0.002136,0.0,-1.0,0.0,7206.0,-1821.0,2738.0,-229.0,113.0,-106.0,25.0,46.0,-271.0,0.907622,-0.236087,0.347204,14396.0,-3626.0,5464.0,22.0,-2.0,10.0
2879.0,2819.0,2863.0,3099.0,2995.0,0.820679,-0.145142,-0.552612,-0.001892,0.0,-1.0,0.0,7183.0,-1819.0,2711.0,-251.0,115.0,-132.0,40.0,38.0,-300.0,0.907584,-0.236138,0.347071,14260.0,-3612.0,5298.0,16.0,-11.0,13.0
2891.0,2815.0,2851.0,3071.0,2981.0,0.820618,-0.145142,-0.552734,-0.001831,0.0,-1.0,0.0,7179.0,-1822.0,2699.0,-256.0,112.0,-142.0,47.0,32.0,-308.0,0.907699,-0.236187,0.346835,14372.0,-3712.0,5360.0,7.0,-21.0,10.0
2875.0,2814.0,2850.0,3093.0,2991.0,0.820496,-0.145081,-0.552917,-0.001648,0.0,-1.0,0.0,7214.0,-1869.0,2684.0,-222.0,66.0,-154.0,64.0,-8.0,-270.0,0.907811,-0.236254,0.34645,14534.0,-3826.0,5370.0,17.0,-10.0,7.0
2867.0,2805.0,2832.0,3089.0,2997.0,0.820496,-0.145081,-0.552979,-0.001587,0.0,0.0,0.0,7215.0,-1869.0,2669.0,-222.0,66.0,-168.0,76.0,-12.0,-275.0,0.907893,-0.236321,0.346382,14416.0,-3730.0,5218.0,16.0,1.0,6.0
2871.0,2803.0,2815.0,3095.0,2975.0,0.820496,-0.145081,-0.552979,-0.001465,0.0,0.0,0.0,7197.0,-1866.0,2658.0,-240.0,71.0,-179.0,80.0,-12.0,-296.0,0.907858,-0.236456,0.346382,14346.0,-3730.0,5278.0,2.0,15.0,12.0
2879.0,2815.0,2847.0,3107.0,2991.0,0.820496,-0.145081,-0.552917,-0.001404,0.0,1.0,0.0,7186.0,-1868.0,2647.0,-250.0,69.0,-191.0,87.0,-19.0,-309.0,0.90774,-0.236524,0.346449,14306.0,-3738.0,5238.0,3.0,24.0,12.0
2885.0,2818.0,2835.0,3071.0,2995.0,0.820618,-0.145142,-0.552734,-0.001404,0.0,1.0,0.0,7158.0,-1863.0,2638.0,-276.0,75.0,-203.0,88.0,-20.0,-338.0,0.907575,-0.23666,0.346834,14184.0,-3738.0,5228.0,7.0,27.0,6.0
2893.0,2815.0,2845.0,3111.0,3007.0,0.820679,-0.145081,-0.552673,-0.001343,0.0,0.0,0.0,7151.0,-1856.0,2640.0,-283.0,82.0,-202.0,86.0,-14.0,-346.0,0.907524,-0.236645,0.347019,14286.0,-3638.0,5318.0,11.0,16.0,8.0
2875.0,2815.0,2861.0,3095.0,2975.0,0.82074,-0.14502,-0.552612,-0.001282,0.0,0.0,0.0,7180.0,-1835.0,2660.0,-254.0,103.0,-184.0,84.0,14.0,-318.0,0.907474,-0.23663,0.347204,14452.0,-3700.0,5402.0,9.0,18.0,4.0
2875.0,2817.0,2831.0,3095.0,2961.0,0.820801,-0.144958,-0.55249,-0.001221,0.0,1.0,0.0,7188.0,-1833.0,2668.0,-244.0,105.0,-178.0,83.0,19.0,-308.0,0.907323,-0.236615,0.347457,14408.0,-3600.0,5334.0,17.0,27.0,10.0
18.0,,,,,,,,,,,,,,,,,,,,,,,,,,,,,
2869.0,2799.0,2849.0,3089.0,2983.0,0.816345,-0.038086,-0.564758,0.114685,-5.0,1.0,0.0,7183.0,-1530.0,2848.0,-299.0,40.0,-94.0,-18.0,-23.0,-314.0,0.91334,-0.191721,0.35917,14438.0,-3280.0,5746.0,-101.0,23.0,7.0
2871.0,2819.0,2842.0,3071.0,2990.0,0.816406,-0.038818,-0.564697,0.114197,-3.0,0.0,-1.0,7191.0,-1607.0,2839.0,-289.0,-31.0,-103.0,3.0,-89.0,-294.0,0.913179,-0.192356,0.35917,14392.0,-3418.0,5660.0,-57.0,15.0,-15.0
2875.0,2805.0,2835.0,3095.0,2999.0,0.816467,-0.039001,-0.564636,0.114075,-1.0,0.0,-1.0,7196.0,-1627.0,2841.0,-284.0,-49.0,-102.0,6.0,-106.0,-286.0,0.913116,-0.192508,0.359297,14412.0,-3358.0,5712.0,-19.0,12.0,-22.0
2876.0,2799.0,2838.0,3095.0,2992.0,0.816589,-0.038879,-0.564514,0.113953,0.0,0.0,-1.0,7207.0,-1573.0,2858.0,-273.0,1.0,-87.0,-11.0,-56.0,-280.0,0.913092,-0.192153,0.359616,14452.0,-2818.0,5792.0,13.0,18.0,-19.0
2869.0,2800.0,2834.0,3071.0,2997.0,0.816711,-0.038757,-0.564392,0.113831,-1.0,0.0,-1.0,7193.0,-1513.0,2876.0,-286.0,58.0,-72.0,-37.0,-4.0,-298.0,0.913067,-0.191797,0.359934,14266.0,-2670.0,5860.0,-8.0,19.0,-16.0
2875.0,2805.0,2833.0,3119.0,2983.0,0.816772,-0.039001,-0.56427,0.113464,-3.0,0.0,-1.0,7181.0,-1463.0,2902.0,-297.0,107.0,-47.0,-71.0,38.0,-308.0,0.91291,-0.19176,0.36007,14406.0,-2850.0,5928.0,-55.0,4.0,-5.0
2871.0,2805.0,2843.0,3091.0,2983.0,0.816833,-0.039246,-0.56427,0.113281,-3.0,0.0,0.0,7193.0,-1462.0,2912.0,-285.0,110.0,-38.0,-76.0,43.0,-294.0,0.912938,-0.191957,0.360109,14444.0,-2934.0,5852.0,-60.0,2.0,1.0
2875.0,2815.0,2833.0,3088.0,2992.0,0.816833,-0.039734,-0.56427,0.112915,-3.0,0.0,0.0,7232.0,-1461.0,2930.0,-246.0,114.0,-19.0,-81.0,55.0,-253.0,0.912856,-0.192341,0.359987,14546.0,-2832.0,5916.0,-60.0,6.0,5.0
2871.0,2813.0,2835.0,3089.0,2991.0,0.816895,-0.040039,-0.56427,0.112671,-4.0,-1.0,0.0,7238.0,-1446.0,2940.0,-240.0,131.0,-9.0,-90.0,72.0,-247.0,0.912876,-0.192569,0.360008,14550.0,-2840.0,5970.0,-70.0,-1.0,1.0
2877.0,2815.0,2842.0,3090.0,2993.0,0.816895,-0.040588,-0.56427,0.112183,-4.0,0.0,-1.0,7265.0,-1451.0,2956.0,-212.0,129.0,8.0,-96.0,76.0,-215.0,0.912792,-0.192915,0.359854,14614.0,-2918.0,5904.0,-74.0,4.0,-7.0
2871.0,2815.0,2845.0,3093.0,2993.0,0.816956,-0.040833,-0.564209,0.111877,-4.0,0.0,-1.0,7274.0,-1457.0,2949.0,-203.0,123.0,0.0,-85.0,73.0,-209.0,0.912731,-0.192961,0.359934,14590.0,-2940.0,5878.0,-70.0,15.0,-16.0
2877.0,2815.0,2839.0,3095.0,2991.0,0.817078,-0.04126,-0.564148,0.111328,-3.0,0.0,-1.0,7241.0,-1478.0,2929.0,-235.0,103.0,-20.0,-74.0,47.0,-241.0,0.912719,-0.193036,0.360045,14292.0,-2998.0,5748.0,-59.0,14.0,-13.0
2871.0,2807.0,2831.0,3071.0,2995.0,0.817139,-0.041443,-0.564087,0.111084,-3.0,0.0,-1.0,7217.0,-1477.0,2916.0,-259.0,104.0,-34.0,-70.0,43.0,-268.0,0.912667,-0.193051,0.360144,14306.0,-2938.0,5738.0,-54.0,2.0,-7.0
2879.0,2806.0,2839.0,3071.0,2989.0,0.817078,-0.04187,-0.564209,0.110657,-3.0,-1.0,-1.0,7207.0,-1489.0,2868.0,-270.0,94.0,-79.0,-30.0,34.0,-293.0,0.912739,-0.193289,0.359776,14406.0,-3006.0,5582.0,-56.0,-3.0,-11.0
2874.0,2815.0,2835.0,3091.0,2994.0,0.817078,-0.042114,-0.56427,0.110413,-3.0,-1.0,-1.0,7193.0,-1483.0,2840.0,-284.0,101.0,-106.0,-10.0,39.0,-316.0,0.912805,-0.193426,0.359633,14258.0,-2876.0,5504.0,-66.0,-3.0,-13.0
2875.0,2815.0,2838.0,3088.0,2991.0,0.816895,-0.042847,-0.564636,0.109497,-7.0,-2.0,-2.0,7177.0,-1467.0,2813.0,-303.0,119.0,-125.0,-1.0,53.0,-344.0,0.913113,-0.193654,0.358656,14432.0,-3100.0,5596.0,-144.0,-30.0,-34.0
2875.0,2806.0,2837.0,3089.0,2991.0,0.816772,-0.043396,-0.56488,0.108948,-7.0,-2.0,-2.0,7202.0,-1555.0,2798.0,-279.0,34.0,-134.0,26.0,-23.0,-309.0,0.913302,-0.193974,0.358014,14564.0,-3740.0,5516.0,-143.0,-30.0,-30.0
2878.0,2807.0,2835.0,3088.0,2991.0,0.81665,-0.044128,-0.565125,0.108582,-1.0,0.0,-1.0,7237.0,-1647.0,2761.0,-245.0,-51.0,-166.0,78.0,-96.0,-273.0,0.913435,-0.194799,0.357395,14522.0,-3228.0,5406.0,-19.0,7.0,-12.0
2869.0,2811.0,2837.0,3095.0,2992.0,0.81665,-0.044067,-0.565125,0.108459,0.0,0.0,-2.0,7229.0,-1618.0,2743.0,-254.0,-24.0,-184.0,88.0,-71.0,-293.0,0.913459,-0.194562,0.357374,14390.0,-3084.0,5410.0,6.0,17.0,-24.0
2873.0,2813.0,2841.0,3089.0,2989.0,0.816772,-0.043762,-0.565002,0.108521,1.0,1.0,-1.0,7218.0,-1598.0,2725.0,-265.0,-7.0,-205.0,102.0,-56.0,-314.0,0.913459,-0.194116,0.357751,14396.0,-3154.0,5408.0,45.0,23.0,-6.0
2870.0,2807.0,2838.0,3089.0,2991.0,0.816772,-0.043579,-0.56488,0.108704,3.0,0.0,0.0,7208.0,-1573.0,2719.0,-273.0,16.0,-213.0,104.0,-35.0,-328.0,0.913283,-0.193998,0.357945,14340.0,-2938.0,5394.0,69.0,19.0,7.0
2869.0,2803.0,2842.0,3071.0,2994.0,0.816833,-0.042786,-0.564758,0.109436,5.0,0.0,0.0,7193.0,-1593.0,2714.0,-288.0,-7.0,-222.0,110.0,-60.0,-341.0,0.913262,-0.193507,0.358411,14314.0,-3494.0,5348.0,134.0,7.0,15.0
2879.0,2807.0,2835.0,3091.0,2975.0,0.816833,-0.042114,-0.564697,0.110107,8.0,-1.0,1.0,7169.0,-1582.0,2713.0,-312.0,0.0,-225.0,104.0,-58.0,-365.0,0.913253,-0.193155,0.358684,14168.0,-2926.0,5434.0,194.0,-5.0,23.0
2870.0,2815.0,2839.0,3099.0,2992.0,0.816772,-0.040222,-0.564697,0.111206,8.0,-2.0,-2.0,7160.0,-1507.0,2754.0,-323.0,60.0,-186.0,56.0,-3.0,-373.0,0.913512,-0.1913,0.358983,14390.0,-3088.0,5626.0,193.0,-34.0,-24.0
2865.0,2811.0,2841.0,3089.0,2991.0,0.816711,-0.039246,-0.564758,0.111694,9.0,-2.0,-2.0,7180.0,-1560.0,2755.0,-305.0,-1.0,-185.0,69.0,-58.0,-344.0,0.913722,-0.190265,0.359001,14490.0,-3478.0,5516.0,214.0,-36.0,-35.0
2871.0,2795.0,2839.0,3056.0,2991.0,0.816589,-0.036621,-0.564758,0.11322,14.0,-2.0,-3.0,7197.0,-1605.0,2761.0,-290.0,-67.0,-182.0,81.0,-118.0,-317.0,0.914059,-0.187693,0.359344,14360.0,-3060.0,5522.0,331.0,-34.0,-54.0
2874.0,2834.0,2841.0,3089.0,2992.0,0.816589,-0.034851,-0.564819,0.113953,15.0,-3.0,-4.0,7188.0,-1592.0,2764.0,-303.0,-71.0,-181.0,77.0,-124.0,-328.0,0.914508,-0.185643,0.359568,14362.0,-3154.0,5552.0,365.0,-49.0,-82.0
2871.0,2811.0,2842.0,3095.0,2993.0,0.816406,-0.030579,-0.56488,0.115601,18.0,-4.0,-6.0,7203.0,-1536.0,2809.0,-294.0,-57.0,-138.0,38.0,-109.0,-308.0,0.915274,-0.18053,0.359858,14550.0,-2662.0,5830.0,434.0,-71.0,-115.0
2871.0,2809.0,2837.0,3091.0,2989.0,0.816406,-0.02832,-0.564941,0.116333,17.0,-3.0,-6.0,7237.0,-1436.0,2854.0,-265.0,19.0,-95.0,-3.0,-32.0,-280.0,0.915854,-0.177684,0.360092,14716.0,-2232.0,5978.0,411.0,-68.0,-120.0
2870.0,2811.0,2835.0,3071.0,2991.0,0.816467,-0.024475,-0.56488,0.117004,10.0,-2.0,-5.0,7292.0,-1201.0,2951.0,-217.0,209.0,-3.0,-103.0,155.0,-235.0,0.916685,-0.172153,0.36062,14670.0,-1814.0,6204.0,237.0,-36.0,-104.0
2875.0,2813.0,2839.0,3089.0,2993.0,0.816528,-0.023376,-0.564819,0.117004,5.0,-1.0,-4.0,7315.0,-1123.0,2990.0,-196.0,272.0,33.0,-140.0,218.0,-214.0,0.916912,-0.170348,0.360841,14752.0,-1842.0,6186.0,131.0,-20.0,-71.0
2873.0,2815.0,2839.0,3091.0,2993.0,0.816711,-0.022766,-0.564636,0.116638,-3.0,0.0,-1.0,7311.0,-1050.0,3021.0,-200.0,333.0,61.0,-178.0,274.0,-217.0,0.916979,-0.168903,0.36129,14480.0,-2092.0,6012.0,-56.0,14.0,-9.0
2871.0,2812.0,2839.0,3091.0,2993.0,0.816833,-0.023071,-0.564575,0.116333,-4.0,0.0,0.0,7274.0,-1110.0,3000.0,-237.0,274.0,38.0,-159.0,211.0,-249.0,0.91696,-0.169048,0.361473,14310.0,-2690.0,5824.0,-91.0,14.0,7.0
2869.0,2806.0,2837.0,3091.0,2989.0,0.816833,-0.023682,-0.564575,0.11615,-2.0,0.0,0.0,7227.0,-1229.0,2944.0,-283.0,162.0,-16.0,-106.0,97.0,-292.0,0.916827,-0.169839,0.361402,14338.0,-2642.0,5786.0,-28.0,1.0,12.0
2874.0,2807.0,2838.0,3099.0,2991.0,0.816833,-0.023743,-0.564575,0.11615,-1.0,-1.0,0.0,7219.0,-1221.0,2931.0,-291.0,171.0,-29.0,-98.0,105.0,-306.0,0.916812,-0.169938,0.361399,14446.0,-2346.0,5810.0,-15.0,-9.0,9.0
2871.0,2810.0,2835.0,3091.0,2991.0,0.816772,-0.023987,-0.564636,0.115906,-3.0,-1.0,0.0,7268.0,-1221.0,2939.0,-242.0,172.0,-19.0,-91.0,116.0,-257.0,0.916798,-0.170073,0.361162,14738.0,-2516.0,5852.0,-53.0,-8.0,15.0
2871.0,2810.0,2838.0,3089.0,2992.0,0.816772,-0.024292,-0.564697,0.115784,-3.0,0.0,0.0,7284.0,-1234.0,2932.0,-226.0,162.0,-25.0,-78.0,110.0,-243.0,0.916833,-0.170448,0.36105,14630.0,-2542.0,5818.0,-64.0,4.0,21.0
2875.0,2810.0,2837.0,3090.0,2992.0,0.816772,-0.025085,-0.564697,0.115601,-4.0,0.0,1.0,7256.0,-1266.0,2909.0,-253.0,139.0,-48.0,-62.0,84.0,-273.0,0.916659,-0.171537,0.360968,14414.0,-2622.0,5768.0,-79.0,2.0,31.0
2877.0,2815.0,2839.0,3091.0,2993.0,0.816772,-0.025513,-0.564697,0.115479,-4.0,-1.0,1.0,7248.0,-1284.0,2904.0,-260.0,125.0,-52.0,-58.0,69.0,-278.0,0.916566,-0.172097,0.360919,14460.0,-2710.0,5790.0,-84.0,-1.0,32.0
2877.0,2814.0,2843.0,3094.0,2993.0,0.816711,-0.026245,-0.564697,0.115479,-1.0,0.0,1.0,7253.0,-1390.0,2865.0,-253.0,29.0,-90.0,-5.0,-19.0,-269.0,0.916328,-0.17329,0.360781,14508.0,-2990.0,5566.0,-22.0,11.0,35.0
2871.0,2813.0,2839.0,3090.0,2992.0,0.816711,-0.026367,-0.564697,0.115601,0.0,0.0,0.0,7237.0,-1403.0,2842.0,-269.0,19.0,-113.0,11.0,-30.0,-290.0,0.916293,-0.173627,0.360803,14364.0,-2844.0,5566.0,14.0,10.0,22.0
2871.0,2811.0,2835.0,3089.0,2987.0,0.81665,-0.026184,-0.564758,0.115845,1.0,-1.0,0.0,7218.0,-1382.0,2842.0,-288.0,40.0,-112.0,1.0,-14.0,-311.0,0.916354,-0.173615,0.3607,14432.0,-2598.0,5756.0,25.0,-18.0,5.0
2875.0,2806.0,2841.0,3095.0,2991.0,0.816589,-0.026184,-0.564819,0.115906,-1.0,-1.0,0.0,7227.0,-1352.0,2862.0,-279.0,70.0,-91.0,-20.0,14.0,-300.0,0.916381,-0.173695,0.360546,14510.0,-2566.0,5846.0,-6.0,-22.0,4.0
2874.0,2815.0,2845.0,3095.0,2991.0,0.816467,-0.026489,-0.565063,0.115723,-2.0,-2.0,0.0,7236.0,-1383.0,2858.0,-272.0,42.0,-91.0,-13.0,-10.0,-289.0,0.916581,-0.174037,0.360012,14428.0,-2954.0,5630.0,-43.0,-25.0,8.0
2875.0,2811.0,2837.0,3091.0,2991.0,0.816345,-0.026672,-0.565186,0.115662,-2.0,-2.0,0.0,7220.0,-1397.0,2847.0,-288.0,30.0,-99.0,-9.0,-25.0,-304.0,0.916603,-0.174288,0.359651,14370.0,-2880.0,5618.0,-32.0,-35.0,7.0
2873.0,2795.0,2839.0,3091.0,2991.0,0.81604,-0.026672,-0.565613,0.115784,1.0,-2.0,-1.0,7229.0,-1466.0,2821.0,-282.0,-36.0,-117.0,20.0,-86.0,-294.0,0.916949,-0.174509,0.358698,14566.0,-3104.0,5562.0,34.0,-45.0,-7.0
2871.0,2807.0,2839.0,3094.0,2992.0,0.815918,-0.026367,-0.565796,0.115967,3.0,-2.0,-1.0,7243.0,-1513.0,2791.0,-270.0,-85.0,-144.0,57.0,-129.0,-284.0,0.917171,-0.174254,0.35835,14524.0,-3366.0,5368.0,89.0,-36.0,-15.0
2877.0,2814.0,2839.0,3091.0,2991.0,0.815674,-0.024536,-0.56604,0.117065,12.0,-3.0,-3.0,7180.0,-1577.0,2731.0,-337.0,-163.0,-201.0,101.0,-213.0,-353.0,0.917663,-0.172554,0.358025,14126.0,-3174.0,5356.0,279.0,-62.0,-64.0
2874.0,2813.0,2837.0,3093.0,2993.0,0.815491,-0.022827,-0.566223,0.117737,15.0,-4.0,-5.0,7166.0,-1552.0,2737.0,-355.0,-154.0,-193.0,87.0,-208.0,-368.0,0.918124,-0.170561,0.357757,14312.0,-2898.0,5528.0,348.0,-90.0,-93.0
2871.0,2807.0,2853.0,3091.0,2993.0,0.815063,-0.01886,-0.566711,0.11908,16.0,-5.0,-5.0,7236.0,-1419.0,2794.0,-295.0,-61.0,-130.0,34.0,-109.0,-307.0,0.91932,-0.165712,0.356991,14774.0,-2438.0,5836.0,370.0,-107.0,-106.0
2875.0,2815.0,2843.0,3091.0,2991.0,0.81488,-0.016907,-0.566895,0.11969,14.0,-5.0,-5.0,7276.0,-1314.0,2837.0,-259.0,23.0,-85.0,-10.0,-23.0,-272.0,0.919855,-0.163257,0.3567,14750.0,-1948.0,5948.0,340.0,-96.0,-95.0
2870.0,2814.0,2845.0,3094.0,2993.0,0.814514,-0.014099,-0.567261,0.120483,7.0,-4.0,-1.0,7296.0,-1083.0,2907.0,-246.0,224.0,-9.0,-112.0,166.0,-265.0,0.920686,-0.159659,0.355966,14614.0,-1404.0,5978.0,164.0,-91.0,-22.0
2871.0,2810.0,2839.0,3091.0,2991.0,0.814331,-0.013489,-0.567505,0.120544,1.0,-4.0,0.0,7305.0,-986.0,2927.0,-240.0,314.0,15.0,-149.0,252.0,-265.0,0.921022,-0.158788,0.355422,14650.0,-1512.0,5902.0,41.0,-87.0,11.0
2869.0,2811.0,2838.0,3087.0,2993.0,0.813965,-0.013794,-0.568054,0.120544,-2.0,-2.0,1.0,7332.0,-1102.0,2865.0,-216.0,203.0,-36.0,-73.0,155.0,-244.0,0.921427,-0.159407,0.354194,14668.0,-2836.0,5392.0,-40.0,-43.0,45.0
2874.0,2814.0,2839.0,3095.0,2993.0,0.813843,-0.013916,-0.568237,0.120728,0.0,-2.0,1.0,7303.0,-1197.0,2805.0,-246.0,112.0,-93.0,-13.0,67.0,-277.0,0.921552,-0.159855,0.353828,14406.0,-2898.0,5262.0,20.0,-24.0,36.0
2875.0,2812.0,2839.0,3091.0,2991.0,0.81366,-0.013245,-0.56842,0.121399,5.0,-2.0,-1.0,7237.0,-1246.0,2746.0,-314.0,61.0,-149.0,25.0,9.0,-351.0,0.921786,-0.159564,0.353503,14360.0,-2448.0,5400.0,120.0,-26.0,-16.0
2871.0,2811.0,2835.0,3091.0,2991.0,0.813538,-0.012573,-0.568481,0.121643,5.0,-2.0,-2.0,7230.0,-1225.0,2746.0,-322.0,75.0,-148.0,19.0,21.0,-361.0,0.921903,-0.158761,0.353311,14450.0,-2306.0,5508.0,127.0,-31.0,-39.0
2879.0,2814.0,2839.0,3091.0,2991.0,0.813477,-0.011292,-0.568604,0.121765,3.0,-2.0,-2.0,7255.0,-1139.0,2769.0,-300.0,145.0,-123.0,-9.0,92.0,-342.0,0.922341,-0.156843,0.353133,14588.0,-1944.0,5614.0,69.0,-31.0,-43.0
2855.0,2813.0,2839.0,3093.0,2993.0,0.813416,-0.010925,-0.568726,0.121643,0.0,-2.0,-2.0,7284.0,-1099.0,2784.0,-273.0,180.0,-106.0,-23.0,129.0,-317.0,0.922562,-0.156137,0.352874,14782.0,-1996.0,5708.0,9.0,-28.0,-32.0
2874.0,2811.0,2839.0,3090.0,2991.0,0.813416,-0.011169,-0.568787,0.121216,-4.0,0.0,0.0,7344.0,-1106.0,2811.0,-214.0,172.0,-78.0,-28.0,131.0,-251.0,0.922612,-0.156063,0.352695,14750.0,-2320.0,5634.0,-71.0,11.0,6.0
2875.0,2805.0,2833.0,3089.0,2991.0,0.813477,-0.011536,-0.568787,0.120972,-4.0,0.0,0.0,7321.0,-1141.0,2811.0,-236.0,140.0,-78.0,-29.0,95.0,-267.0,0.922598,-0.156382,0.352727,14436.0,-2508.0,5606.0,-79.0,17.0,8.0
2871.0,2813.0,2838.0,3091.0,3007.0,0.813477,-0.012085,-0.568787,0.120789,-2.0,-1.0,0.0,7276.0,-1226.0,2795.0,-280.0,60.0,-94.0,-14.0,10.0,-300.0,0.92247,-0.157068,0.35267,14516.0,-2626.0,5530.0,-28.0,-4.0,14.0
2874.0,2811.0,2843.0,3093.0,2993.0,0.813416,-0.012146,-0.568848,0.12085,-1.0,-1.0,0.0,7290.0,-1213.0,2778.0,-266.0,75.0,-109.0,1.0,29.0,-295.0,0.922483,-0.15725,0.352514,14692.0,-2292.0,5468.0,-3.0,-2.0,10.0
2875.0,2815.0,2842.0,3093.0,2995.0,0.813477,-0.012146,-0.568787,0.120728,-1.0,0.0,0.0,7306.0,-1158.0,2764.0,-250.0,128.0,-124.0,10.0,86.0,-294.0,0.922456,-0.157097,0.352654,14586.0,-2132.0,5498.0,-12.0,11.0,3.0
2871.0,2813.0,2839.0,3089.0,2983.0,0.813477,-0.012207,-0.568787,0.120605,-2.0,0.0,0.0,7301.0,-1127.0,2771.0,-255.0,159.0,-117.0,-2.0,114.0,-301.0,0.922445,-0.157058,0.352623,14576.0,-2122.0,5590.0,-42.0,7.0,8.0
2871.0,2807.0,2838.0,3090.0,2991.0,0.813477,-0.012817,-0.568848,0.1203,-4.0,0.0,1.0,7296.0,-1137.0,2772.0,-260.0,155.0,-115.0,-5.0,109.0,-304.0,0.922405,-0.157718,0.352464,14620.0,-2332.0,5524.0,-74.0,4.0,31.0
2878.0,2814.0,2839.0,3095.0,2993.0,0.813477,-0.013245,-0.568848,0.120239,-4.0,0.0,1.0,7296.0,-1143.0,2773.0,-259.0,154.0,-114.0,-5.0,108.0,-303.0,0.922303,-0.158344,0.352439,14582.0,-2324.0,5546.0,-70.0,8.0,38.0
2875.0,2815.0,2837.0,3091.0,2987.0,0.813477,-0.013916,-0.568848,0.120239,-2.0,0.0,1.0,7279.0,-1191.0,2755.0,-275.0,115.0,-132.0,12.0,68.0,-318.0,0.922142,-0.159436,0.35242,14462.0,-2462.0,5480.0,-37.0,12.0,38.0
2875.0,2815.0,2839.0,3093.0,2995.0,0.813477,-0.014099,-0.568848,0.1203,-2.0,0.0,1.0,7278.0,-1207.0,2750.0,-275.0,102.0,-137.0,19.0,56.0,-318.0,0.922096,-0.159804,0.35243,14562.0,-2552.0,5484.0,-26.0,11.0,25.0
2870.0,2807.0,2839.0,3071.0,2991.0,0.813538,-0.014404,-0.568726,0.120361,-1.0,1.0,0.0,7290.0,-1245.0,2750.0,-262.0,68.0,-139.0,31.0,26.0,-301.0,0.921892,-0.160342,0.352674,14548.0,-2540.0,5524.0,-3.0,27.0,16.0
2875.0,2813.0,2839.0,3094.0,2992.0,0.813599,-0.014465,-0.568604,0.120483,0.0,1.0,0.0,7265.0,-1260.0,2736.0,-285.0,55.0,-155.0,41.0,10.0,-326.0,0.921744,-0.160553,0.35294,14350.0,-2598.0,5410.0,2.0,25.0,16.0
2875.0,2815.0,2845.0,3091.0,2991.0,0.813599,-0.014587,-0.568542,0.120605,-1.0,-1.0,0.0,7244.0,-1267.0,2741.0,-305.0,50.0,-151.0,32.0,0.0,-342.0,0.921612,-0.160875,0.353035,14500.0,-2588.0,5536.0,-11.0,-1.0,16.0
2875.0,2814.0,2833.0,3089.0,2991.0,0.813538,-0.014709,-0.568604,0.120605,-1.0,-1.0,0.0,7244.0,-1293.0,2740.0,-305.0,26.0,-150.0,35.0,-22.0,-338.0,0.921613,-0.161087,0.352863,14478.0,-2784.0,5478.0,-10.0,-9.0,13.0
2871.0,2811.0,2835.0,3091.0,2993.0,0.813477,-0.014771,-0.568665,0.12085,0.0,-1.0,0.0,7261.0,-1322.0,2753.0,-288.0,0.0,-136.0,33.0,-46.0,-313.0,0.921621,-0.161477,0.352751,14604.0,-2628.0,5564.0,20.0,-2.0,8.0
2871.0,2811.0,2843.0,3089.0,2995.0,0.813477,-0.014709,-0.568665,0.120911,0.0,0.0,0.0,7274.0,-1312.0,2764.0,-276.0,10.0,-125.0,24.0,-35.0,-300.0,0.921633,-0.161447,0.352768,14636.0,-2540.0,5598.0,22.0,11.0,4.0
2878.0,2815.0,2838.0,3094.0,2997.0,0.81366,-0.014648,-0.56842,0.120972,-1.0,1.0,0.0,7281.0,-1258.0,2789.0,-267.0,63.0,-105.0,0.0,16.0,-293.0,0.921457,-0.161363,0.35336,14494.0,-2374.0,5660.0,-6.0,33.0,5.0
2866.0,2807.0,2839.0,3095.0,2991.0,0.813782,-0.014771,-0.568237,0.120911,-2.0,1.0,0.0,7265.0,-1247.0,2797.0,-282.0,75.0,-100.0,-12.0,23.0,-307.0,0.92127,-0.161452,0.353748,14406.0,-2470.0,5612.0,-25.0,32.0,4.0
2871.0,2811.0,2839.0,3093.0,2993.0,0.813904,-0.015015,-0.568054,0.12085,-1.0,0.0,0.0,7244.0,-1277.0,2798.0,-301.0,47.0,-103.0,-10.0,-7.0,-321.0,0.921054,-0.161739,0.354133,14438.0,-2638.0,5558.0,-12.0,19.0,9.0
2875.0,2815.0,2849.0,3093.0,2997.0,0.813965,-0.015076,-0.567993,0.120911,-1.0,0.0,0.0,7241.0,-1270.0,2800.0,-303.0,56.0,-102.0,-14.0,1.0,-324.0,0.921007,-0.161895,0.354315,14480.0,-2442.0,5638.0,-1.0,16.0,7.0
2871.0,2811.0,2845.0,3094.0,2995.0,0.814026,-0.015137,-0.567871,0.12085,-1.0,0.0,0.0,7240.0,-1228.0,2823.0,-303.0,98.0,-81.0,-41.0,39.0,-323.0,0.920865,-0.161897,0.354536,14510.0,-2314.0,5702.0,-13.0,2.0,1.0
2871.0,2811.0,2838.0,3091.0,2991.0,0.814087,-0.015198,-0.567871,0.120728,-2.0,-1.0,-1.0,7255.0,-1208.0,2832.0,-289.0,117.0,-72.0,-48.0,59.0,-310.0,0.920923,-0.16186,0.354604,14634.0,-2296.0,5720.0,-33.0,-5.0,-1.0
2871.0,2815.0,2838.0,3088.0,2993.0,0.814087,-0.015503,-0.567932,0.120483,-2.0,-1.0,0.0,7298.0,-1239.0,2856.0,-246.0,88.0,-47.0,-52.0,38.0,-257.0,0.920957,-0.162094,0.354466,14644.0,-2576.0,5786.0,-30.0,-3.0,3.0
2879.0,2813.0,2839.0,3095.0,2995.0,0.814087,-0.015564,-0.567932,0.120422,-1.0,-1.0,0.0,7292.0,-1232.0,2860.0,-252.0,96.0,-43.0,-59.0,44.0,-262.0,0.920944,-0.162124,0.35445,14520.0,-2398.0,5736.0,-17.0,-8.0,1.0
2871.0,2811.0,2839.0,3099.0,2991.0,0.814026,-0.015564,-0.568054,0.120239,-1.0,-1.0,-1.0,7300.0,-1211.0,2860.0,-245.0,115.0,-41.0,-62.0,63.0,-258.0,0.921079,-0.161944,0.354168,14726.0,-2394.0,5720.0,-11.0,-20.0,-8.0
2877.0,2807.0,2837.0,3091.0,2997.0,0.813965,-0.015503,-0.568115,0.120178,-1.0,-1.0,-1.0,7311.0,-1214.0,2849.0,-234.0,111.0,-50.0,-49.0,63.0,-251.0,0.921125,-0.161788,0.353986,14712.0,-2438.0,5624.0,-7.0,-16.0,-6.0
2876.0,2814.0,2835.0,3087.0,2992.0,0.813904,-0.015503,-0.568237,0.120117,-1.0,-1.0,0.0,7304.0,-1174.0,2829.0,-242.0,151.0,-68.0,-42.0,102.0,-271.0,0.921257,-0.161746,0.353734,14580.0,-2248.0,5620.0,-15.0,-9.0,11.0
2869.0,2815.0,2837.0,3099.0,2983.0,0.813904,-0.015564,-0.568237,0.120056,-2.0,-1.0,0.0,7294.0,-1164.0,2833.0,-252.0,161.0,-64.0,-51.0,109.0,-280.0,0.921244,-0.161776,0.353717,14536.0,-2276.0,5700.0,-26.0,-13.0,21.0
2867.0,2814.0,2839.0,3089.0,2991.0,0.813782,-0.01593,-0.56842,0.119995,-2.0,-1.0,1.0,7279.0,-1169.0,2818.0,-268.0,160.0,-76.0,-44.0,106.0,-299.0,0.921317,-0.162343,0.353284,14528.0,-2412.0,5568.0,-45.0,-22.0,24.0
2874.0,2813.0,2839.0,3093.0,2991.0,0.81366,-0.016174,-0.568604,0.119934,-2.0,-2.0,0.0,7280.0,-1204.0,2802.0,-268.0,128.0,-88.0,-27.0,76.0,-298.0,0.92142,-0.162711,0.352855,14554.0,-2650.0,5484.0,-43.0,-24.0,22.0
2874.0,2811.0,2839.0,3089.0,2994.0,0.813477,-0.016479,-0.568848,0.120056,-1.0,-1.0,0.0,7285.0,-1281.0,2768.0,-264.0,57.0,-118.0,14.0,11.0,-294.0,0.921532,-0.163399,0.352298,14572.0,-2750.0,5414.0,-7.0,-18.0,17.0
2878.0,2811.0,2843.0,3091.0,2995.0,0.813416,-0.016541,-0.568909,0.120117,0.0,-1.0,0.0,7280.0,-1307.0,2756.0,-269.0,33.0,-128.0,26.0,-11.0,-298.0,0.921545,-0.16358,0.352142,14508.0,-2736.0,5476.0,5.0,-15.0,11.0
2879.0,2814.0,2851.0,3095.0,2990.0,0.813293,-0.016418,-0.569031,0.120361,1.0,-1.0,0.0,7276.0,-1329.0,2739.0,-273.0,11.0,-143.0,42.0,-32.0,-303.0,0.921626,-0.163685,0.351868,14556.0,-2608.0,5410.0,30.0,-7.0,1.0
2867.0,2811.0,2839.0,3095.0,2987.0,0.813293,-0.016357,-0.569031,0.120422,0.0,-1.0,-1.0,7262.0,-1304.0,2744.0,-288.0,36.0,-138.0,28.0,-11.0,-319.0,0.921638,-0.163655,0.351884,14424.0,-2442.0,5542.0,21.0,-2.0,-3.0
2869.0,2814.0,2837.0,3091.0,2998.0,0.813232,-0.016296,-0.569092,0.1203,-1.0,-1.0,-1.0,7239.0,-1278.0,2733.0,-311.0,60.0,-148.0,26.0,7.0,-348.0,0.921687,-0.163429,0.351688,14490.0,-2544.0,5402.0,-19.0,-7.0,-5.0
2873.0,2814.0,2832.0,3088.0,2989.0,0.813232,-0.016357,-0.569153,0.120178,-2.0,-1.0,-1.0,7259.0,-1284.0,2737.0,-292.0,54.0,-143.0,29.0,5.0,-328.0,0.921775,-0.163404,0.351587,14662.0,-2596.0,5502.0,-25.0,0.0,-9.0
2877.0,2809.0,2842.0,3103.0,2993.0,0.813293,-0.016602,-0.569092,0.119934,-2.0,0.0,-1.0,7251.0,-1288.0,2748.0,-299.0,51.0,-133.0,17.0,0.0,-330.0,0.921695,-0.163511,0.351689,14354.0,-2578.0,5526.0,-35.0,17.0,-6.0
2874.0,2815.0,2847.0,3087.0,2983.0,0.813354,-0.016785,-0.569031,0.119812,-2.0,0.0,0.0,7242.0,-1283.0,2761.0,-307.0,57.0,-121.0,3.0,2.0,-334.0,0.921625,-0.163657,0.351823,14480.0,-2526.0,5620.0,-40.0,7.0,0.0
2869.0,2811.0,2843.0,3091.0,2990.0,0.813416,-0.017151,-0.56897,0.119629,-1.0,0.0,0.0,7290.0,-1309.0,2774.0,-259.0,34.0,-109.0,11.0,-10.0,-282.0,0.921514,-0.164032,0.351935,14714.0,-2686.0,5520.0,-21.0,17.0,7.0
2874.0,2810.0,2845.0,3091.0,2987.0,0.813477,-0.017212,-0.568909,0.119629,-1.0,1.0,0.0,7288.0,-1299.0,2779.0,-260.0,45.0,-105.0,5.0,0.0,-283.0,0.92147,-0.164119,0.352102,14552.0,-2486.0,5640.0,-4.0,23.0,7.0
2875.0,2813.0,2831.0,3093.0,2991.0,0.813538,-0.017273,-0.568787,0.119629,-1.0,0.0,0.0,7267.0,-1268.0,2801.0,-280.0,77.0,-85.0,-25.0,23.0,-300.0,0.921326,-0.164191,0.352338,14536.0,-2490.0,5636.0,-12.0,2.0,5.0
2877.0,2809.0,2817.0,3091.0,2991.0,0.813538,-0.017334,-0.568787,0.119568,-1.0,-1.0,0.0,7279.0,-1254.0,2815.0,-268.0,91.0,-71.0,-36.0,38.0,-286.0,0.921313,-0.164221,0.352321,14656.0,-2428.0,5712.0,-17.0,-5.0,6.0
2877.0,2807.0,2837.0,3091.0,2999.0,0.813538,-0.017517,-0.568848,0.119385,-2.0,-1.0,-1.0,7305.0,-1251.0,2817.0,-242.0,95.0,-68.0,-31.0,47.0,-262.0,0.921375,-0.164325,0.352202,14662.0,-2516.0,5602.0,-36.0,-2.0,-2.0
2867.0,2809.0,2838.0,3093.0,2991.0,0.813538,-0.017639,-0.568848,0.119202,-2.0,-1.0,-1.0,7303.0,-1248.0,2814.0,-244.0,98.0,-70.0,-31.0,50.0,-265.0,0.921353,-0.164315,0.352154,14566.0,-2476.0,5606.0,-36.0,-3.0,-7.0
2871.0,2814.0,2839.0,3093.0,2991.0,0.813538,-0.017883,-0.56897,0.118958,-2.0,-1.0,-1.0,7287.0,-1267.0,2791.0,-261.0,80.0,-92.0,-12.0,31.0,-286.0,0.921502,-0.164464,0.351948,14566.0,-2544.0,5534.0,-30.0,-9.0,-1.0
2869.0,2806.0,2843.0,3091.0,2991.0,0.813477,-0.018005,-0.569031,0.118835,-2.0,-1.0,0.0,7277.0,-1259.0,2786.0,-271.0,88.0,-95.0,-14.0,37.0,-297.0,0.921507,-0.164536,0.351746,14494.0,-2472.0,5542.0,-26.0,-8.0,2.0
2871.0,2809.0,2839.0,3091.0,2997.0,0.813416,-0.01825,-0.569092,0.118652,-3.0,-1.0,0.0,7265.0,-1209.0,2783.0,-283.0,140.0,-96.0,-26.0,85.0,-317.0,0.921486,-0.164737,0.351525,14508.0,-2312.0,5568.0,-46.0,-4.0,10.0
2875.0,2806.0,2864.0,3095.0,2991.0,0.813416,-0.018494,-0.569153,0.118469,-3.0,-1.0,0.0,7270.0,-1190.0,2786.0,-279.0,161.0,-92.0,-32.0,106.0,-315.0,0.921534,-0.16494,0.351403,14576.0,-2246.0,5614.0,-66.0,-2.0,16.0
2869.0,2810.0,2831.0,3090.0,2993.0,0.813416,-0.019348,-0.569214,0.118164,-4.0,0.0,1.0,7291.0,-1246.0,2760.0,-257.0,113.0,-117.0,6.0,66.0,-296.0,0.921442,-0.165997,0.351229,14652.0,-2828.0,5390.0,-87.0,14.0,36.0
2873.0,2811.0,2833.0,3087.0,2995.0,0.813416,-0.019836,-0.569214,0.118164,-3.0,1.0,1.0,7297.0,-1308.0,2728.0,-250.0,58.0,-149.0,47.0,17.0,-292.0,0.921327,-0.166792,0.35121,14626.0,-2984.0,5282.0,-58.0,24.0,45.0
2871.0,2811.0,2832.0,3093.0,2995.0,0.813477,-0.020142,-0.569031,0.11853,2.0,1.0,0.0,7252.0,-1445.0,2681.0,-292.0,-71.0,-199.0,102.0,-111.0,-326.0,0.921012,-0.167664,0.351592,14324.0,-3310.0,5268.0,50.0,32.0,16.0
2869.0,2815.0,2845.0,3091.0,2995.0,0.813538,-0.019897,-0.568848,0.118958,4.0,1.0,0.0,7223.0,-1472.0,2672.0,-320.0,-98.0,-211.0,109.0,-142.0,-352.0,0.920824,-0.167712,0.352011,14274.0,-3002.0,5278.0,104.0,26.0,4.0
2877.0,2807.0,2835.0,3091.0,2991.0,0.813599,-0.018921,-0.568665,0.119507,4.0,-1.0,-2.0,7190.0,-1395.0,2694.0,-353.0,-29.0,-193.0,69.0,-84.0,-388.0,0.920807,-0.166707,0.352487,14378.0,-2532.0,5520.0,99.0,-3.0,-24.0
2875.0,2774.0,2835.0,3095.0,2991.0,0.813599,-0.018494,-0.568665,0.119629,3.0,-1.0,-2.0,7219.0,-1363.0,2713.0,-325.0,-1.0,-174.0,56.0,-52.0,-360.0,0.920905,-0.16615,0.352532,14678.0,-2552.0,5568.0,71.0,-4.0,-32.0
2871.0,2810.0,2833.0,3091.0,3005.0,0.813782,-0.018005,-0.568481,0.119446,-1.0,1.0,-2.0,7265.0,-1273.0,2759.0,-279.0,79.0,-132.0,18.0,30.0,-316.0,0.920938,-0.16511,0.353013,14502.0,-2280.0,5650.0,-6.0,32.0,-31.0
2879.0,2815.0,2831.0,3089.0,2995.0,0.813904,-0.018066,-0.568359,0.119141,-3.0,1.0,-2.0,7261.0,-1251.0,2770.0,-282.0,99.0,-124.0,6.0,48.0,-319.0,0.920875,-0.164838,0.353275,14506.0,-2446.0,5586.0,-52.0,33.0,-27.0
2877.0,2807.0,2843.0,3101.0,2983.0,0.814087,-0.018494,-0.568176,0.118652,-2.0,1.0,-1.0,7259.0,-1309.0,2780.0,-283.0,42.0,-117.0,9.0,-7.0,-308.0,0.920701,-0.164942,0.35365,14512.0,-2842.0,5570.0,-45.0,31.0,-13.0
2879.0,2813.0,2845.0,3093.0,2987.0,0.814209,-0.018616,-0.568054,0.118591,-1.0,1.0,-1.0,7268.0,-1303.0,2803.0,-273.0,49.0,-96.0,-8.0,0.0,-293.0,0.920614,-0.165047,0.353968,14614.0,-2472.0,5758.0,-13.0,30.0,-12.0
2871.0,2815.0,2833.0,3087.0,2991.0,0.814453,-0.018494,-0.567749,0.118347,0.0,1.0,-1.0,7290.0,-1246.0,2840.0,-250.0,101.0,-65.0,-38.0,51.0,-269.0,0.920433,-0.164507,0.354659,14672.0,-2292.0,5818.0,3.0,27.0,-14.0
2871.0,2805.0,2845.0,3087.0,2992.0,0.814514,-0.018372,-0.567627,0.118286,-1.0,1.0,-1.0,7295.0,-1191.0,2856.0,-244.0,154.0,-51.0,-59.0,102.0,-267.0,0.920334,-0.164213,0.354887,14600.0,-2042.0,5818.0,-6.0,26.0,-11.0
2869.0,2807.0,2837.0,3091.0,2989.0,0.814697,-0.018433,-0.567444,0.117859,-3.0,0.0,-1.0,7301.0,-1141.0,2888.0,-237.0,200.0,-22.0,-91.0,146.0,-258.0,0.920245,-0.163791,0.35529,14622.0,-2202.0,5842.0,-46.0,11.0,-2.0
2878.0,2811.0,2833.0,3091.0,2991.0,0.814758,-0.018616,-0.567383,0.117676,-3.0,-1.0,0.0,7306.0,-1122.0,2895.0,-232.0,220.0,-16.0,-98.0,166.0,-255.0,0.920178,-0.163869,0.355409,14646.0,-2176.0,5838.0,-59.0,0.0,5.0
2874.0,2815.0,2843.0,3088.0,2993.0,0.814758,-0.019165,-0.567505,0.117188,-4.0,-1.0,0.0,7328.0,-1144.0,2892.0,-210.0,201.0,-17.0,-87.0,152.0,-232.0,0.920267,-0.164239,0.355135,14744.0,-2460.0,5740.0,-79.0,-11.0,7.0
2871.0,2815.0,2835.0,3071.0,2993.0,0.814697,-0.01947,-0.567627,0.117004,-3.0,-1.0,0.0,7332.0,-1193.0,2875.0,-207.0,155.0,-31.0,-65.0,109.0,-227.0,0.920332,-0.164554,0.354842,14674.0,-2726.0,5628.0,-68.0,-9.0,7.0
2875.0,2811.0,2837.0,3099.0,2991.0,0.814636,-0.019836,-0.567749,0.116943,-1.0,-1.0,0.0,7298.0,-1269.0,2837.0,-241.0,83.0,-67.0,-30.0,36.0,-259.0,0.920378,-0.165108,0.354576,14462.0,-2612.0,5638.0,-10.0,-10.0,14.0
2875.0,2813.0,2843.0,3093.0,2993.0,0.814575,-0.019897,-0.567749,0.117004,0.0,-1.0,0.0,7277.0,-1273.0,2826.0,-262.0,80.0,-77.0,-27.0,29.0,-281.0,0.920292,-0.165274,0.354488,14428.0,-2590.0,5584.0,2.0,-15.0,12.0
2879.0,2815.0,2843.0,3089.0,2995.0,0.814514,-0.019836,-0.567871,0.117126,-1.0,-1.0,0.0,7280.0,-1242.0,2815.0,-260.0,112.0,-87.0,-23.0,62.0,-288.0,0.920431,-0.16534,0.354281,14594.0,-2350.0,5594.0,-2.0,-6.0,12.0
2879.0,2811.0,2841.0,3091.0,2993.0,0.814514,-0.019897,-0.567871,0.117065,-1.0,0.0,0.0,7285.0,-1233.0,2808.0,-255.0,121.0,-94.0,-16.0,72.0,-288.0,0.920419,-0.16537,0.354264,14622.0,-2438.0,5526.0,-18.0,5.0,14.0
2873.0,2811.0,2843.0,3091.0,2991.0,0.814575,-0.020325,-0.567749,0.117004,-3.0,1.0,1.0,7270.0,-1215.0,2783.0,-268.0,144.0,-120.0,0.0,94.0,-313.0,0.920192,-0.16597,0.354471,14448.0,-2374.0,5532.0,-50.0,26.0,27.0
2871.0,2813.0,2834.0,3087.0,2991.0,0.814636,-0.02063,-0.567688,0.116943,-3.0,1.0,1.0,7265.0,-1224.0,2770.0,-272.0,139.0,-134.0,12.0,90.0,-320.0,0.920093,-0.166386,0.354613,14548.0,-2536.0,5454.0,-66.0,31.0,32.0
2877.0,2811.0,2835.0,3087.0,2997.0,0.814819,-0.021484,-0.567383,0.116821,-3.0,2.0,1.0,7278.0,-1263.0,2760.0,-255.0,109.0,-149.0,36.0,65.0,-305.0,0.919609,-0.167577,0.355193,14504.0,-2488.0,5460.0,-59.0,62.0,41.0
2871.0,2807.0,2839.0,3089.0,2992.0,0.814941,-0.021912,-0.5672,0.11676,-4.0,2.0,2.0,7257.0,-1233.0,2764.0,-274.0,144.0,-148.0,23.0,95.0,-328.0,0.919352,-0.168166,0.355567,14360.0,-2290.0,5566.0,-81.0,57.0,48.0
2869.0,2807.0,2833.0,3093.0,2991.0,0.815125,-0.023193,-0.566956,0.116577,-5.0,0.0,2.0,7212.0,-1278.0,2779.0,-315.0,114.0,-137.0,4.0,55.0,-357.0,0.918871,-0.169999,0.356042,14366.0,-2852.0,5560.0,-109.0,22.0,58.0
2875.0,2807.0,2845.0,3095.0,2992.0,0.815125,-0.023804,-0.566956,0.116577,-4.0,0.0,2.0,7224.0,-1320.0,2787.0,-302.0,80.0,-129.0,7.0,24.0,-337.0,0.918729,-0.170994,0.356013,14548.0,-2870.0,5636.0,-80.0,13.0,54.0
2870.0,2814.0,2847.0,3089.0,2992.0,0.815125,-0.024475,-0.566895,0.116699,-2.0,0.0,1.0,7255.0,-1364.0,2810.0,-269.0,46.0,-106.0,2.0,-4.0,-292.0,0.918467,-0.172213,0.356078,14604.0,-2828.0,5684.0,-26.0,14.0,31.0
2871.0,2811.0,2834.0,3089.0,2992.0,0.815186,-0.024658,-0.566772,0.11676,-1.0,0.0,1.0,7276.0,-1358.0,2826.0,-246.0,55.0,-92.0,-4.0,8.0,-268.0,0.918291,-0.172555,0.356321,14688.0,-2626.0,5758.0,-11.0,21.0,23.0
2875.0,2807.0,2839.0,3089.0,2990.0,0.815308,-0.024841,-0.566528,0.11676,-1.0,1.0,0.0,7274.0,-1332.0,2844.0,-246.0,83.0,-78.0,-22.0,34.0,-267.0,0.917989,-0.172803,0.356788,14478.0,-2596.0,5786.0,-17.0,27.0,17.0
2875.0,2814.0,2845.0,3088.0,2991.0,0.815369,-0.024963,-0.566406,0.11676,-2.0,0.0,1.0,7251.0,-1322.0,2852.0,-267.0,95.0,-72.0,-36.0,40.0,-287.0,0.91783,-0.172976,0.35702,14388.0,-2566.0,5752.0,-24.0,19.0,29.0
2869.0,2811.0,2839.0,3087.0,2992.0,0.81543,-0.025452,-0.566284,0.116882,-2.0,0.0,1.0,7248.0,-1309.0,2862.0,-268.0,115.0,-64.0,-47.0,58.0,-288.0,0.91758,-0.173885,0.357262,14494.0,-2616.0,5706.0,-33.0,11.0,43.0
2878.0,2813.0,2843.0,3089.0,2987.0,0.815491,-0.025696,-0.566284,0.116943,-2.0,0.0,1.0,7237.0,-1301.0,2867.0,-279.0,127.0,-60.0,-57.0,67.0,-299.0,0.917589,-0.174356,0.357363,14370.0,-2538.0,5760.0,-31.0,7.0,42.0
2877.0,2811.0,2843.0,3071.0,2992.0,0.81543,-0.026184,-0.566284,0.117004,-3.0,-1.0,1.0,7231.0,-1309.0,2868.0,-284.0,126.0,-58.0,-60.0,64.0,-303.0,0.917403,-0.175218,0.357252,14546.0,-2756.0,5726.0,-47.0,-11.0,36.0
2874.0,2815.0,2845.0,3071.0,2999.0,0.815369,-0.026489,-0.566345,0.117065,-2.0,-1.0,1.0,7250.0,-1345.0,2861.0,-264.0,95.0,-64.0,-43.0,39.0,-281.0,0.917358,-0.175796,0.357082,14610.0,-2882.0,5686.0,-40.0,-5.0,35.0
2874.0,2815.0,2839.0,3071.0,2997.0,0.815369,-0.026978,-0.566345,0.117188,-1.0,0.0,1.0,7266.0,-1393.0,2835.0,-248.0,54.0,-90.0,-7.0,5.0,-269.0,0.917237,-0.17673,0.357084,14556.0,-2864.0,5582.0,-17.0,10.0,34.0
2879.0,2811.0,2835.0,3095.0,2995.0,0.815369,-0.027161,-0.566284,0.11731,-1.0,0.0,1.0,7256.0,-1390.0,2826.0,-256.0,61.0,-99.0,-2.0,11.0,-280.0,0.917088,-0.177153,0.357172,14418.0,-2724.0,5612.0,-11.0,14.0,31.0
2875.0,2815.0,2833.0,3095.0,2991.0,0.815369,-0.027466,-0.566223,0.117432,-2.0,0.0,1.0,7208.0,-1357.0,2811.0,-303.0,99.0,-115.0,-9.0,38.0,-336.0,0.91691,-0.177775,0.357253,14306.0,-2660.0,5622.0,-34.0,3.0,32.0
2871.0,2811.0,2845.0,3093.0,2995.0,0.815369,-0.027771,-0.566223,0.117432,-3.0,-1.0,1.0,7207.0,-1349.0,2804.0,-303.0,111.0,-122.0,-4.0,50.0,-341.0,0.916839,-0.178272,0.357236,14434.0,-2652.0,5540.0,-48.0,-1.0,34.0
2877.0,2814.0,2837.0,3091.0,2989.0,0.815308,-0.028442,-0.566284,0.11731,-3.0,0.0,1.0,7227.0,-1367.0,2783.0,-282.0,101.0,-141.0,21.0,47.0,-326.0,0.916718,-0.17924,0.357001,14514.0,-2812.0,5518.0,-63.0,19.0,36.0
2877.0,2807.0,2831.0,3095.0,2991.0,0.815369,-0.02887,-0.566223,0.117249,-3.0,1.0,1.0,7226.0,-1375.0,2772.0,-282.0,98.0,-153.0,33.0,45.0,-330.0,0.916591,-0.179856,0.357131,14426.0,-2780.0,5486.0,-67.0,32.0,40.0
2871.0,2807.0,2846.0,3099.0,2990.0,0.815491,-0.029846,-0.565918,0.117188,-4.0,2.0,2.0,7234.0,-1399.0,2752.0,-269.0,86.0,-177.0,61.0,37.0,-325.0,0.916007,-0.181316,0.357604,14510.0,-2900.0,5412.0,-76.0,53.0,47.0
2875.0,2802.0,2834.0,3071.0,2991.0,0.815613,-0.030334,-0.565796,0.117188,-4.0,2.0,2.0,7242.0,-1413.0,2755.0,-260.0,78.0,-177.0,65.0,31.0,-315.0,0.915831,-0.182091,0.357912,14532.0,-2892.0,5580.0,-74.0,57.0,54.0
2873.0,2812.0,2841.0,3094.0,2995.0,0.815857,-0.031372,-0.565369,0.117188,-4.0,2.0,2.0,7220.0,-1442.0,2784.0,-277.0,62.0,-154.0,41.0,9.0,-320.0,0.915167,-0.183699,0.35873,14326.0,-2988.0,5682.0,-69.0,56.0,50.0
2875.0,2800.0,2842.0,3089.0,2991.0,0.815979,-0.03186,-0.565186,0.117188,-3.0,1.0,2.0,7198.0,-1453.0,2803.0,-296.0,58.0,-138.0,20.0,0.0,-331.0,0.914892,-0.18446,0.359105,14254.0,-2966.0,5756.0,-62.0,43.0,47.0
2875.0,2807.0,2832.0,3071.0,2992.0,0.816101,-0.032715,-0.564941,0.11731,-2.0,1.0,1.0,7202.0,-1508.0,2839.0,-288.0,15.0,-106.0,0.0,-42.0,-304.0,0.914423,-0.185943,0.359553,14516.0,-3234.0,5752.0,-44.0,29.0,41.0
2867.0,2814.0,2839.0,3095.0,2992.0,0.816162,-0.03302,-0.564758,0.117432,-2.0,1.0,1.0,7220.0,-1522.0,2849.0,-268.0,6.0,-99.0,1.0,-47.0,-281.0,0.914113,-0.18654,0.359868,14542.0,-3062.0,5722.0,-24.0,38.0,36.0
2875.0,2818.0,2847.0,3093.0,2998.0,0.816406,-0.033447,-0.564392,0.117493,-2.0,2.0,0.0,7218.0,-1529.0,2865.0,-266.0,4.0,-89.0,-7.0,-50.0,-275.0,0.913687,-0.187237,0.360667,14380.0,-3086.0,5808.0,-24.0,46.0,18.0
2873.0,2811.0,2830.0,3095.0,2991.0,0.816528,-0.03363,-0.564209,0.117493,-2.0,1.0,0.0,7210.0,-1519.0,2863.0,-273.0,17.0,-94.0,-6.0,-38.0,-286.0,0.913483,-0.187501,0.36106,14362.0,-2950.0,5708.0,-24.0,45.0,15.0
2881.0,2807.0,2834.0,3091.0,2991.0,0.816711,-0.033936,-0.563904,0.117371,-2.0,0.0,0.0,7178.0,-1519.0,2871.0,-302.0,19.0,-91.0,-19.0,-44.0,-312.0,0.913127,-0.187803,0.361654,14286.0,-3092.0,5792.0,-23.0,22.0,6.0
2877.0,2807.0,2845.0,3087.0,2993.0,0.816772,-0.034058,-0.563843,0.117371,-1.0,0.0,0.0,7169.0,-1513.0,2884.0,-310.0,27.0,-79.0,-35.0,-39.0,-316.0,0.913068,-0.187992,0.361815,14286.0,-2982.0,5824.0,-13.0,10.0,6.0
2870.0,2811.0,2839.0,3087.0,2989.0,0.816833,-0.03418,-0.563782,0.117371,-1.0,-1.0,0.0,7177.0,-1486.0,2919.0,-302.0,55.0,-46.0,-67.0,-12.0,-302.0,0.913008,-0.188181,0.361975,14408.0,-2900.0,5948.0,-13.0,-4.0,8.0
2867.0,2814.0,2835.0,3089.0,2987.0,0.816833,-0.034302,-0.563782,0.117371,-1.0,-1.0,0.0,7200.0,-1476.0,2940.0,-279.0,67.0,-25.0,-80.0,2.0,-276.0,0.91298,-0.18838,0.361966,14528.0,-2900.0,6020.0,-21.0,-5.0,9.0
2874.0,2807.0,2837.0,3071.0,2991.0,0.816895,-0.034485,-0.563721,0.117249,-2.0,0.0,0.0,7225.0,-1472.0,2951.0,-253.0,72.0,-15.0,-82.0,12.0,-249.0,0.912914,-0.188532,0.362094,14462.0,-2960.0,5908.0,-23.0,7.0,3.0
2879.0,2813.0,2843.0,3094.0,2993.0,0.816895,-0.034546,-0.56366,0.117188,-1.0,-1.0,0.0,7211.0,-1461.0,2949.0,-266.0,83.0,-17.0,-86.0,20.0,-264.0,0.912804,-0.188548,0.362144,14348.0,-2814.0,5930.0,-22.0,0.0,0.0
2875.0,2811.0,2837.0,3091.0,2994.0,0.816895,-0.034729,-0.563721,0.116943,-2.0,-1.0,-1.0,7216.0,-1463.0,2959.0,-262.0,81.0,-6.0,-95.0,18.0,-256.0,0.912878,-0.188587,0.362005,14494.0,-3028.0,5880.0,-30.0,-20.0,-4.0
2875.0,2813.0,2833.0,3087.0,2991.0,0.816833,-0.03479,-0.563843,0.116882,-1.0,-2.0,-1.0,7219.0,-1472.0,2948.0,-260.0,73.0,-15.0,-84.0,12.0,-256.0,0.912999,-0.188642,0.361749,14472.0,-2950.0,5838.0,-17.0,-25.0,-2.0
2875.0,2811.0,2837.0,3093.0,2993.0,0.81665,-0.034851,-0.564087,0.11676,-1.0,-2.0,-1.0,7211.0,-1454.0,2914.0,-269.0,91.0,-44.0,-63.0,29.0,-278.0,0.913185,-0.188648,0.361142,14396.0,-2856.0,5730.0,-16.0,-34.0,-2.0
2873.0,2813.0,2842.0,3089.0,2991.0,0.816528,-0.034912,-0.56427,0.116699,-1.0,-2.0,0.0,7209.0,-1445.0,2901.0,-273.0,100.0,-53.0,-57.0,38.0,-287.0,0.913336,-0.188713,0.360718,14398.0,-2812.0,5716.0,-22.0,-37.0,0.0
2875.0,2815.0,2843.0,3095.0,2993.0,0.816345,-0.035095,-0.564575,0.116455,-2.0,-2.0,-1.0,7233.0,-1446.0,2888.0,-251.0,100.0,-61.0,-42.0,43.0,-270.0,0.913602,-0.188795,0.360004,14594.0,-2992.0,5716.0,-41.0,-29.0,-2.0
2869.0,2805.0,2835.0,3088.0,2991.0,0.816284,-0.035217,-0.564697,0.116333,-2.0,-1.0,-1.0,7247.0,-1477.0,2870.0,-238.0,70.0,-76.0,-19.0,18.0,-258.0,0.913713,-0.18888,0.35973,14558.0,-3144.0,5636.0,-32.0,-10.0,-2.0
2875.0,2805.0,2832.0,3091.0,2997.0,0.816284,-0.0354,-0.564697,0.116211,-1.0,0.0,-1.0,7206.0,-1482.0,2839.0,-278.0,66.0,-107.0,-3.0,8.0,-304.0,0.913679,-0.189042,0.359689,14184.0,-2884.0,5632.0,-20.0,8.0,-4.0
2869.0,2812.0,2839.0,3099.0,2997.0,0.816284,-0.035522,-0.564697,0.11615,-2.0,-1.0,-1.0,7176.0,-1485.0,2837.0,-308.0,64.0,-109.0,-11.0,0.0,-332.0,0.913655,-0.189172,0.359666,14224.0,-3024.0,5686.0,-37.0,-6.0,-1.0
2875.0,2813.0,2839.0,3095.0,2993.0,0.816162,-0.035889,-0.56488,0.116028,-2.0,-1.0,0.0,7180.0,-1533.0,2846.0,-305.0,20.0,-96.0,-15.0,-43.0,-316.0,0.91374,-0.189666,0.359205,14364.0,-3228.0,5694.0,-24.0,-18.0,3.0
2877.0,2813.0,2841.0,3090.0,2991.0,0.816101,-0.03595,-0.564941,0.116028,-1.0,-1.0,-1.0,7181.0,-1551.0,2846.0,-304.0,3.0,-95.0,-13.0,-60.0,-312.0,0.913756,-0.189775,0.359032,14366.0,-3196.0,5698.0,-2.0,-20.0,-2.0
2871.0,2811.0,2839.0,3071.0,2992.0,0.81604,-0.035767,-0.565063,0.116089,1.0,-1.0,-1.0,7196.0,-1538.0,2860.0,-290.0,14.0,-79.0,-25.0,-47.0,-296.0,0.913925,-0.189569,0.358822,14472.0,-2978.0,5844.0,25.0,-16.0,-11.0
2871.0,2811.0,2833.0,3089.0,2991.0,0.81604,-0.035645,-0.565063,0.116089,0.0,-1.0,-1.0,7215.0,-1517.0,2873.0,-272.0,34.0,-66.0,-34.0,-24.0,-278.0,0.913953,-0.18937,0.358831,14536.0,-2876.0,5806.0,22.0,-6.0,-10.0
2873.0,2809.0,2839.0,3090.0,2991.0,0.816101,-0.035461,-0.565002,0.116089,0.0,0.0,-1.0,7225.0,-1476.0,2867.0,-262.0,72.0,-74.0,-29.0,15.0,-279.0,0.913965,-0.189061,0.359012,14434.0,-2840.0,5614.0,1.0,13.0,-3.0
2891.0,2811.0,2835.0,3089.0,2992.0,0.816162,-0.035461,-0.564941,0.116028,-1.0,0.0,0.0,7199.0,-1448.0,2846.0,-287.0,100.0,-96.0,-21.0,38.0,-315.0,0.913939,-0.188982,0.359167,14206.0,-2704.0,5548.0,-7.0,3.0,1.0
2871.0,2810.0,2835.0,3088.0,2991.0,0.815979,-0.035522,-0.565186,0.115845,-1.0,-2.0,-1.0,7176.0,-1437.0,2820.0,-312.0,110.0,-117.0,-11.0,43.0,-347.0,0.914129,-0.188919,0.358545,14426.0,-3014.0,5604.0,-17.0,-39.0,-5.0
2875.0,2812.0,2839.0,3093.0,2994.0,0.815857,-0.035461,-0.565369,0.115845,0.0,-2.0,-1.0,7201.0,-1453.0,2811.0,-288.0,94.0,-122.0,3.0,34.0,-324.0,0.914304,-0.188853,0.358143,14562.0,-2976.0,5568.0,7.0,-41.0,-1.0
2875.0,2810.0,2839.0,3090.0,2993.0,0.815674,-0.035156,-0.565674,0.115967,1.0,-2.0,0.0,7235.0,-1429.0,2803.0,-257.0,115.0,-126.0,14.0,62.0,-301.0,0.914657,-0.188551,0.357549,14558.0,-2798.0,5612.0,24.0,-29.0,2.0
2875.0,2806.0,2839.0,3091.0,2989.0,0.815552,-0.035034,-0.565796,0.116028,1.0,-1.0,0.0,7248.0,-1422.0,2799.0,-245.0,121.0,-127.0,18.0,70.0,-292.0,0.914742,-0.188441,0.357235,14570.0,-2764.0,5572.0,28.0,-20.0,16.0
2875.0,2811.0,2843.0,3087.0,2992.0,0.815491,-0.034912,-0.565857,0.116272,0.0,0.0,1.0,7282.0,-1405.0,2808.0,-211.0,139.0,-117.0,17.0,95.0,-261.0,0.914784,-0.188528,0.357131,14632.0,-2846.0,5638.0,19.0,2.0,24.0
2875.0,2811.0,2839.0,3095.0,3029.0,0.815491,-0.034851,-0.565796,0.116455,0.0,0.0,1.0,7278.0,-1409.0,2803.0,-215.0,136.0,-123.0,22.0,91.0,-266.0,0.914685,-0.188621,0.357247,14472.0,-2812.0,5566.0,19.0,14.0,32.0
2871.0,2813.0,2839.0,3094.0,3023.0,0.815552,-0.034912,-0.565735,0.11676,0.0,-1.0,1.0,7204.0,-1403.0,2793.0,-288.0,145.0,-135.0,7.0,84.0,-339.0,0.914619,-0.189056,0.357483,14218.0,-2872.0,5558.0,1.0,-5.0,30.0
2871.0,2810.0,2835.0,3091.0,2991.0,0.81543,-0.034973,-0.565796,0.116821,-1.0,-2.0,1.0,7202.0,-1418.0,2804.0,-290.0,132.0,-122.0,-2.0,70.0,-333.0,0.914562,-0.18923,0.357225,14436.0,-2928.0,5664.0,0.0,-23.0,26.0
2869.0,2811.0,2835.0,3087.0,2991.0,0.815369,-0.034973,-0.565918,0.117004,0.0,-1.0,0.0,7241.0,-1459.0,2830.0,-252.0,93.0,-94.0,-10.0,39.0,-281.0,0.91468,-0.189462,0.35703,14584.0,-3018.0,5756.0,8.0,-10.0,3.0
2877.0,2814.0,2846.0,3095.0,2992.0,0.815369,-0.034973,-0.565918,0.117004,-1.0,-1.0,-1.0,7236.0,-1469.0,2840.0,-257.0,83.0,-84.0,-19.0,27.0,-280.0,0.91468,-0.189462,0.35703,14398.0,-2976.0,5740.0,0.0,0.0,-3.0
2871.0,2811.0,2839.0,3091.0,2992.0,0.815369,-0.035034,-0.565918,0.116943,-1.0,-1.0,-1.0,7204.0,-1518.0,2844.0,-288.0,34.0,-80.0,-26.0,-27.0,-298.0,0.91467,-0.189492,0.357011,14294.0,-3212.0,5666.0,-6.0,-6.0,-2.0
2870.0,2811.0,2839.0,3089.0,2992.0,0.815308,-0.035095,-0.565918,0.116943,0.0,-1.0,-1.0,7202.0,-1541.0,2844.0,-290.0,12.0,-79.0,-24.0,-49.0,-295.0,0.914586,-0.189587,0.356907,14418.0,-3186.0,5716.0,3.0,-8.0,-4.0
2867.0,2807.0,2833.0,3089.0,2990.0,0.815308,-0.034973,-0.565918,0.117004,0.0,0.0,-1.0,7205.0,-1532.0,2833.0,-287.0,20.0,-90.0,-14.0,-39.0,-298.0,0.91461,-0.189458,0.35693,14416.0,-2974.0,5680.0,11.0,3.0,-9.0
2875.0,2815.0,2842.0,3091.0,2992.0,0.815369,-0.034973,-0.565918,0.117004,0.0,0.0,-1.0,7197.0,-1523.0,2834.0,-296.0,29.0,-90.0,-18.0,-33.0,-308.0,0.91468,-0.189462,0.35703,14310.0,-2990.0,5670.0,2.0,8.0,-5.0
2875.0,2815.0,2815.0,3093.0,2993.0,0.81543,-0.034973,-0.565857,0.117004,-1.0,-1.0,-1.0,7178.0,-1508.0,2849.0,-314.0,43.0,-77.0,-39.0,-24.0,-322.0,0.914649,-0.189452,0.357198,14304.0,-2952.0,5730.0,-1.0,-6.0,-1.0
2873.0,2813.0,2839.0,3089.0,2990.0,0.815369,-0.034912,-0.565857,0.117004,0.0,-1.0,-1.0,7181.0,-1498.0,2852.0,-311.0,53.0,-73.0,-43.0,-14.0,-320.0,0.914594,-0.189348,0.357103,14418.0,-2912.0,5738.0,10.0,-10.0,-1.0
2874.0,2810.0,2839.0,3090.0,2992.0,0.815369,-0.03479,-0.565918,0.116943,-1.0,-1.0,-1.0,7225.0,-1463.0,2869.0,-268.0,86.0,-55.0,-50.0,25.0,-281.0,0.914727,-0.189094,0.357028,14572.0,-2918.0,5782.0,-1.0,-10.0,-9.0
2873.0,2812.0,2837.0,3095.0,2992.0,0.815369,-0.034729,-0.565918,0.116882,-1.0,-1.0,-1.0,7239.0,-1454.0,2871.0,-254.0,93.0,-53.0,-49.0,35.0,-268.0,0.914745,-0.188926,0.357018,14526.0,-2798.0,5782.0,0.0,-6.0,-6.0
2874.0,2811.0,2838.0,3095.0,2993.0,0.815369,-0.034607,-0.565979,0.11676,-1.0,-1.0,-1.0,7242.0,-1430.0,2878.0,-252.0,115.0,-45.0,-59.0,57.0,-268.0,0.914882,-0.188603,0.356929,14468.0,-2858.0,5746.0,-4.0,-13.0,-10.0
2871.0,2810.0,2838.0,3091.0,2991.0,0.815308,-0.034546,-0.56604,0.116699,0.0,-1.0,-1.0,7242.0,-1442.0,2874.0,-253.0,101.0,-48.0,-54.0,43.0,-267.0,0.914931,-0.188444,0.35675,14488.0,-2986.0,5720.0,2.0,-19.0,-3.0
2874.0,2811.0,2837.0,3091.0,2992.0,0.815186,-0.034363,-0.566223,0.116821,0.0,-1.0,-1.0,7244.0,-1442.0,2855.0,-252.0,100.0,-64.0,-39.0,44.0,-272.0,0.915125,-0.188318,0.356385,14440.0,-2798.0,5636.0,22.0,-22.0,-1.0
2871.0,2814.0,2843.0,3091.0,2992.0,0.815125,-0.034241,-0.566284,0.116821,0.0,-2.0,-1.0,7234.0,-1433.0,2851.0,-263.0,108.0,-67.0,-41.0,49.0,-284.0,0.915184,-0.188129,0.356225,14412.0,-2806.0,5678.0,10.0,-27.0,-1.0
2873.0,2815.0,2839.0,3089.0,2991.0,0.815002,-0.03418,-0.566528,0.116821,-1.0,-2.0,0.0,7234.0,-1432.0,2833.0,-265.0,108.0,-81.0,-28.0,50.0,-291.0,0.915458,-0.188078,0.355754,14476.0,-2878.0,5652.0,-3.0,-31.0,0.0
2875.0,2807.0,2835.0,3091.0,2991.0,0.81488,-0.034119,-0.56665,0.11676,-1.0,-2.0,-1.0,7238.0,-1433.0,2831.0,-262.0,106.0,-80.0,-28.0,49.0,-288.0,0.915537,-0.18793,0.355406,14518.0,-2888.0,5676.0,-6.0,-27.0,-1.0
2875.0,2811.0,2833.0,3087.0,2990.0,0.814758,-0.034119,-0.566895,0.11676,0.0,-1.0,0.0,7241.0,-1451.0,2795.0,-261.0,88.0,-112.0,4.0,34.0,-295.0,0.915797,-0.187978,0.354931,14496.0,-2958.0,5444.0,5.0,-15.0,2.0
2875.0,2814.0,2839.0,3095.0,2995.0,0.814697,-0.034058,-0.566956,0.116821,0.0,-1.0,0.0,7235.0,-1462.0,2775.0,-267.0,77.0,-131.0,22.0,23.0,-305.0,0.915837,-0.187958,0.35478,14448.0,-2982.0,5442.0,17.0,-10.0,4.0
2877.0,2812.0,2838.0,3090.0,2992.0,0.814636,-0.033875,-0.567017,0.116943,0.0,-1.0,0.0,7223.0,-1424.0,2771.0,-280.0,114.0,-134.0,15.0,56.0,-325.0,0.915902,-0.187808,0.354653,14420.0,-2736.0,5572.0,13.0,-6.0,8.0
2873.0,2809.0,2835.0,3088.0,2992.0,0.814636,-0.033875,-0.567017,0.117004,0.0,-1.0,0.0,7233.0,-1427.0,2774.0,-270.0,112.0,-131.0,16.0,56.0,-314.0,0.915898,-0.187878,0.354667,14574.0,-2882.0,5566.0,4.0,-10.0,14.0
2871.0,2811.0,2837.0,3088.0,2993.0,0.814575,-0.033875,-0.567078,0.117126,-1.0,0.0,0.0,7245.0,-1424.0,2782.0,-258.0,116.0,-122.0,11.0,62.0,-301.0,0.91592,-0.188026,0.354527,14464.0,-2824.0,5582.0,-3.0,2.0,16.0
2869.0,2815.0,2843.0,3088.0,2993.0,0.814575,-0.033936,-0.567078,0.117188,-1.0,0.0,0.0,7236.0,-1431.0,2781.0,-267.0,110.0,-123.0,9.0,55.0,-308.0,0.915901,-0.188195,0.354537,14388.0,-2914.0,5568.0,-12.0,2.0,16.0
2875.0,2811.0,2837.0,3094.0,2992.0,0.814514,-0.034119,-0.567078,0.117249,-1.0,-1.0,0.0,7232.0,-1468.0,2797.0,-270.0,76.0,-106.0,-1.0,19.0,-299.0,0.915785,-0.188558,0.354439,14478.0,-3112.0,5624.0,-5.0,-3.0,15.0
2871.0,2811.0,2841.0,3091.0,2989.0,0.814514,-0.03418,-0.567078,0.11731,0.0,-1.0,0.0,7224.0,-1470.0,2803.0,-277.0,76.0,-100.0,-9.0,17.0,-303.0,0.915766,-0.188727,0.35445,14408.0,-2900.0,5630.0,9.0,-3.0,12.0
2875.0,2811.0,2837.0,3091.0,2991.0,0.814514,-0.034119,-0.567139,0.117432,0.0,-1.0,0.0,7229.0,-1479.0,2813.0,-273.0,67.0,-90.0,-16.0,9.0,-294.0,0.915872,-0.18878,0.354413,14526.0,-3054.0,5680.0,11.0,-11.0,4.0
2873.0,2815.0,2845.0,3091.0,2993.0,0.814453,-0.034058,-0.567139,0.117493,0.0,-1.0,0.0,7238.0,-1489.0,2815.0,-264.0,57.0,-87.0,-14.0,1.0,-283.0,0.915813,-0.188746,0.354332,14514.0,-2988.0,5658.0,21.0,-7.0,8.0
2874.0,2815.0,2845.0,3095.0,2994.0,0.814453,-0.033936,-0.567139,0.117676,0.0,-1.0,0.0,7221.0,-1433.0,2814.0,-281.0,113.0,-89.0,-26.0,51.0,-310.0,0.915829,-0.188755,0.354384,14412.0,-2716.0,5670.0,6.0,-7.0,12.0
2871.0,2812.0,2835.0,3093.0,2992.0,0.814453,-0.033936,-0.5672,0.117676,-1.0,-1.0,0.0,7223.0,-1436.0,2819.0,-280.0,110.0,-83.0,-31.0,48.0,-306.0,0.915928,-0.188769,0.354314,14480.0,-2912.0,5658.0,-11.0,-5.0,14.0
2873.0,2811.0,2838.0,3091.0,2992.0,0.814392,-0.03418,-0.5672,0.117737,-1.0,-1.0,0.0,7213.0,-1459.0,2813.0,-289.0,91.0,-88.0,-26.0,28.0,-313.0,0.915797,-0.189232,0.354213,14342.0,-2924.0,5616.0,-16.0,-1.0,18.0
2875.0,2815.0,2845.0,3094.0,2994.0,0.814392,-0.034302,-0.5672,0.117737,-1.0,-1.0,0.0,7208.0,-1464.0,2809.0,-293.0,87.0,-92.0,-23.0,23.0,-317.0,0.915769,-0.189431,0.354204,14428.0,-2980.0,5620.0,-13.0,-11.0,11.0
