flex_1,flex_2,flex_3,flex_4,flex_5,Qw,Qx,Qy,Qz,GYRx,GYRy,GYRz,ACCx,ACCy,ACCz,ACCx_real,ACCy_real,ACCz_real,ACCx_world,ACCy_world,ACCz_world,GRAx,GRAy,GRAz,ACCx_raw,ACCy_raw,ACCz_raw,GYRx_raw,GYRy_raw,GYRz_raw
2870.0,2769.0,2845.0,3167.0,3039.0,1.0,0.0,0.0,0.0,0.0,0.0,0.0,0.0,0.0,0.0,0.0,0.0,0.0,0.0,0.0,0.0,0.0,0.0,0.0,0.0,0.0,0.0,0.0,0.0,0.0
2891.0,2770.0,2837.0,3154.0,3047.0,0.879028,0.476196,0.021362,0.003723,-1.0,-1.0,-1.0,-331.0,7846.0,1969.0,-52.0,986.0,-2499.0,-141.0,2629.0,-535.0,-0.03401,0.837339,0.545485,-622.0,15514.0,4070.0,-18.0,-14.0,-9.0
2887.0,2768.0,2847.0,3268.0,3043.0,0.877869,0.478271,0.021301,0.003662,-1.0,-1.0,0.0,-303.0,7832.0,2020.0,-25.0,951.0,-2415.0,-110.0,2542.0,-508.0,-0.033896,0.839875,0.541469,-358.0,15846.0,4500.0,0.0,-9.0,7.0
2883.0,2769.0,2838.0,3153.0,3039.0,0.877319,0.479248,0.021362,0.003784,-1.0,0.0,0.0,-307.0,7840.0,2011.0,-29.0,949.0,-2409.0,-114.0,2537.0,-500.0,-0.033856,0.841069,0.539568,-680.0,15688.0,3880.0,-14.0,15.0,9.0
2883.0,2769.0,2837.0,3141.0,3039.0,0.876221,0.481384,0.021606,0.004028,0.0,1.0,0.0,-304.0,7784.0,1977.0,-25.0,871.0,-2410.0,-113.0,2499.0,-554.0,-0.033986,0.843772,0.535581,-608.0,15514.0,3876.0,18.0,26.0,18.0
2887.0,2768.0,2843.0,3151.0,3047.0,0.875549,0.482544,0.021729,0.00415,1.0,1.0,0.0,-319.0,7812.0,1966.0,-40.0,888.0,-2402.0,-128.0,2502.0,-529.0,-0.034043,0.845162,0.533283,-792.0,15864.0,3818.0,31.0,30.0,17.0
2895.0,2771.0,2843.0,3149.0,3047.0,0.874268,0.484863,0.021912,0.004211,0.0,-1.0,-1.0,-357.0,7879.0,1972.0,-76.0,932.0,-2359.0,-162.0,2491.0,-454.0,-0.034229,0.847985,0.528789,-766.0,15998.0,4006.0,6.0,-8.0,-4.0
2893.0,2769.0,2832.0,3151.0,3039.0,0.873718,0.48584,0.021912,0.004089,-2.0,-2.0,-1.0,-361.0,7907.0,1974.0,-79.0,950.0,-2342.0,-164.0,2487.0,-424.0,-0.034316,0.849154,0.52688,-738.0,15916.0,3944.0,-24.0,-24.0,-13.0
2894.0,2768.0,2833.0,3147.0,3043.0,0.872742,0.487549,0.021851,0.003784,-2.0,-2.0,-1.0,-339.0,7825.0,1977.0,-56.0,852.0,-2311.0,-140.0,2411.0,-482.0,-0.03445,0.851174,0.523511,-602.0,15320.0,4018.0,-23.0,-26.0,-11.0
2891.0,2773.0,2839.0,3151.0,3039.0,0.872253,0.488525,0.021851,0.003723,0.0,-1.0,-1.0,-326.0,7791.0,1991.0,-43.0,808.0,-2282.0,-126.0,2365.0,-500.0,-0.034481,0.852399,0.521705,-574.0,15450.0,4080.0,5.0,-12.0,-2.0
2887.0,2767.0,2839.0,3155.0,3044.0,0.871094,0.49054,0.021973,0.003784,0.0,0.0,0.0,-325.0,7809.0,1996.0,-41.0,806.0,-2245.0,-123.0,2335.0,-471.0,-0.034568,0.854778,0.517707,-694.0,15704.0,3990.0,3.0,18.0,9.0
2886.0,2765.0,2842.0,3153.0,3039.0,0.870544,0.491516,0.022095,0.003906,0.0,0.0,0.0,-334.0,7810.0,1993.0,-50.0,798.0,-2232.0,-132.0,2320.0,-466.0,-0.034629,0.855946,0.515787,-708.0,15598.0,3998.0,1.0,21.0,8.0
2885.0,2765.0,2839.0,3147.0,3045.0,0.869385,0.49353,0.022278,0.003967,0.0,0.0,0.0,-352.0,7843.0,1990.0,-66.0,811.0,-2202.0,-147.0,2303.0,-428.0,-0.03482,0.858312,0.511777,-788.0,15774.0,3930.0,3.0,5.0,8.0
2883.0,2769.0,2846.0,3157.0,3039.0,0.868835,0.494507,0.022339,0.003967,0.0,-1.0,0.0,-367.0,7841.0,1986.0,-81.0,800.0,-2190.0,-162.0,2287.0,-426.0,-0.034894,0.859467,0.509855,-826.0,15622.0,3992.0,5.0,-8.0,3.0
2893.0,2770.0,2847.0,3163.0,3055.0,0.867737,0.49646,0.022278,0.003845,0.0,-1.0,-1.0,-355.0,7840.0,1992.0,-69.0,780.0,-2153.0,-148.0,2248.0,-414.0,-0.034845,0.861764,0.506013,-670.0,15684.0,4000.0,6.0,-15.0,-2.0
2873.0,2768.0,2847.0,3155.0,3047.0,0.867188,0.497375,0.022339,0.003784,0.0,-1.0,-1.0,-356.0,7826.0,1991.0,-69.0,757.0,-2138.0,-147.0,2224.0,-422.0,-0.03498,0.862805,0.504147,-698.0,15566.0,3992.0,2.0,-10.0,-8.0
2894.0,2769.0,2831.0,3143.0,3039.0,0.86615,0.499207,0.0224,0.003601,-1.0,-1.0,-1.0,-355.0,7842.0,1999.0,-66.0,756.0,-2101.0,-142.0,2193.0,-395.0,-0.035208,0.864937,0.50052,-658.0,15710.0,4008.0,-9.0,-13.0,-9.0
2897.0,2768.0,2827.0,3167.0,3047.0,0.865662,0.5,0.0224,0.00354,-1.0,-1.0,-1.0,-338.0,7839.0,1991.0,-49.0,746.0,-2095.0,-125.0,2184.0,-397.0,-0.035241,0.86582,0.498881,-606.0,15636.0,3936.0,-21.0,-10.0,-8.0
2910.0,2768.0,2851.0,3174.0,3055.0,0.864685,0.501709,0.022522,0.00354,-1.0,0.0,-1.0,-304.0,7825.0,1969.0,-14.0,715.0,-2089.0,-90.0,2166.0,-414.0,-0.035397,0.8678,0.495474,-528.0,15638.0,3876.0,-6.0,6.0,-2.0
2891.0,2766.0,2835.0,3153.0,3054.0,0.864136,0.502625,0.022522,0.003601,-1.0,0.0,0.0,-306.0,7818.0,1954.0,-16.0,700.0,-2089.0,-93.0,2160.0,-422.0,-0.035304,0.868834,0.493605,-650.0,15570.0,3800.0,-1.0,10.0,5.0
2886.0,2771.0,2835.0,3155.0,3027.0,0.862976,0.504578,0.022705,0.003601,0.0,-1.0,-1.0,-335.0,7860.0,1941.0,-43.0,724.0,-2070.0,-119.0,2156.0,-381.0,-0.035554,0.87104,0.489627,-742.0,15978.0,3894.0,19.0,-1.0,-1.0
2895.0,2771.0,2843.0,3153.0,3055.0,0.862488,0.505493,0.022766,0.00354,-1.0,-1.0,-1.0,-345.0,7892.0,1952.0,-52.0,747.0,-2044.0,-126.0,2145.0,-343.0,-0.035692,0.872125,0.487856,-736.0,15898.0,3972.0,-7.0,-14.0,-7.0
2899.0,2775.0,2847.0,3158.0,3042.0,0.861572,0.50708,0.022705,0.003296,-1.0,-1.0,-1.0,-336.0,7846.0,1976.0,-42.0,686.0,-1994.0,-114.0,2073.0,-365.0,-0.035782,0.873922,0.484672,-586.0,15558.0,4068.0,-12.0,-21.0,-10.0
2891.0,2765.0,2832.0,3152.0,3055.0,0.861084,0.507874,0.022705,0.003235,-1.0,-1.0,-1.0,-323.0,7829.0,1985.0,-29.0,662.0,-1971.0,-100.0,2043.0,-371.0,-0.035816,0.87479,0.483025,-570.0,15550.0,4008.0,-8.0,-8.0,-3.0
2887.0,2770.0,2846.0,3155.0,3047.0,0.860107,0.509521,0.022827,0.003418,1.0,1.0,0.0,-300.0,7785.0,1979.0,-6.0,603.0,-1950.0,-78.0,1998.0,-406.0,-0.035785,0.876642,0.479663,-576.0,15522.0,3870.0,23.0,31.0,16.0
2895.0,2774.0,2839.0,3158.0,3043.0,0.859497,0.510559,0.02301,0.003662,1.0,1.0,0.0,-312.0,7800.0,1968.0,-18.0,608.0,-1944.0,-91.0,1996.0,-393.0,-0.035815,0.877817,0.477549,-738.0,15752.0,3896.0,36.0,41.0,18.0
2895.0,2775.0,2832.0,3151.0,3045.0,0.858398,0.51239,0.023315,0.003784,-1.0,0.0,0.0,-374.0,7912.0,1967.0,-77.0,704.0,-1914.0,-148.0,2015.0,-284.0,-0.03615,0.879846,0.473775,-908.0,16130.0,3994.0,-11.0,6.0,0.0
2896.0,2771.0,2831.0,3143.0,3043.0,0.857971,0.513062,0.023376,0.003662,-2.0,-1.0,-1.0,-385.0,7926.0,1969.0,-87.0,712.0,-1900.0,-157.0,2006.0,-267.0,-0.036355,0.880555,0.472349,-792.0,15840.0,3988.0,-43.0,-13.0,-11.0
2887.0,2778.0,2861.0,3152.0,3047.0,0.857239,0.514343,0.023438,0.003479,-1.0,-1.0,-1.0,-366.0,7845.0,1985.0,-66.0,619.0,-1863.0,-136.0,1932.0,-326.0,-0.036604,0.881993,0.469772,-608.0,15432.0,4040.0,-19.0,-7.0,-7.0
2894.0,2773.0,2862.0,3179.0,3047.0,0.85675,0.515076,0.023499,0.003479,0.0,-1.0,0.0,-350.0,7811.0,1995.0,-49.0,579.0,-1840.0,-119.0,1893.0,-348.0,-0.036681,0.882746,0.468178,-614.0,15434.0,4060.0,5.0,0.0,7.0
2896.0,2787.0,2837.0,3151.0,3045.0,0.855774,0.516724,0.02356,0.003601,0.0,0.0,0.0,-338.0,7826.0,2016.0,-38.0,579.0,-1791.0,-106.0,1852.0,-318.0,-0.036602,0.884567,0.464804,-616.0,15764.0,4066.0,15.0,11.0,12.0
2891.0,2778.0,2845.0,3153.0,3035.0,0.855286,0.517517,0.023621,0.003723,-1.0,0.0,0.0,-343.0,7831.0,2008.0,-43.0,577.0,-1786.0,-111.0,1847.0,-314.0,-0.036551,0.885426,0.463146,-738.0,15664.0,3958.0,-2.0,19.0,13.0
2887.0,2770.0,2838.0,3153.0,3055.0,0.85437,0.518982,0.023865,0.003906,-1.0,0.0,0.0,-365.0,7854.0,1979.0,-64.0,587.0,-1789.0,-133.0,1854.0,-300.0,-0.036724,0.886992,0.460052,-834.0,15856.0,3906.0,-10.0,19.0,8.0
2893.0,2783.0,2833.0,3152.0,3037.0,0.853943,0.519714,0.023987,0.003906,-1.0,0.0,0.0,-379.0,7864.0,1974.0,-76.0,591.0,-1782.0,-145.0,1850.0,-289.0,-0.036906,0.8878,0.458555,-810.0,15778.0,3952.0,-20.0,7.0,3.0
2887.0,2782.0,2847.0,3153.0,3027.0,0.853149,0.520996,0.024048,0.003784,-1.0,-1.0,-1.0,-368.0,7845.0,1993.0,-64.0,561.0,-1741.0,-131.0,1801.0,-292.0,-0.03709,0.889157,0.455863,-650.0,15594.0,4054.0,-21.0,-19.0,-7.0
2886.0,2767.0,2851.0,3157.0,3052.0,0.852783,0.521606,0.023987,0.003723,-1.0,-2.0,-1.0,-346.0,7821.0,2000.0,-42.0,531.0,-1724.0,-109.0,1774.0,-309.0,-0.037027,0.889813,0.454604,-556.0,15508.0,4056.0,-12.0,-24.0,-5.0
2889.0,2769.0,2834.0,3151.0,3043.0,0.851868,0.523071,0.023926,0.003662,0.0,-1.0,0.0,-336.0,7783.0,1999.0,-33.0,481.0,-1699.0,-99.0,1730.0,-337.0,-0.036932,0.89135,0.451516,-734.0,15490.0,3888.0,18.0,-1.0,2.0
2890.0,2763.0,2843.0,3157.0,3051.0,0.851379,0.523926,0.023987,0.003662,1.0,-1.0,0.0,-352.0,7788.0,2000.0,-48.0,478.0,-1684.0,-114.0,1716.0,-329.0,-0.037006,0.892295,0.449787,-800.0,15684.0,4012.0,32.0,-6.0,6.0
2883.0,2801.0,2861.0,3167.0,3062.0,0.850403,0.525513,0.023926,0.003662,0.0,-1.0,0.0,-359.0,7858.0,2015.0,-57.0,534.0,-1642.0,-119.0,1704.0,-253.0,-0.036844,0.89397,0.446462,-718.0,15924.0,3964.0,6.0,-10.0,8.0
2891.0,2770.0,2838.0,3151.0,3039.0,0.849976,0.526184,0.023926,0.003662,-1.0,0.0,0.0,-346.0,7874.0,2005.0,-44.0,544.0,-1640.0,-106.0,1707.0,-241.0,-0.036819,0.894662,0.44503,-590.0,15820.0,3938.0,-15.0,2.0,4.0
2887.0,2779.0,2847.0,3143.0,3047.0,0.849182,0.527405,0.024109,0.003784,-1.0,0.0,0.0,-332.0,7844.0,1958.0,-29.0,504.0,-1666.0,-94.0,1714.0,-284.0,-0.036954,0.895908,0.442388,-650.0,15578.0,3792.0,-12.0,19.0,12.0
2887.0,2765.0,2815.0,3187.0,3046.0,0.848755,0.528137,0.02417,0.003967,0.0,0.0,0.0,-328.0,7833.0,1945.0,-26.0,487.0,-1666.0,-92.0,1707.0,-296.0,-0.036838,0.89671,0.440887,-632.0,15648.0,3828.0,9.0,18.0,20.0
2899.0,2771.0,2834.0,3165.0,3023.0,0.847778,0.529663,0.024292,0.004211,0.0,0.0,0.0,-329.0,7865.0,1948.0,-28.0,506.0,-1636.0,-93.0,1690.0,-260.0,-0.036727,0.898278,0.437613,-666.0,15832.0,3958.0,13.0,16.0,21.0
2899.0,2766.0,2835.0,3163.0,3055.0,0.847351,0.530396,0.024353,0.004395,0.0,0.0,0.0,-334.0,7864.0,1958.0,-34.0,498.0,-1614.0,-98.0,1667.0,-254.0,-0.036609,0.899076,0.436111,-698.0,15690.0,3992.0,8.0,19.0,22.0
2893.0,2770.0,2829.0,3147.0,3045.0,0.846436,0.531799,0.024536,0.0047,0.0,1.0,0.0,-335.0,7853.0,1983.0,-35.0,476.0,-1564.0,-99.0,1613.0,-247.0,-0.036538,0.900498,0.433063,-694.0,15688.0,4012.0,9.0,31.0,20.0
2903.0,2770.0,2847.0,3173.0,3051.0,0.846069,0.532471,0.024658,0.004883,0.0,1.0,0.0,-342.0,7845.0,1994.0,-42.0,461.0,-1542.0,-106.0,1587.0,-248.0,-0.036525,0.901255,0.431724,-720.0,15628.0,4068.0,1.0,31.0,19.0
2899.0,2783.0,2815.0,3153.0,3071.0,0.845215,0.533752,0.024841,0.005188,0.0,1.0,0.0,-335.0,7800.0,2011.0,-36.0,406.0,-1502.0,-100.0,1528.0,-276.0,-0.036454,0.902529,0.428906,-604.0,15480.0,3974.0,12.0,26.0,20.0
2881.0,2779.0,2832.0,3157.0,3027.0,0.844788,0.534424,0.024963,0.005371,0.0,1.0,0.0,-320.0,7790.0,2007.0,-21.0,390.0,-1494.0,-85.0,1515.0,-285.0,-0.036437,0.903217,0.427463,-546.0,15576.0,3970.0,21.0,27.0,22.0
2883.0,2755.0,2836.0,3159.0,3023.0,0.843872,0.535828,0.025085,0.005737,0.0,1.0,0.0,-311.0,7797.0,1974.0,-14.0,386.0,-1502.0,-80.0,1521.0,-287.0,-0.036189,0.904628,0.424412,-668.0,15636.0,3816.0,18.0,29.0,18.0
2911.0,2778.0,2823.0,3179.0,3030.0,0.843384,0.53656,0.025208,0.005798,0.0,1.0,0.0,-328.0,7823.0,1956.0,-30.0,406.0,-1507.0,-96.0,1534.0,-268.0,-0.036297,0.905344,0.422798,-776.0,15828.0,3812.0,14.0,24.0,4.0
2907.0,2779.0,2821.0,3163.0,3058.0,0.842651,0.53772,0.025452,0.005737,-2.0,0.0,-1.0,-310.0,7861.0,1950.0,-9.0,434.0,-1493.0,-74.0,1535.0,-233.0,-0.036724,0.906513,0.420304,-416.0,15760.0,3936.0,-28.0,2.0,-17.0
2887.0,2779.0,2863.0,3153.0,3031.0,0.842346,0.538147,0.025513,0.005737,-2.0,0.0,-1.0,-279.0,7831.0,1952.0,22.0,401.0,-1483.0,-43.0,1513.0,-259.0,-0.036806,0.906905,0.419327,-406.0,15428.0,3888.0,-35.0,18.0,-16.0
2883.0,2763.0,2837.0,3151.0,3063.0,0.841614,0.539307,0.02594,0.00592,0.0,1.0,-1.0,-278.0,7782.0,1928.0,27.0,342.0,-1486.0,-41.0,1492.0,-309.0,-0.037277,0.908083,0.416824,-624.0,15582.0,3854.0,15.0,43.0,-8.0
2879.0,2759.0,2832.0,3143.0,3027.0,0.841187,0.539978,0.026184,0.005981,0.0,1.0,-1.0,-287.0,7811.0,1944.0,20.0,366.0,-1458.0,-47.0,1477.0,-273.0,-0.037592,0.908758,0.415369,-618.0,15862.0,3990.0,17.0,39.0,-9.0
2869.0,2763.0,2837.0,3154.0,3043.0,0.840454,0.541077,0.026672,0.006042,-1.0,1.0,-2.0,-311.0,7844.0,1942.0,2.0,390.0,-1440.0,-64.0,1470.0,-239.0,-0.038295,0.909823,0.412924,-706.0,15642.0,3822.0,-21.0,38.0,-23.0
2882.0,2767.0,2832.0,3139.0,3059.0,0.840149,0.541626,0.026917,0.006042,-1.0,1.0,-2.0,-314.0,7839.0,1957.0,2.0,380.0,-1416.0,-64.0,1445.0,-237.0,-0.038682,0.910418,0.411804,-606.0,15676.0,4030.0,-14.0,35.0,-23.0
2879.0,2758.0,2845.0,3159.0,3062.0,0.839478,0.542603,0.027466,0.006165,-1.0,2.0,-1.0,-326.0,7821.0,1987.0,-3.0,355.0,-1368.0,-68.0,1391.0,-236.0,-0.039424,0.911344,0.409589,-776.0,15518.0,4008.0,-3.0,55.0,-12.0
2879.0,2768.0,2851.0,3143.0,3053.0,0.839111,0.543152,0.027771,0.006287,0.0,2.0,-1.0,-350.0,7820.0,1989.0,-24.0,349.0,-1356.0,-89.0,1377.0,-234.0,-0.039777,0.911879,0.408362,-858.0,15684.0,4000.0,9.0,52.0,-8.0
2903.0,2770.0,2859.0,3147.0,3024.0,0.838318,0.544373,0.028259,0.006287,0.0,0.0,-1.0,-394.0,7831.0,2007.0,-61.0,351.0,-1316.0,-125.0,1341.0,-210.0,-0.040536,0.91307,0.405676,-856.0,15722.0,4080.0,16.0,20.0,-11.0
2899.0,2775.0,2849.0,3147.0,3055.0,0.837891,0.544983,0.028442,0.006287,0.0,0.0,-1.0,-394.0,7837.0,2018.0,-59.0,352.0,-1293.0,-122.0,1320.0,-198.0,-0.040811,0.91363,0.404285,-736.0,15664.0,4094.0,12.0,12.0,-12.0
2895.0,2775.0,2843.0,3131.0,3055.0,0.837097,0.546204,0.028687,0.006287,1.0,0.0,0.0,-379.0,7819.0,2011.0,-41.0,324.0,-1278.0,-104.0,1297.0,-215.0,-0.041159,0.914812,0.40161,-712.0,15634.0,3992.0,28.0,20.0,0.0
2863.0,2769.0,2833.0,3173.0,3045.0,0.83667,0.546875,0.028809,0.006409,1.0,1.0,0.0,-386.0,7834.0,2005.0,-48.0,334.0,-1273.0,-111.0,1296.0,-201.0,-0.041197,0.915477,0.400155,-838.0,15776.0,3926.0,36.0,28.0,8.0
2891.0,2757.0,2834.0,3150.0,3027.0,0.835693,0.548279,0.029114,0.006592,1.0,0.0,0.0,-424.0,7888.0,1978.0,-84.0,377.0,-1273.0,-147.0,1312.0,-156.0,-0.041432,0.91677,0.39697,-998.0,15940.0,3942.0,34.0,18.0,10.0
2911.0,2771.0,2863.0,3153.0,3051.0,0.835266,0.54895,0.029175,0.006592,1.0,0.0,0.0,-435.0,7920.0,1979.0,-95.0,404.0,-1261.0,-156.0,1312.0,-124.0,-0.0415,0.917424,0.395516,-922.0,16040.0,3912.0,25.0,6.0,11.0
2887.0,2761.0,2849.0,3154.0,3051.0,0.834534,0.550049,0.029175,0.006592,-1.0,-1.0,0.0,-441.0,7947.0,1975.0,-101.0,423.0,-1245.0,-161.0,1305.0,-96.0,-0.041443,0.918453,0.393085,-888.0,15878.0,3940.0,-7.0,-9.0,10.0
2886.0,2773.0,2869.0,3159.0,3019.0,0.834229,0.550537,0.029175,0.006653,-1.0,-1.0,0.0,-431.0,7937.0,1982.0,-92.0,409.0,-1229.0,-152.0,1285.0,-102.0,-0.041352,0.918936,0.392039,-808.0,15794.0,4028.0,-12.0,-11.0,13.0
2882.0,2765.0,2815.0,3159.0,3051.0,0.833679,0.551392,0.029114,0.006775,-1.0,0.0,1.0,-406.0,7914.0,1988.0,-69.0,379.0,-1208.0,-128.0,1255.0,-119.0,-0.041072,0.919762,0.390187,-764.0,15726.0,3966.0,-17.0,3.0,28.0
2882.0,2767.0,2842.0,3153.0,3056.0,0.833374,0.551819,0.029053,0.006958,-1.0,0.0,1.0,-405.0,7891.0,1976.0,-71.0,353.0,-1212.0,-131.0,1249.0,-144.0,-0.040744,0.920147,0.389213,-812.0,15656.0,3868.0,-10.0,6.0,32.0
2883.0,2783.0,2843.0,3155.0,3055.0,0.832703,0.552795,0.028992,0.007263,-1.0,0.0,1.0,-398.0,7895.0,1962.0,-68.0,349.0,-1208.0,-128.0,1244.0,-143.0,-0.040253,0.92105,0.387023,-830.0,15792.0,3872.0,-6.0,7.0,37.0
2901.0,2769.0,2823.0,3153.0,3043.0,0.832397,0.553284,0.028931,0.007385,-1.0,-1.0,1.0,-406.0,7884.0,1950.0,-78.0,334.0,-1211.0,-139.0,1240.0,-156.0,-0.039991,0.921531,0.38598,-864.0,15674.0,3840.0,-6.0,-7.0,35.0
2895.0,2769.0,2835.0,3151.0,3034.0,0.831787,0.55426,0.028687,0.007568,-1.0,-1.0,1.0,-387.0,7866.0,1976.0,-64.0,308.0,-1168.0,-123.0,1192.0,-161.0,-0.039332,0.922487,0.3839,-686.0,15592.0,4036.0,-3.0,-20.0,30.0
2891.0,2763.0,2847.0,3147.0,3055.0,0.831482,0.554688,0.028503,0.007568,-1.0,-1.0,1.0,-374.0,7850.0,1996.0,-54.0,289.0,-1140.0,-112.0,1159.0,-167.0,-0.039004,0.922857,0.382929,-668.0,15588.0,4142.0,-5.0,-21.0,28.0
2891.0,2763.0,2847.0,3141.0,3055.0,0.830933,0.555481,0.028259,0.007751,-1.0,-1.0,1.0,-340.0,7810.0,1996.0,-25.0,244.0,-1126.0,-83.0,1131.0,-202.0,-0.038352,0.923573,0.381151,-554.0,15466.0,3976.0,-11.0,-11.0,28.0
2879.0,2773.0,2843.0,3151.0,3039.0,0.830688,0.555908,0.028198,0.007874,-1.0,-1.0,1.0,-319.0,7778.0,1988.0,-6.0,208.0,-1127.0,-64.0,1119.0,-236.0,-0.038094,0.924017,0.380276,-506.0,15344.0,3916.0,-3.0,0.0,28.0
2894.0,2771.0,2831.0,3151.0,3051.0,0.829956,0.556946,0.028076,0.008118,1.0,0.0,1.0,-316.0,7766.0,1957.0,-8.0,188.0,-1138.0,-67.0,1122.0,-255.0,-0.037562,0.924937,0.377916,-644.0,15694.0,3930.0,29.0,2.0,23.0
2895.0,2775.0,2847.0,3139.0,3039.0,0.82959,0.557495,0.028076,0.008179,0.0,-1.0,0.0,-327.0,7807.0,1960.0,-20.0,225.0,-1125.0,-78.0,1124.0,-214.0,-0.037464,0.925444,0.376697,-716.0,15852.0,3954.0,11.0,-9.0,13.0
2883.0,2771.0,2839.0,3151.0,3043.0,0.829102,0.558289,0.027954,0.007996,-2.0,-2.0,-1.0,-318.0,7831.0,1965.0,-11.0,243.0,-1107.0,-67.0,1115.0,-189.0,-0.037426,0.926203,0.375006,-520.0,15588.0,4006.0,-30.0,-23.0,-12.0
2891.0,2767.0,2844.0,3159.0,3031.0,0.828918,0.558533,0.027893,0.007935,-2.0,-1.0,-1.0,-293.0,7801.0,1968.0,13.0,211.0,-1099.0,-43.0,1097.0,-216.0,-0.037379,0.926399,0.374432,-416.0,15408.0,3954.0,-29.0,-16.0,-9.0
2895.0,2769.0,2821.0,3151.0,3043.0,0.828369,0.559387,0.027893,0.007996,0.0,0.0,0.0,-246.0,7736.0,1967.0,59.0,140.0,-1085.0,1.0,1060.0,-276.0,-0.037266,0.927204,0.372567,-392.0,15362.0,3940.0,20.0,19.0,5.0
2887.0,2767.0,2834.0,3135.0,3059.0,0.827942,0.559937,0.027954,0.008179,1.0,1.0,0.0,-248.0,7744.0,1950.0,56.0,144.0,-1091.0,-2.0,1067.0,-273.0,-0.03713,0.927647,0.371244,-546.0,15590.0,3754.0,37.0,28.0,8.0
2879.0,2767.0,2833.0,3175.0,3027.0,0.827148,0.561157,0.028259,0.008301,1.0,0.0,-1.0,-288.0,7797.0,1914.0,18.0,188.0,-1105.0,-40.0,1095.0,-233.0,-0.037433,0.92879,0.368547,-718.0,15804.0,3800.0,27.0,21.0,-10.0
2893.0,2768.0,2831.0,3139.0,3054.0,0.826782,0.561646,0.028381,0.00824,0.0,0.0,-1.0,-312.0,7838.0,1915.0,-3.0,226.0,-1094.0,-60.0,1098.0,-191.0,-0.037675,0.929185,0.367386,-756.0,15940.0,3848.0,14.0,7.0,-18.0
2879.0,2767.0,2847.0,3151.0,3039.0,0.826294,0.562439,0.028564,0.007996,-2.0,-1.0,-1.0,-322.0,7873.0,1934.0,-8.0,254.0,-1061.0,-62.0,1078.0,-151.0,-0.038211,0.929937,0.365672,-620.0,15678.0,4014.0,-24.0,-3.0,-22.0
2897.0,2783.0,2853.0,3141.0,3055.0,0.82605,0.562744,0.028625,0.007935,-1.0,0.0,-1.0,-316.0,7844.0,1951.0,-1.0,224.0,-1038.0,-55.0,1046.0,-170.0,-0.038362,0.930164,0.364921,-600.0,15482.0,3964.0,-12.0,5.0,-15.0
2903.0,2787.0,2835.0,3159.0,3011.0,0.825439,0.563599,0.028809,0.008057,0.0,1.0,0.0,-304.0,7834.0,1977.0,11.0,208.0,-996.0,-41.0,1002.0,-168.0,-0.038478,0.930897,0.362942,-640.0,15734.0,4006.0,20.0,29.0,4.0
2863.0,2757.0,2810.0,3147.0,3027.0,0.825134,0.564087,0.028931,0.008179,0.0,1.0,0.0,-319.0,7861.0,1977.0,-3.0,231.0,-987.0,-54.0,1002.0,-141.0,-0.038516,0.931368,0.361882,-718.0,15874.0,3940.0,14.0,27.0,5.0
2894.0,2759.0,2813.0,3135.0,3030.0,0.824585,0.56488,0.029175,0.00824,-1.0,0.0,-1.0,-351.0,7872.0,1963.0,-33.0,236.0,-986.0,-84.0,1001.0,-133.0,-0.038805,0.932065,0.360067,-786.0,15722.0,3854.0,-2.0,7.0,-3.0
2903.0,2768.0,2826.0,3163.0,3063.0,0.82428,0.565308,0.029236,0.00824,0.0,0.0,-1.0,-354.0,7865.0,1965.0,-35.0,226.0,-976.0,-86.0,988.0,-138.0,-0.038881,0.932425,0.359078,-710.0,15726.0,3948.0,2.0,1.0,-3.0
2887.0,2768.0,2839.0,3147.0,3047.0,0.823792,0.56604,0.029297,0.00824,-1.0,0.0,0.0,-340.0,7867.0,1954.0,-20.0,223.0,-974.0,-71.0,987.0,-139.0,-0.038941,0.933081,0.357441,-668.0,15708.0,3868.0,-10.0,13.0,0.0
2877.0,2767.0,2810.0,3159.0,3055.0,0.823547,0.566345,0.02948,0.008301,-1.0,1.0,-1.0,-331.0,7863.0,1947.0,-10.0,217.0,-974.0,-62.0,985.0,-144.0,-0.039154,0.933314,0.356683,-562.0,15694.0,3872.0,-17.0,27.0,-5.0
2891.0,2768.0,2847.0,3143.0,3043.0,0.82312,0.566956,0.029785,0.008423,-1.0,0.0,-1.0,-315.0,7820.0,1970.0,8.0,169.0,-940.0,-43.0,937.0,-176.0,-0.039483,0.933847,0.355272,-236.0,15360.0,4408.0,-10.0,9.0,-7.0
2879.0,2769.0,2831.0,3153.0,3031.0,0.822815,0.567383,0.029907,0.008484,0.0,1.0,0.0,-338.0,7849.0,1951.0,-13.0,195.0,-951.0,-65.0,956.0,-154.0,-0.039589,0.93421,0.354279,-670.0,16018.0,4118.0,16.0,23.0,1.0
2881.0,2779.0,2842.0,3171.0,3047.0,0.822388,0.567993,0.030029,0.008484,-2.0,-1.0,-1.0,-382.0,7891.0,1969.0,-56.0,233.0,-921.0,-105.0,939.0,-104.0,-0.039754,0.934731,0.352876,-858.0,15720.0,4032.0,-35.0,-13.0,-2.0
2887.0,2742.0,2829.0,3154.0,3047.0,0.822205,0.568237,0.030029,0.008362,-2.0,-2.0,-1.0,-402.0,7871.0,1966.0,-75.0,212.0,-920.0,-124.0,930.0,-122.0,-0.039877,0.934917,0.352295,-910.0,15664.0,3948.0,-26.0,-25.0,-8.0
2941.0,2753.0,2815.0,3143.0,3039.0,0.821838,0.568848,0.029907,0.008118,-1.0,-2.0,-1.0,-378.0,7850.0,2002.0,-50.0,186.0,-873.0,-97.0,879.0,-130.0,-0.039922,0.935487,0.351002,-608.0,15672.0,4214.0,-9.0,-28.0,-2.0
2903.0,2773.0,2855.0,3154.0,3039.0,0.821594,0.569153,0.029846,0.008057,-1.0,-1.0,0.0,-381.0,7830.0,1999.0,-54.0,164.0,-870.0,-101.0,868.0,-149.0,-0.039872,0.935706,0.350256,-766.0,15514.0,4012.0,-2.0,-19.0,0.0
2895.0,2767.0,2847.0,3152.0,3057.0,0.821045,0.569946,0.029724,0.007874,0.0,-2.0,0.0,-378.0,7825.0,2017.0,-51.0,154.0,-837.0,-96.0,834.0,-145.0,-0.039835,0.936371,0.348454,-686.0,15742.0,4144.0,21.0,-27.0,2.0
2896.0,2757.0,2851.0,3139.0,3043.0,0.820801,0.570312,0.029602,0.007812,0.0,-2.0,0.0,-366.0,7841.0,2017.0,-40.0,167.0,-830.0,-84.0,833.0,-130.0,-0.039684,0.936688,0.347642,-634.0,15734.0,4024.0,11.0,-27.0,3.0
2887.0,2773.0,2829.0,3159.0,3055.0,0.820312,0.571045,0.029419,0.007812,0.0,-1.0,0.0,-334.0,7840.0,2000.0,-11.0,161.0,-834.0,-55.0,836.0,-137.0,-0.039343,0.93733,0.346016,-574.0,15678.0,3930.0,10.0,-6.0,14.0
2894.0,2775.0,2843.0,3165.0,3051.0,0.820007,0.571472,0.029419,0.007935,0.0,0.0,0.0,-328.0,7848.0,1972.0,-7.0,166.0,-854.0,-52.0,857.0,-138.0,-0.039179,0.93769,0.345029,-670.0,15742.0,3740.0,6.0,9.0,20.0
2895.0,2774.0,2849.0,3165.0,3056.0,0.819458,0.572266,0.029358,0.008057,0.0,-1.0,0.0,-352.0,7833.0,1908.0,-33.0,145.0,-903.0,-81.0,894.0,-172.0,-0.038894,0.938368,0.343226,-842.0,15604.0,3622.0,14.0,-13.0,10.0
2873.0,2763.0,2815.0,3143.0,3045.0,0.819153,0.572754,0.029297,0.007874,0.0,-2.0,-1.0,-366.0,7836.0,1905.0,-46.0,145.0,-898.0,-94.0,889.0,-169.0,-0.038978,0.938807,0.342168,-794.0,15732.0,3824.0,22.0,-42.0,-7.0
2882.0,2763.0,2826.0,3139.0,3043.0,0.818665,0.573425,0.028931,0.007324,-1.0,-3.0,-2.0,-316.0,7832.0,1925.0,3.0,137.0,-865.0,-42.0,858.0,-166.0,-0.038969,0.93931,0.340612,-388.0,15476.0,3876.0,-4.0,-57.0,-33.0
2890.0,2773.0,2800.0,3159.0,3035.0,0.81842,0.573792,0.028809,0.00708,0.0,-2.0,-2.0,-288.0,7789.0,1926.0,31.0,91.0,-857.0,-14.0,836.0,-206.0,-0.03903,0.939613,0.339795,-438.0,15316.0,3854.0,1.0,-41.0,-31.0
2885.0,2772.0,2854.0,3159.0,3003.0,0.817871,0.574524,0.028748,0.006775,1.0,-1.0,-1.0,-253.0,7768.0,1941.0,68.0,66.0,-828.0,23.0,803.0,-220.0,-0.039239,0.940163,0.338055,-394.0,15620.0,3950.0,24.0,-8.0,-18.0
2887.0,2757.0,2815.0,3135.0,3025.0,0.817627,0.57489,0.028748,0.006775,0.0,0.0,-1.0,-245.0,7793.0,1951.0,76.0,88.0,-811.0,33.0,795.0,-193.0,-0.03922,0.940481,0.337235,-468.0,15750.0,3966.0,13.0,7.0,-13.0
2887.0,2767.0,2843.0,3142.0,3057.0,0.8172,0.5755,0.029053,0.006775,-1.0,0.0,-1.0,-292.0,7814.0,1953.0,33.0,105.0,-798.0,-8.0,787.0,-170.0,-0.039686,0.940991,0.335816,-744.0,15662.0,3946.0,0.0,21.0,-19.0
2890.0,2770.0,2843.0,3155.0,3051.0,0.816956,0.575867,0.029175,0.006714,0.0,0.0,-1.0,-322.0,7816.0,1946.0,5.0,104.0,-798.0,-36.0,785.0,-169.0,-0.039936,0.941307,0.334988,-816.0,15660.0,3882.0,11.0,10.0,-20.0
2890.0,2765.0,2832.0,3151.0,3054.0,0.816406,0.576599,0.029419,0.006409,0.0,-1.0,-2.0,-363.0,7844.0,1966.0,-30.0,128.0,-763.0,-69.0,759.0,-132.0,-0.040645,0.941855,0.333228,-882.0,15716.0,3996.0,13.0,-6.0,-26.0
2887.0,2769.0,2831.0,3147.0,3039.0,0.816162,0.576965,0.029541,0.006226,0.0,-1.0,-2.0,-390.0,7837.0,1968.0,-53.0,118.0,-755.0,-91.0,747.0,-137.0,-0.041037,0.942162,0.332398,-938.0,15636.0,3944.0,19.0,-16.0,-30.0
2890.0,2769.0,2853.0,3139.0,3050.0,0.815674,0.577637,0.029602,0.005859,0.0,-1.0,-2.0,-395.0,7857.0,1990.0,-54.0,134.0,-720.0,-90.0,720.0,-109.0,-0.041522,0.942673,0.330818,-798.0,15704.0,3982.0,6.0,-14.0,-23.0
2897.0,2768.0,2839.0,3151.0,3039.0,0.815491,0.577942,0.029663,0.005676,0.0,-1.0,-1.0,-401.0,7852.0,1980.0,-58.0,127.0,-724.0,-94.0,721.0,-116.0,-0.041819,0.942949,0.330161,-870.0,15690.0,3876.0,10.0,-9.0,-18.0
2891.0,2771.0,2831.0,3167.0,3047.0,0.81488,0.578735,0.029663,0.005493,1.0,-1.0,-1.0,-389.0,7883.0,1969.0,-45.0,153.0,-719.0,-80.0,726.0,-89.0,-0.041986,0.943526,0.328246,-720.0,15896.0,3922.0,23.0,-14.0,-3.0
2884.0,2757.0,2849.0,3147.0,3039.0,0.814636,0.579102,0.029663,0.005493,0.0,-1.0,0.0,-387.0,7900.0,1945.0,-43.0,168.0,-737.0,-78.0,748.0,-80.0,-0.041967,0.94384,0.327424,-764.0,15872.0,3704.0,16.0,-7.0,2.0
2891.0,2767.0,2832.0,3151.0,3053.0,0.814087,0.579895,0.029663,0.005371,0.0,-1.0,-1.0,-388.0,7915.0,1912.0,-43.0,177.0,-755.0,-79.0,768.0,-76.0,-0.042067,0.944489,0.325608,-768.0,15964.0,3786.0,22.0,-11.0,-1.0
2886.0,2771.0,2847.0,3155.0,3039.0,0.813843,0.580261,0.029602,0.00531,0.0,-1.0,-1.0,-383.0,7932.0,1918.0,-38.0,192.0,-742.0,-73.0,761.0,-57.0,-0.04202,0.944797,0.324789,-730.0,15924.0,3898.0,2.0,-13.0,-4.0
2896.0,2768.0,2847.0,3157.0,3039.0,0.813538,0.580688,0.029602,0.00531,-1.0,-1.0,0.0,-368.0,7863.0,1928.0,-23.0,120.0,-724.0,-59.0,721.0,-120.0,-0.041998,0.945138,0.323796,-748.0,15336.0,3814.0,-14.0,-2.0,3.0
2886.0,2765.0,2833.0,3135.0,3042.0,0.813293,0.580994,0.029602,0.00531,0.0,-1.0,0.0,-376.0,7810.0,1924.0,-32.0,65.0,-722.0,-69.0,701.0,-170.0,-0.04198,0.945351,0.323045,-810.0,15368.0,3870.0,20.0,-2.0,8.0
2892.0,2763.0,2833.0,3147.0,3039.0,0.812744,0.581726,0.029541,0.005249,0.0,-1.0,0.0,-386.0,7866.0,1966.0,-42.0,117.0,-666.0,-74.0,665.0,-101.0,-0.041912,0.945899,0.321303,-816.0,15948.0,4002.0,9.0,-7.0,0.0
2897.0,2770.0,2842.0,3153.0,3045.0,0.812622,0.58197,0.029602,0.005188,-1.0,-1.0,-1.0,-405.0,7840.0,1947.0,-60.0,89.0,-681.0,-94.0,670.0,-131.0,-0.042072,0.946151,0.320816,-982.0,15392.0,3744.0,-16.0,-11.0,-10.0
2883.0,2771.0,2847.0,3163.0,3054.0,0.812256,0.582458,0.029541,0.005005,0.0,-1.0,-1.0,-370.0,7808.0,1960.0,-24.0,54.0,-658.0,-57.0,638.0,-158.0,-0.042159,0.946506,0.319654,-658.0,15488.0,4056.0,1.0,-9.0,-1.0
2883.0,2769.0,2843.0,3151.0,3039.0,0.812073,0.582703,0.029541,0.005005,0.0,-1.0,0.0,-366.0,7806.0,1953.0,-20.0,50.0,-660.0,-54.0,639.0,-162.0,-0.042146,0.94669,0.319072,-606.0,15716.0,3970.0,9.0,0.0,4.0
2885.0,2761.0,2838.0,3147.0,3043.0,0.811646,0.583313,0.029663,0.005188,0.0,0.0,0.0,-372.0,7828.0,1926.0,-27.0,68.0,-676.0,-61.0,660.0,-149.0,-0.042099,0.947195,0.317661,-796.0,15694.0,3774.0,7.0,17.0,6.0
2891.0,2767.0,2834.0,3155.0,3051.0,0.811401,0.583618,0.029724,0.005188,0.0,0.0,0.0,-381.0,7856.0,1912.0,-35.0,94.0,-684.0,-69.0,676.0,-126.0,-0.042181,0.947406,0.316905,-782.0,15938.0,3788.0,15.0,6.0,0.0
2897.0,2768.0,2838.0,3152.0,3039.0,0.811035,0.584106,0.029724,0.005127,-1.0,-1.0,0.0,-383.0,7906.0,1927.0,-37.0,141.0,-659.0,-68.0,667.0,-72.0,-0.042225,0.947767,0.31574,-772.0,15790.0,3894.0,-19.0,-11.0,1.0
2887.0,2767.0,2827.0,3151.0,3047.0,0.810913,0.584351,0.029724,0.005066,-1.0,-1.0,0.0,-383.0,7874.0,1922.0,-36.0,107.0,-660.0,-68.0,657.0,-105.0,-0.042287,0.948016,0.315257,-758.0,15526.0,3796.0,-5.0,-14.0,3.0
2893.0,2773.0,2843.0,3151.0,3045.0,0.810486,0.5849,0.029541,0.005066,0.0,-1.0,0.0,-379.0,7893.0,1939.0,-35.0,123.0,-632.0,-65.0,636.0,-80.0,-0.041959,0.948406,0.313932,-810.0,15832.0,3848.0,3.0,-10.0,12.0
2887.0,2773.0,2847.0,3155.0,3047.0,0.810303,0.585144,0.029541,0.005005,0.0,-1.0,0.0,-405.0,7873.0,1920.0,-60.0,102.0,-646.0,-91.0,641.0,-103.0,-0.042017,0.948583,0.313349,-946.0,15622.0,3730.0,3.0,-14.0,5.0
2890.0,2773.0,2846.0,3159.0,3043.0,0.809875,0.585754,0.029358,0.004944,0.0,-1.0,0.0,-377.0,7877.0,1932.0,-34.0,102.0,-623.0,-64.0,621.0,-96.0,-0.041761,0.949067,0.311953,-620.0,15772.0,3924.0,3.0,-17.0,12.0
2883.0,2768.0,2847.0,3149.0,3047.0,0.809753,0.585938,0.029297,0.004944,-1.0,-1.0,0.0,-368.0,7870.0,1931.0,-26.0,93.0,-621.0,-56.0,617.0,-104.0,-0.041653,0.949219,0.311544,-684.0,15680.0,3882.0,-8.0,-5.0,10.0
2886.0,2767.0,2846.0,3151.0,3051.0,0.809509,0.586304,0.029297,0.005127,-1.0,0.0,0.0,-351.0,7855.0,1934.0,-11.0,76.0,-611.0,-41.0,603.0,-117.0,-0.04142,0.949537,0.310721,-650.0,15630.0,3878.0,-18.0,9.0,17.0
2885.0,2775.0,2847.0,3153.0,3055.0,0.809387,0.586487,0.029297,0.005249,-1.0,0.0,0.0,-353.0,7824.0,1923.0,-14.0,44.0,-619.0,-46.0,600.0,-149.0,-0.041268,0.949697,0.31031,-744.0,15444.0,3772.0,-12.0,17.0,20.0
2883.0,2774.0,2847.0,3165.0,3053.0,0.808899,0.587097,0.029297,0.005371,1.0,-1.0,0.0,-388.0,7839.0,1910.0,-51.0,55.0,-619.0,-82.0,602.0,-136.0,-0.04109,0.950119,0.308805,-862.0,15912.0,3854.0,28.0,-9.0,15.0
2990.0,2765.0,2833.0,3151.0,3039.0,0.808655,0.587463,0.029236,0.00531,0.0,-2.0,0.0,-387.0,7879.0,1922.0,-50.0,93.0,-600.0,-79.0,596.0,-94.0,-0.041044,0.950421,0.307983,-776.0,15950.0,3920.0,12.0,-24.0,15.0
2891.0,2768.0,2837.0,3165.0,3047.0,0.80835,0.587891,0.028992,0.005371,0.0,-1.0,0.0,-351.0,7842.0,1935.0,-18.0,53.0,-579.0,-47.0,565.0,-126.0,-0.040556,0.950754,0.307002,-624.0,15492.0,3912.0,8.0,-13.0,18.0
2897.0,2773.0,2834.0,3163.0,3056.0,0.808167,0.588196,0.02887,0.005432,0.0,-1.0,0.0,-346.0,7835.0,1943.0,-16.0,44.0,-566.0,-44.0,550.0,-130.0,-0.040273,0.951034,0.306355,-680.0,15676.0,3904.0,20.0,-4.0,20.0
2895.0,2770.0,2834.0,3151.0,3047.0,0.807861,0.588623,0.028748,0.005493,-1.0,-1.0,0.0,-358.0,7874.0,1960.0,-30.0,80.0,-541.0,-56.0,537.0,-87.0,-0.039981,0.951367,0.305367,-766.0,15818.0,3914.0,-16.0,-12.0,10.0
2891.0,2771.0,2845.0,3151.0,3039.0,0.807739,0.588745,0.028687,0.005432,-2.0,-1.0,0.0,-356.0,7846.0,1946.0,-28.0,51.0,-552.0,-55.0,539.0,-118.0,-0.039946,0.951417,0.305028,-674.0,15464.0,3798.0,-24.0,-13.0,4.0
2890.0,2767.0,2847.0,3155.0,3055.0,0.807495,0.589111,0.028625,0.005554,-1.0,0.0,0.0,-328.0,7838.0,1922.0,-2.0,41.0,-570.0,-31.0,554.0,-134.0,-0.039686,0.951727,0.304208,-624.0,15716.0,3744.0,-2.0,9.0,16.0
2885.0,2767.0,2850.0,3167.0,3047.0,0.807312,0.589355,0.028625,0.005615,0.0,0.0,0.0,-338.0,7844.0,1901.0,-13.0,45.0,-586.0,-42.0,570.0,-134.0,-0.039601,0.951909,0.303625,-740.0,15714.0,3672.0,2.0,13.0,11.0
2885.0,2779.0,2846.0,3155.0,3031.0,0.807129,0.5896,0.028687,0.005676,0.0,-1.0,0.0,-349.0,7859.0,1904.0,-24.0,59.0,-578.0,-53.0,566.0,-118.0,-0.039614,0.952091,0.303039,-730.0,15826.0,3872.0,5.0,0.0,6.0
2885.0,2768.0,2849.0,3151.0,3023.0,0.806885,0.589905,0.028625,0.005615,-1.0,-1.0,-1.0,-349.0,7865.0,1924.0,-24.0,63.0,-552.0,-51.0,543.0,-105.0,-0.03957,0.952292,0.302287,-690.0,15592.0,3888.0,-21.0,-7.0,-1.0
2886.0,2771.0,2855.0,3165.0,3056.0,0.806824,0.590027,0.028625,0.005615,-1.0,-1.0,-1.0,-343.0,7836.0,1941.0,-18.0,33.0,-533.0,-45.0,516.0,-128.0,-0.039565,0.952417,0.302045,-652.0,15510.0,3988.0,-13.0,-2.0,-2.0
2897.0,2773.0,2847.0,3159.0,3059.0,0.806519,0.590393,0.028625,0.005615,0.0,-1.0,0.0,-345.0,7825.0,1959.0,-21.0,20.0,-507.0,-47.0,487.0,-132.0,-0.039544,0.952647,0.30112,-726.0,15784.0,3960.0,5.0,-3.0,8.0
2890.0,2768.0,2843.0,3159.0,3043.0,0.806396,0.590576,0.028625,0.005615,-1.0,-1.0,0.0,-346.0,7854.0,1967.0,-22.0,48.0,-496.0,-46.0,485.0,-102.0,-0.039535,0.952799,0.300707,-708.0,15868.0,3970.0,-8.0,-2.0,3.0
2883.0,2768.0,2849.0,3155.0,3031.0,0.806274,0.590759,0.028625,0.005554,-1.0,-1.0,-1.0,-350.0,7846.0,1946.0,-25.0,39.0,-514.0,-51.0,500.0,-116.0,-0.039598,0.952946,0.300293,-642.0,15598.0,3874.0,-18.0,-10.0,-5.0
2895.0,2770.0,2835.0,3151.0,3063.0,0.806152,0.590942,0.028625,0.005493,-1.0,-1.0,-1.0,-347.0,7839.0,1944.0,-22.0,31.0,-512.0,-48.0,496.0,-123.0,-0.039661,0.953094,0.299879,-670.0,15652.0,3906.0,-6.0,-7.0,-3.0
2893.0,2775.0,2859.0,3174.0,3043.0,0.805847,0.591309,0.028625,0.005432,0.0,-1.0,0.0,-362.0,7830.0,1959.0,-36.0,20.0,-490.0,-61.0,471.0,-125.0,-0.039711,0.95332,0.298954,-728.0,15662.0,4054.0,1.0,-9.0,0.0
2894.0,2767.0,2832.0,3151.0,3055.0,0.805725,0.591492,0.028564,0.005432,0.0,-1.0,0.0,-354.0,7828.0,1961.0,-29.0,17.0,-484.0,-53.0,465.0,-127.0,-0.039604,0.95347,0.298544,-646.0,15654.0,3924.0,6.0,-10.0,3.0
2895.0,2768.0,2835.0,3143.0,3046.0,0.80542,0.591919,0.028564,0.005493,0.0,0.0,0.0,-335.0,7788.0,1943.0,-11.0,-25.0,-494.0,-37.0,462.0,-170.0,-0.03951,0.9538,0.297547,-682.0,15308.0,3822.0,11.0,10.0,11.0
2887.0,2771.0,2829.0,3151.0,3039.0,0.805176,0.592224,0.028564,0.005615,1.0,0.0,0.0,-347.0,7766.0,1935.0,-24.0,-49.0,-496.0,-51.0,457.0,-193.0,-0.039348,0.95401,0.296794,-806.0,15484.0,3846.0,44.0,14.0,14.0
2887.0,2767.0,2842.0,3167.0,3023.0,0.804688,0.592957,0.028625,0.005615,1.0,-1.0,0.0,-379.0,7827.0,1950.0,-56.0,6.0,-467.0,-80.0,444.0,-129.0,-0.03941,0.954611,0.295137,-844.0,15756.0,3934.0,30.0,-9.0,9.0
2879.0,2768.0,2839.0,3151.0,3047.0,0.804443,0.593201,0.028564,0.005554,1.0,-2.0,-1.0,-380.0,7848.0,1957.0,-57.0,27.0,-455.0,-80.0,439.0,-105.0,-0.039367,0.95471,0.294457,-764.0,15856.0,3964.0,23.0,-27.0,-2.0
2887.0,2767.0,2850.0,3155.0,3039.0,0.804199,0.593628,0.028259,0.005249,-1.0,-2.0,-1.0,-349.0,7884.0,1960.0,-27.0,59.0,-444.0,-48.0,440.0,-72.0,-0.03922,0.955087,0.293571,-560.0,15806.0,3870.0,-1.0,-39.0,-5.0
2899.0,2775.0,2847.0,3165.0,3057.0,0.804077,0.593811,0.028137,0.005127,-1.0,-2.0,-1.0,-325.0,7881.0,1943.0,-4.0,55.0,-458.0,-26.0,453.0,-81.0,-0.03916,0.955228,0.293163,-504.0,15714.0,3788.0,-3.0,-24.0,-1.0
2895.0,2767.0,2843.0,3183.0,3047.0,0.803711,0.594299,0.028076,0.00531,0.0,0.0,0.0,-293.0,7864.0,1888.0,25.0,35.0,-504.0,0.0,492.0,-114.0,-0.038819,0.955588,0.292,-538.0,15732.0,3624.0,20.0,14.0,21.0
2893.0,2767.0,2845.0,3139.0,3035.0,0.803467,0.594604,0.028076,0.005493,1.0,1.0,1.0,-300.0,7874.0,1872.0,16.0,44.0,-513.0,-9.0,503.0,-107.0,-0.038584,0.955798,0.291246,-678.0,15828.0,3620.0,28.0,25.0,26.0
2891.0,2777.0,2835.0,3151.0,3039.0,0.80304,0.595154,0.028198,0.005798,-1.0,1.0,0.0,-321.0,7896.0,1873.0,-6.0,62.0,-501.0,-30.0,496.0,-85.0,-0.038387,0.956191,0.289903,-676.0,15772.0,3872.0,-3.0,23.0,14.0
2882.0,2786.0,2843.0,3175.0,3063.0,0.802979,0.595276,0.02832,0.005859,-1.0,0.0,0.0,-342.0,7884.0,1880.0,-26.0,49.0,-492.0,-50.0,483.0,-94.0,-0.038505,0.956319,0.289653,-828.0,15672.0,3750.0,-14.0,19.0,1.0
2874.0,2771.0,2833.0,3135.0,3027.0,0.802856,0.595398,0.028381,0.005737,-2.0,-1.0,-1.0,-346.0,7844.0,1919.0,-28.0,9.0,-451.0,-51.0,432.0,-120.0,-0.03874,0.956364,0.289307,-638.0,15502.0,3986.0,-24.0,-17.0,-7.0
2894.0,2763.0,2843.0,3126.0,3043.0,0.802795,0.595459,0.02832,0.005615,-1.0,-1.0,-1.0,-329.0,7799.0,1936.0,-11.0,-35.0,-432.0,-34.0,402.0,-157.0,-0.038784,0.956382,0.289139,-558.0,15330.0,3926.0,-12.0,-22.0,-10.0
2890.0,2782.0,2833.0,3153.0,3037.0,0.802551,0.595825,0.028198,0.005432,0.0,-1.0,-1.0,-322.0,7796.0,1942.0,-4.0,-41.0,-419.0,-26.0,388.0,-159.0,-0.038788,0.956667,0.288315,-666.0,15752.0,3862.0,18.0,-18.0,-16.0
2887.0,2762.0,2863.0,3147.0,3054.0,0.802368,0.596069,0.028198,0.005249,0.0,-1.0,-1.0,-341.0,7819.0,1929.0,-21.0,-19.0,-428.0,-43.0,402.0,-140.0,-0.038993,0.95683,0.287728,-794.0,15734.0,3780.0,6.0,-21.0,-19.0
2898.0,2782.0,2817.0,3151.0,3031.0,0.802124,0.596436,0.028137,0.004822,0.0,-2.0,-1.0,-337.0,7868.0,1906.0,-14.0,27.0,-444.0,-35.0,431.0,-100.0,-0.039387,0.957102,0.286899,-572.0,16004.0,3792.0,1.0,-29.0,-22.0
2875.0,2753.0,2835.0,3143.0,3035.0,0.802002,0.596558,0.028137,0.0047,-1.0,-1.0,-1.0,-321.0,7887.0,1897.0,2.0,46.0,-450.0,-19.0,443.0,-85.0,-0.039525,0.957145,0.286557,-536.0,15842.0,3718.0,-16.0,-13.0,-22.0
2875.0,2765.0,2847.0,3155.0,3055.0,0.801819,0.596802,0.02832,0.004639,-1.0,0.0,-1.0,-319.0,7847.0,1870.0,7.0,4.0,-472.0,-16.0,453.0,-131.0,-0.039879,0.957317,0.285961,-684.0,15582.0,3682.0,-3.0,20.0,-5.0
2895.0,2767.0,2847.0,3183.0,3063.0,0.801636,0.596985,0.028442,0.004761,0.0,1.0,0.0,-334.0,7838.0,1873.0,-7.0,-5.0,-465.0,-30.0,443.0,-137.0,-0.039917,0.9574,0.285443,-794.0,15648.0,3764.0,15.0,25.0,3.0
2897.0,2768.0,2857.0,3151.0,3051.0,0.801331,0.597473,0.028564,0.004761,0.0,0.0,-1.0,-366.0,7910.0,1914.0,-37.0,63.0,-415.0,-56.0,413.0,-56.0,-0.04009,0.957819,0.284363,-796.0,16038.0,3958.0,3.0,1.0,-2.0
2867.0,2755.0,2843.0,3167.0,3055.0,0.80127,0.597534,0.028564,0.0047,-1.0,-1.0,-1.0,-387.0,7914.0,1927.0,-58.0,67.0,-401.0,-76.0,400.0,-47.0,-0.040159,0.95784,0.284192,-906.0,15784.0,3924.0,-16.0,-11.0,-6.0
2865.0,2781.0,2835.0,3143.0,3039.0,0.801147,0.597717,0.028564,0.004517,-1.0,-1.0,-1.0,-405.0,7892.0,1942.0,-74.0,44.0,-382.0,-92.0,375.0,-63.0,-0.040369,0.957977,0.283776,-806.0,15762.0,3902.0,-7.0,-17.0,-2.0
2890.0,2779.0,2829.0,3159.0,3023.0,0.801086,0.597839,0.028564,0.004456,-1.0,-1.0,0.0,-389.0,7891.0,1940.0,-57.0,42.0,-382.0,-75.0,375.0,-65.0,-0.040438,0.958097,0.283532,-662.0,15768.0,3854.0,-14.0,-9.0,2.0
2863.0,2768.0,2843.0,3157.0,3027.0,0.800842,0.598083,0.028625,0.004517,0.0,0.0,0.0,-378.0,7847.0,1907.0,-46.0,-2.0,-410.0,-66.0,390.0,-116.0,-0.040446,0.9582,0.282845,-728.0,15636.0,3754.0,9.0,11.0,7.0
2887.0,2755.0,2826.0,3135.0,3059.0,0.80072,0.598267,0.028687,0.004578,0.0,0.0,0.0,-386.0,7855.0,1906.0,-54.0,4.0,-407.0,-74.0,388.0,-108.0,-0.040462,0.958351,0.282428,-838.0,15756.0,3788.0,11.0,16.0,11.0
2883.0,2773.0,2835.0,3163.0,3028.0,0.800415,0.598694,0.028748,0.004517,0.0,-1.0,0.0,-401.0,7863.0,1915.0,-68.0,9.0,-390.0,-87.0,373.0,-98.0,-0.040612,0.958667,0.281424,-758.0,15772.0,3930.0,10.0,-16.0,2.0
2909.0,2774.0,2843.0,3152.0,3071.0,0.800293,0.598816,0.028625,0.004517,0.0,-1.0,0.0,-380.0,7865.0,1929.0,-48.0,11.0,-373.0,-66.0,358.0,-92.0,-0.040408,0.958715,0.281089,-636.0,15724.0,3944.0,4.0,-20.0,4.0
2887.0,2759.0,2838.0,3159.0,3056.0,0.80011,0.59906,0.028564,0.004517,-1.0,0.0,0.0,-342.0,7841.0,1934.0,-11.0,-14.0,-363.0,-29.0,343.0,-114.0,-0.040298,0.958886,0.280507,-610.0,15564.0,3830.0,-1.0,4.0,2.0
2897.0,2778.0,2832.0,3179.0,3061.0,0.799988,0.599243,0.028564,0.004517,0.0,0.0,-1.0,-337.0,7813.0,1927.0,-6.0,-43.0,-367.0,-25.0,339.0,-143.0,-0.040289,0.959032,0.280093,-674.0,15464.0,3816.0,9.0,7.0,-3.0
2901.0,2769.0,2841.0,3153.0,3055.0,0.799744,0.599609,0.028687,0.004517,0.0,0.0,-1.0,-331.0,7816.0,1911.0,0.0,-42.0,-376.0,-20.0,348.0,-145.0,-0.040467,0.959327,0.279256,-678.0,15694.0,3720.0,9.0,7.0,-8.0
2895.0,2751.0,2832.0,3147.0,3070.0,0.799622,0.599731,0.028809,0.004456,-1.0,0.0,-1.0,-329.0,7828.0,1905.0,4.0,-31.0,-379.0,-16.0,354.0,-135.0,-0.040728,0.959373,0.278907,-654.0,15734.0,3768.0,-6.0,10.0,-19.0
2879.0,2759.0,2833.0,3135.0,3047.0,0.7995,0.599854,0.028992,0.004333,-1.0,0.0,-2.0,-329.0,7785.0,1888.0,8.0,-74.0,-393.0,-14.0,356.0,-180.0,-0.041159,0.959416,0.278554,-684.0,15318.0,3728.0,-8.0,4.0,-24.0
2883.0,2759.0,2829.0,3159.0,3051.0,0.799377,0.600037,0.029053,0.004211,1.0,-1.0,-2.0,-328.0,7768.0,1896.0,11.0,-92.0,-382.0,-11.0,341.0,-194.0,-0.041394,0.959556,0.278134,-642.0,15506.0,3864.0,23.0,-4.0,-23.0
2879.0,2768.0,2862.0,3167.0,3055.0,0.799072,0.600464,0.029175,0.003967,0.0,-1.0,-2.0,-327.0,7826.0,1917.0,15.0,-37.0,-353.0,-4.0,328.0,-133.0,-0.041861,0.95986,0.277124,-666.0,15750.0,3858.0,10.0,-3.0,-26.0
2902.0,2775.0,2829.0,3154.0,3041.0,0.79895,0.600647,0.029297,0.003906,0.0,0.0,-2.0,-328.0,7821.0,1908.0,17.0,-43.0,-358.0,-2.0,332.0,-141.0,-0.042121,0.960003,0.276702,-650.0,15590.0,3728.0,4.0,8.0,-26.0
2891.0,2768.0,2857.0,3155.0,3043.0,0.798645,0.601013,0.029602,0.003845,0.0,1.0,-1.0,-357.0,7848.0,1894.0,-7.0,-18.0,-364.0,-26.0,344.0,-117.0,-0.042661,0.96022,0.275756,-894.0,15846.0,3750.0,19.0,31.0,-22.0
2897.0,2773.0,2851.0,3143.0,3095.0,0.798462,0.601257,0.029846,0.003784,0.0,1.0,-2.0,-392.0,7883.0,1878.0,-38.0,15.0,-376.0,-57.0,363.0,-87.0,-0.043112,0.960388,0.275155,-986.0,15998.0,3698.0,16.0,24.0,-24.0
2895.0,2773.0,2837.0,3151.0,3039.0,0.798218,0.601501,0.030151,0.003662,-1.0,-1.0,-1.0,-412.0,7934.0,1884.0,-53.0,65.0,-364.0,-70.0,365.0,-35.0,-0.043729,0.960479,0.274452,-818.0,15908.0,3792.0,-16.0,0.0,-11.0
2879.0,2766.0,2799.0,3152.0,3047.0,0.798157,0.601562,0.030212,0.003662,-1.0,0.0,-1.0,-406.0,7925.0,1887.0,-47.0,56.0,-359.0,-64.0,358.0,-42.0,-0.043822,0.960504,0.274277,-740.0,15792.0,3822.0,-9.0,8.0,-3.0
2885.0,2773.0,2839.0,3165.0,3027.0,0.797974,0.601868,0.030396,0.003784,0.0,0.0,0.0,-424.0,7924.0,1888.0,-63.0,53.0,-353.0,-79.0,350.0,-42.0,-0.043954,0.960779,0.273608,-930.0,15862.0,3824.0,2.0,21.0,9.0
2893.0,2765.0,2823.0,3171.0,3043.0,0.797852,0.60199,0.030457,0.003845,-1.0,0.0,0.0,-439.0,7935.0,1892.0,-78.0,63.0,-346.0,-94.0,346.0,-30.0,-0.04397,0.960831,0.273263,-952.0,15952.0,3826.0,-2.0,12.0,9.0
2896.0,2768.0,2857.0,3153.0,3027.0,0.797729,0.602112,0.030518,0.003906,-1.0,0.0,0.0,-430.0,7918.0,1902.0,-69.0,46.0,-333.0,-85.0,329.0,-43.0,-0.043986,0.960883,0.272918,-778.0,15708.0,3790.0,-15.0,6.0,13.0
2895.0,2773.0,2843.0,3151.0,3051.0,0.797668,0.602234,0.030518,0.004028,-1.0,0.0,0.0,-420.0,7904.0,1901.0,-60.0,31.0,-332.0,-76.0,324.0,-58.0,-0.043834,0.961012,0.272674,-824.0,15744.0,3774.0,-3.0,14.0,22.0
2890.0,2767.0,2832.0,3147.0,3047.0,0.797424,0.602539,0.030579,0.004272,0.0,0.0,1.0,-439.0,7919.0,1896.0,-81.0,44.0,-331.0,-97.0,326.0,-44.0,-0.04362,0.96122,0.271915,-930.0,15940.0,3800.0,5.0,11.0,27.0
2883.0,2768.0,2843.0,3151.0,3035.0,0.797363,0.6026,0.030518,0.004395,-1.0,-1.0,0.0,-440.0,7923.0,1902.0,-84.0,48.0,-324.0,-99.0,320.0,-38.0,-0.043371,0.961251,0.271749,-882.0,15796.0,3808.0,-9.0,-4.0,22.0
2891.0,2759.0,2832.0,3159.0,3031.0,0.797363,0.602661,0.030334,0.004395,-2.0,-1.0,0.0,-400.0,7911.0,1932.0,-47.0,35.0,-293.0,-61.0,289.0,-43.0,-0.043078,0.961346,0.271687,-648.0,15722.0,3902.0,-35.0,-9.0,15.0
2895.0,2767.0,2853.0,3131.0,3047.0,0.797424,0.6026,0.030273,0.004456,-2.0,-1.0,0.0,-391.0,7859.0,1931.0,-39.0,-16.0,-296.0,-55.0,278.0,-94.0,-0.042912,0.961326,0.271862,-740.0,15374.0,3850.0,-33.0,-4.0,15.0
2891.0,2763.0,2850.0,3143.0,3055.0,0.797363,0.602661,0.03009,0.004578,-1.0,-1.0,0.0,-372.0,7802.0,1961.0,-24.0,-73.0,-264.0,-40.0,232.0,-140.0,-0.042468,0.961355,0.271703,-664.0,15592.0,4082.0,0.0,-13.0,20.0
2879.0,2757.0,2832.0,3159.0,3039.0,0.797302,0.602722,0.029968,0.004578,-1.0,-1.0,0.0,-372.0,7793.0,1960.0,-25.0,-82.0,-264.0,-41.0,230.0,-149.0,-0.042269,0.961378,0.27154,-762.0,15522.0,3908.0,-8.0,-11.0,10.0
2890.0,2766.0,2847.0,3159.0,3057.0,0.79718,0.602905,0.029846,0.004395,0.0,-2.0,-1.0,-375.0,7780.0,1942.0,-28.0,-96.0,-279.0,-45.0,240.0,-166.0,-0.042287,0.961511,0.27113,-694.0,15576.0,3878.0,1.0,-29.0,-3.0
2882.0,2763.0,2839.0,3167.0,3031.0,0.797119,0.602966,0.029785,0.004333,0.0,-2.0,-1.0,-359.0,7785.0,1943.0,-12.0,-91.0,-276.0,-29.0,239.0,-161.0,-0.042259,0.96153,0.270962,-630.0,15650.0,3898.0,2.0,-23.0,-5.0
2893.0,2779.0,2843.0,3133.0,3039.0,0.796936,0.60321,0.029724,0.004272,0.0,0.0,0.0,-347.0,7803.0,1915.0,-1.0,-75.0,-299.0,-18.0,266.0,-152.0,-0.042222,0.961694,0.270379,-726.0,15634.0,3696.0,5.0,2.0,1.0
2887.0,2770.0,2849.0,3159.0,3039.0,0.796814,0.603394,0.029724,0.004272,0.0,-1.0,0.0,-360.0,7822.0,1910.0,-14.0,-57.0,-301.0,-31.0,273.0,-135.0,-0.042213,0.961839,0.269963,-790.0,15798.0,3838.0,17.0,-10.0,4.0
2879.0,2766.0,2855.0,3167.0,3039.0,0.796631,0.603699,0.029663,0.004089,-1.0,-1.0,-1.0,-373.0,7923.0,1908.0,-26.0,41.0,-298.0,-40.0,296.0,-39.0,-0.042324,0.962093,0.269305,-750.0,16144.0,3768.0,-14.0,-18.0,-12.0
2879.0,2779.0,2864.0,3162.0,3055.0,0.796631,0.603638,0.029602,0.003967,-2.0,-1.0,-1.0,-369.0,7927.0,1886.0,-21.0,46.0,-320.0,-36.0,319.0,-41.0,-0.042374,0.961988,0.269382,-702.0,15792.0,3586.0,-44.0,-19.0,-12.0
2865.0,2767.0,2843.0,3153.0,3039.0,0.796631,0.603699,0.02948,0.003906,-1.0,-1.0,0.0,-322.0,7837.0,1902.0,24.0,-44.0,-304.0,6.0,281.0,-125.0,-0.042253,0.96208,0.269315,-582.0,15394.0,3852.0,-2.0,0.0,12.0
2877.0,2783.0,2865.0,3163.0,3063.0,0.796509,0.603821,0.029419,0.004028,1.0,0.0,0.0,-326.0,7828.0,1913.0,18.0,-53.0,-290.0,1.0,265.0,-129.0,-0.042,0.962134,0.268977,-724.0,15688.0,3930.0,26.0,11.0,19.0
2887.0,2781.0,2839.0,3154.0,3055.0,0.796326,0.604065,0.02948,0.00415,-1.0,0.0,0.0,-378.0,7872.0,1944.0,-34.0,-11.0,-254.0,-47.0,239.0,-77.0,-0.041937,0.96231,0.268388,-998.0,15712.0,3936.0,-12.0,2.0,4.0
2883.0,2763.0,2833.0,3155.0,3005.0,0.796326,0.604065,0.02948,0.004089,-1.0,-1.0,-1.0,-394.0,7850.0,1945.0,-49.0,-33.0,-253.0,-62.0,232.0,-97.0,-0.042011,0.962306,0.268388,-868.0,15560.0,3880.0,-18.0,-16.0,-4.0
2879.0,2767.0,2865.0,3166.0,3027.0,0.796204,0.604187,0.029358,0.003906,0.0,-2.0,0.0,-391.0,7827.0,1946.0,-46.0,-56.0,-249.0,-60.0,222.0,-118.0,-0.04203,0.962341,0.268052,-762.0,15688.0,3890.0,1.0,-23.0,1.0
2879.0,2765.0,2835.0,3166.0,3059.0,0.796143,0.604309,0.029297,0.003784,-1.0,-1.0,0.0,-384.0,7836.0,1948.0,-39.0,-48.0,-245.0,-52.0,221.0,-110.0,-0.042075,0.962454,0.26781,-760.0,15722.0,3890.0,-3.0,-18.0,1.0
2896.0,2768.0,2865.0,3135.0,3052.0,0.796021,0.604431,0.029175,0.003723,-1.0,-1.0,0.0,-364.0,7846.0,1941.0,-20.0,-38.0,-250.0,-33.0,229.0,-102.0,-0.041947,0.962496,0.267474,-658.0,15776.0,3880.0,-1.0,-5.0,2.0
2894.0,2768.0,2831.0,3151.0,3043.0,0.795959,0.604553,0.029175,0.003784,-1.0,0.0,0.0,-359.0,7850.0,1924.0,-16.0,-35.0,-265.0,-30.0,244.0,-103.0,-0.041868,0.962621,0.26723,-706.0,15656.0,3734.0,-4.0,1.0,4.0
2899.0,2767.0,2839.0,3151.0,3047.0,0.795776,0.604797,0.029175,0.003784,0.0,-1.0,0.0,-358.0,7861.0,1920.0,-15.0,-26.0,-264.0,-29.0,246.0,-94.0,-0.041856,0.962788,0.266643,-680.0,15862.0,3912.0,13.0,-1.0,9.0
2898.0,2774.0,2851.0,3157.0,3063.0,0.795654,0.604919,0.029175,0.003845,-1.0,-1.0,0.0,-371.0,7868.0,1914.0,-28.0,-19.0,-267.0,-42.0,250.0,-88.0,-0.041774,0.962838,0.266302,-820.0,15724.0,3784.0,0.0,-4.0,7.0
2894.0,2773.0,2833.0,3152.0,3051.0,0.795532,0.605103,0.029053,0.003723,0.0,-1.0,0.0,-364.0,7840.0,1915.0,-22.0,-48.0,-263.0,-36.0,239.0,-115.0,-0.041719,0.962973,0.265892,-628.0,15660.0,3880.0,3.0,-15.0,1.0
2899.0,2765.0,2823.0,3153.0,3047.0,0.795471,0.605225,0.028992,0.003723,0.0,-1.0,-1.0,-357.0,7834.0,1915.0,-16.0,-55.0,-261.0,-30.0,235.0,-121.0,-0.041617,0.963093,0.265651,-678.0,15668.0,3828.0,4.0,-8.0,-1.0
2895.0,2767.0,2847.0,3167.0,3055.0,0.795349,0.605347,0.028931,0.003601,-1.0,-1.0,-1.0,-345.0,7832.0,1938.0,-3.0,-57.0,-235.0,-16.0,210.0,-117.0,-0.04166,0.963132,0.265312,-642.0,15642.0,3924.0,-9.0,-11.0,-4.0
2895.0,2773.0,2851.0,3159.0,3063.0,0.795349,0.605347,0.028931,0.00354,-1.0,-1.0,-1.0,-347.0,7828.0,1938.0,-5.0,-61.0,-235.0,-18.0,209.0,-120.0,-0.041734,0.963129,0.265311,-720.0,15642.0,3874.0,-15.0,-12.0,-11.0
2891.0,2770.0,2847.0,3159.0,3031.0,0.795349,0.605347,0.028809,0.003235,-1.0,-2.0,-1.0,-346.0,7799.0,1947.0,-2.0,-90.0,-226.0,-15.0,193.0,-146.0,-0.041909,0.96311,0.265316,-640.0,15464.0,3868.0,-12.0,-40.0,-19.0
2885.0,2759.0,2831.0,3135.0,3053.0,0.795349,0.605408,0.028687,0.002991,0.0,-2.0,-1.0,-333.0,7768.0,1957.0,11.0,-122.0,-215.0,-3.0,174.0,-174.0,-0.04201,0.963193,0.265248,-616.0,15334.0,3968.0,3.0,-38.0,-18.0
2891.0,2759.0,2839.0,3153.0,3047.0,0.795044,0.605774,0.028503,0.002686,2.0,-1.0,-1.0,-326.0,7750.0,1970.0,18.0,-142.0,-195.0,4.0,150.0,-189.0,-0.042069,0.963387,0.264328,-644.0,15570.0,3970.0,48.0,-21.0,-11.0
2894.0,2769.0,2851.0,3171.0,3031.0,0.794861,0.606018,0.028503,0.002625,2.0,-1.0,-1.0,-327.0,7787.0,1972.0,18.0,-106.0,-188.0,5.0,153.0,-152.0,-0.042131,0.96355,0.26374,-656.0,15816.0,3930.0,48.0,-5.0,-9.0
2893.0,2774.0,2847.0,3151.0,3039.0,0.794495,0.606506,0.028687,0.002625,0.0,0.0,-1.0,-340.0,7841.0,1926.0,7.0,-55.0,-224.0,-5.0,201.0,-112.0,-0.042399,0.963883,0.262556,-752.0,15800.0,3722.0,18.0,22.0,-14.0
2883.0,2765.0,2830.0,3155.0,3039.0,0.794373,0.606689,0.02887,0.002563,0.0,0.0,-1.0,-363.0,7855.0,1899.0,-12.0,-42.0,-248.0,-25.0,227.0,-104.0,-0.042756,0.964023,0.262129,-866.0,15828.0,3620.0,21.0,17.0,-21.0
2890.0,2768.0,2826.0,3147.0,3035.0,0.794128,0.606995,0.029053,0.002258,0.0,-1.0,-2.0,-379.0,7902.0,1872.0,-23.0,3.0,-269.0,-36.0,259.0,-66.0,-0.043402,0.964195,0.261359,-732.0,15936.0,3610.0,10.0,-20.0,-27.0
2887.0,2775.0,2855.0,3154.0,3031.0,0.794006,0.607117,0.029053,0.002075,-1.0,-2.0,-2.0,-367.0,7917.0,1865.0,-9.0,18.0,-273.0,-21.0,267.0,-53.0,-0.043616,0.96423,0.261016,-648.0,15894.0,3666.0,0.0,-24.0,-27.0
2896.0,2771.0,2837.0,3149.0,3046.0,0.793823,0.607361,0.029053,0.001892,0.0,-1.0,-1.0,-351.0,7889.0,1857.0,8.0,-11.0,-276.0,-5.0,263.0,-82.0,-0.043827,0.964384,0.260428,-674.0,15720.0,3714.0,7.0,-2.0,-11.0
2883.0,2757.0,2835.0,3135.0,3051.0,0.793701,0.607483,0.029053,0.001892,0.0,0.0,-1.0,-352.0,7888.0,1865.0,6.0,-12.0,-265.0,-7.0,252.0,-80.0,-0.04382,0.96443,0.260086,-732.0,15774.0,3828.0,10.0,10.0,-5.0
2883.0,2768.0,2853.0,3153.0,3039.0,0.793579,0.607727,0.029236,0.001953,0.0,0.0,-1.0,-365.0,7881.0,1873.0,-4.0,-21.0,-253.0,-17.0,238.0,-85.0,-0.044028,0.964673,0.259585,-764.0,15786.0,3748.0,1.0,21.0,-5.0
2883.0,2770.0,2849.0,3151.0,3055.0,0.793518,0.607788,0.029419,0.001953,-1.0,1.0,-1.0,-376.0,7870.0,1883.0,-12.0,-32.0,-242.0,-24.0,224.0,-93.0,-0.044315,0.964697,0.259403,-822.0,15646.0,3834.0,-2.0,25.0,-7.0
2887.0,2772.0,2841.0,3143.0,3031.0,0.793396,0.60791,0.029663,0.002014,-1.0,0.0,-1.0,-386.0,7868.0,1898.0,-20.0,-35.0,-224.0,-32.0,206.0,-90.0,-0.04462,0.964746,0.259047,-844.0,15668.0,3760.0,-3.0,19.0,-6.0
2887.0,2765.0,2834.0,3127.0,3043.0,0.793335,0.607971,0.029724,0.002014,0.0,0.0,-1.0,-395.0,7855.0,1903.0,-28.0,-48.0,-217.0,-40.0,195.0,-101.0,-0.044713,0.964769,0.258872,-840.0,15656.0,3850.0,4.0,6.0,-10.0
2887.0,2768.0,2838.0,3152.0,3047.0,0.793213,0.608154,0.029785,0.00177,-1.0,-1.0,-1.0,-393.0,7888.0,1910.0,-23.0,-16.0,-207.0,-33.0,194.0,-67.0,-0.045099,0.964897,0.258451,-756.0,15836.0,3774.0,-8.0,-17.0,-17.0
2883.0,2771.0,2847.0,3165.0,3049.0,0.793213,0.608154,0.029785,0.001648,-2.0,-1.0,-2.0,-387.0,7866.0,1908.0,-16.0,-38.0,-209.0,-27.0,191.0,-89.0,-0.045248,0.96489,0.258451,-760.0,15506.0,3764.0,-24.0,-16.0,-27.0
2893.0,2768.0,2839.0,3154.0,3051.0,0.793152,0.608215,0.029846,0.001404,0.0,0.0,-1.0,-360.0,7799.0,1898.0,13.0,-105.0,-217.0,-1.0,182.0,-157.0,-0.045637,0.964898,0.258275,-614.0,15574.0,3786.0,12.0,2.0,-21.0
2883.0,2765.0,2845.0,3153.0,3038.0,0.79303,0.608337,0.029968,0.001343,0.0,0.0,-1.0,-352.0,7798.0,1899.0,23.0,-106.0,-213.0,8.0,178.0,-158.0,-0.045898,0.96494,0.257926,-686.0,15584.0,3796.0,9.0,17.0,-19.0
2887.0,2767.0,2842.0,3152.0,3045.0,0.792847,0.608582,0.030273,0.001221,0.0,0.0,-2.0,-379.0,7811.0,1898.0,2.0,-95.0,-209.0,-11.0,177.0,-145.0,-0.046519,0.965098,0.257319,-822.0,15782.0,3792.0,20.0,4.0,-31.0
2883.0,2767.0,2845.0,3153.0,3047.0,0.792725,0.608704,0.030396,0.001038,0.0,-1.0,-2.0,-390.0,7834.0,1891.0,-5.0,-72.0,-214.0,-18.0,187.0,-124.0,-0.046927,0.965132,0.256969,-814.0,15804.0,3708.0,13.0,-9.0,-32.0
2891.0,2767.0,2845.0,3167.0,3055.0,0.792542,0.608948,0.030579,0.000671,0.0,-1.0,-2.0,-420.0,7857.0,1873.0,-29.0,-50.0,-227.0,-41.0,205.0,-105.0,-0.047652,0.965274,0.25637,-992.0,15770.0,3650.0,8.0,-3.0,-36.0
2881.0,2767.0,2839.0,3151.0,3049.0,0.79248,0.60907,0.030762,0.000488,0.0,-1.0,-2.0,-429.0,7877.0,1862.0,-34.0,-31.0,-236.0,-46.0,218.0,-88.0,-0.048161,0.965382,0.256113,-856.0,15908.0,3690.0,8.0,-4.0,-34.0
2887.0,2767.0,2839.0,3151.0,3045.0,0.792297,0.609253,0.030884,0.000305,-1.0,0.0,-1.0,-408.0,7899.0,1858.0,-10.0,-9.0,-235.0,-21.0,224.0,-68.0,-0.048566,0.965438,0.255592,-752.0,15778.0,3674.0,-1.0,10.0,-16.0
2893.0,2771.0,2842.0,3155.0,3047.0,0.792236,0.609375,0.031006,0.000305,0.0,1.0,-1.0,-398.0,7885.0,1860.0,1.0,-24.0,-231.0,-11.0,216.0,-82.0,-0.048756,0.965557,0.255339,-744.0,15712.0,3774.0,15.0,27.0,-4.0
2893.0,2769.0,2838.0,3155.0,3039.0,0.791931,0.609741,0.031372,0.000671,1.0,2.0,0.0,-429.0,7898.0,1880.0,-28.0,-13.0,-203.0,-38.0,191.0,-62.0,-0.04887,0.965788,0.254387,-1090.0,15790.0,3856.0,24.0,47.0,11.0
2894.0,2769.0,2835.0,3149.0,3043.0,0.791809,0.609924,0.031555,0.000732,1.0,1.0,0.0,-479.0,7908.0,1886.0,-76.0,-4.0,-194.0,-85.0,183.0,-49.0,-0.049078,0.965933,0.253959,-1240.0,15876.0,3850.0,26.0,29.0,6.0
2891.0,2783.0,2835.0,3153.0,3047.0,0.791626,0.610107,0.031677,0.000549,0.0,-2.0,-1.0,-541.0,7921.0,1918.0,-135.0,7.0,-158.0,-142.0,149.0,-26.0,-0.049483,0.965989,0.253437,-1150.0,15804.0,3928.0,4.0,-30.0,-9.0
2893.0,2771.0,2843.0,3155.0,3039.0,0.791565,0.610168,0.031616,0.000305,-1.0,-2.0,-1.0,-534.0,7906.0,1939.0,-127.0,-7.0,-135.0,-133.0,123.0,-34.0,-0.04968,0.965995,0.25327,-958.0,15732.0,4026.0,-1.0,-40.0,-11.0
2894.0,2775.0,2843.0,3157.0,3046.0,0.791565,0.610229,0.031433,0.000122,0.0,-1.0,0.0,-484.0,7855.0,1949.0,-77.0,-59.0,-125.0,-85.0,102.0,-84.0,-0.049614,0.96608,0.253207,-838.0,15548.0,3856.0,3.0,-19.0,7.0
2887.0,2769.0,2839.0,3153.0,3039.0,0.791504,0.610291,0.031372,0.000122,0.0,-1.0,0.0,-467.0,7835.0,1938.0,-61.0,-79.0,-134.0,-70.0,106.0,-107.0,-0.049513,0.966102,0.25304,-844.0,15582.0,3796.0,17.0,-2.0,16.0
2887.0,2767.0,2835.0,3151.0,3039.0,0.791199,0.610657,0.031372,0.000305,0.0,0.0,0.0,-452.0,7872.0,1899.0,-48.0,-44.0,-166.0,-57.0,147.0,-82.0,-0.04927,0.966321,0.25211,-884.0,15964.0,3666.0,19.0,10.0,18.0
2890.0,2771.0,2847.0,3158.0,3053.0,0.791138,0.610779,0.031372,0.000366,0.0,0.0,0.0,-447.0,7890.0,1876.0,-44.0,-27.0,-187.0,-54.0,172.0,-71.0,-0.049192,0.966443,0.251864,-872.0,15862.0,3628.0,4.0,8.0,11.0
2886.0,2769.0,2843.0,3155.0,3039.0,0.791016,0.610901,0.031372,0.000427,-1.0,0.0,0.0,-450.0,7885.0,1852.0,-47.0,-32.0,-208.0,-58.0,191.0,-80.0,-0.04911,0.966491,0.251522,-922.0,15686.0,3596.0,0.0,2.0,4.0
2887.0,2768.0,2839.0,3151.0,3047.0,0.790894,0.611084,0.031311,0.000366,0.0,-1.0,0.0,-432.0,7893.0,1865.0,-29.0,-25.0,-192.0,-39.0,178.0,-70.0,-0.04908,0.966628,0.251109,-760.0,15876.0,3864.0,3.0,-10.0,4.0
2887.0,2770.0,2847.0,3153.0,3039.0,0.790894,0.611084,0.031311,0.000366,-1.0,-1.0,0.0,-424.0,7890.0,1873.0,-21.0,-28.0,-184.0,-31.0,169.0,-72.0,-0.04908,0.966628,0.251109,-844.0,15746.0,3788.0,-9.0,-1.0,3.0
2891.0,2775.0,2845.0,3159.0,3043.0,0.790894,0.611084,0.031372,0.000366,-1.0,0.0,-1.0,-424.0,7874.0,1896.0,-21.0,-44.0,-161.0,-30.0,143.0,-81.0,-0.049176,0.966628,0.251105,-834.0,15640.0,3880.0,-16.0,5.0,-3.0
2891.0,2768.0,2839.0,3155.0,3045.0,0.790894,0.611084,0.031372,0.000366,-1.0,0.0,0.0,-418.0,7847.0,1902.0,-15.0,-71.0,-155.0,-25.0,131.0,-106.0,-0.049176,0.966628,0.251105,-814.0,15508.0,3806.0,-12.0,8.0,2.0
2891.0,2768.0,2835.0,3151.0,3039.0,0.79071,0.611328,0.031494,0.000549,1.0,0.0,0.0,-437.0,7832.0,1890.0,-34.0,-88.0,-162.0,-45.0,133.0,-123.0,-0.049134,0.966802,0.250509,-984.0,15814.0,3702.0,35.0,15.0,13.0
2895.0,2771.0,2845.0,3163.0,3051.0,0.790527,0.611511,0.031494,0.00061,1.0,0.0,0.0,-442.0,7845.0,1879.0,-40.0,-75.0,-168.0,-51.0,141.0,-112.0,-0.049047,0.966871,0.249996,-880.0,15712.0,3764.0,31.0,7.0,16.0
2891.0,2771.0,2843.0,3157.0,3046.0,0.790222,0.612,0.031494,0.000732,1.0,0.0,0.0,-446.0,7876.0,1876.0,-45.0,-47.0,-163.0,-54.0,144.0,-83.0,-0.048878,0.967277,0.248916,-880.0,15866.0,3796.0,37.0,7.0,17.0
2885.0,2771.0,2843.0,3153.0,3043.0,0.790039,0.612183,0.031494,0.000854,1.0,0.0,0.0,-440.0,7894.0,1893.0,-40.0,-30.0,-141.0,-48.0,127.0,-62.0,-0.048717,0.96735,0.248403,-848.0,15872.0,3902.0,28.0,9.0,21.0
2891.0,2768.0,2839.0,3151.0,3047.0,0.789856,0.612366,0.031555,0.001099,0.0,0.0,0.0,-441.0,7892.0,1889.0,-43.0,-33.0,-141.0,-51.0,126.0,-64.0,-0.048503,0.967431,0.247886,-876.0,15798.0,3772.0,10.0,20.0,19.0
2891.0,2768.0,2846.0,3163.0,3047.0,0.789795,0.612427,0.031555,0.001221,-1.0,0.0,0.0,-434.0,7890.0,1895.0,-37.0,-35.0,-134.0,-45.0,119.0,-65.0,-0.048349,0.96746,0.247715,-826.0,15752.0,3852.0,0.0,17.0,16.0
2894.0,2775.0,2845.0,3159.0,3039.0,0.789734,0.612549,0.031616,0.001404,0.0,0.0,0.0,-427.0,7872.0,1866.0,-32.0,-54.0,-161.0,-42.0,140.0,-90.0,-0.048217,0.96759,0.247466,-838.0,15726.0,3632.0,5.0,12.0,12.0
2887.0,2767.0,2839.0,3151.0,3045.0,0.789673,0.612671,0.031616,0.001465,0.0,0.0,0.0,-426.0,7872.0,1861.0,-31.0,-55.0,-164.0,-41.0,143.0,-92.0,-0.048138,0.967712,0.24722,-844.0,15780.0,3704.0,5.0,6.0,9.0
2890.0,2768.0,2835.0,3152.0,3043.0,0.789551,0.612793,0.031616,0.001465,0.0,-1.0,0.0,-420.0,7877.0,1863.0,-25.0,-50.0,-159.0,-34.0,140.0,-86.0,-0.04813,0.967755,0.246878,-804.0,15804.0,3814.0,1.0,-5.0,4.0
2894.0,2777.0,2847.0,3159.0,3039.0,0.789551,0.612854,0.031616,0.001465,-1.0,-1.0,0.0,-425.0,7864.0,1867.0,-30.0,-64.0,-154.0,-40.0,131.0,-98.0,-0.04813,0.967851,0.246803,-898.0,15646.0,3756.0,-4.0,-1.0,3.0
2893.0,2773.0,2843.0,3159.0,3047.0,0.789429,0.612976,0.031616,0.001526,0.0,0.0,0.0,-410.0,7848.0,1875.0,-16.0,-81.0,-144.0,-26.0,118.0,-113.0,-0.048047,0.967898,0.246461,-758.0,15640.0,3762.0,9.0,7.0,9.0
2895.0,2800.0,2837.0,3151.0,3047.0,0.789368,0.613037,0.031616,0.001587,0.0,0.0,0.0,-408.0,7839.0,1873.0,-15.0,-90.0,-144.0,-25.0,116.0,-121.0,-0.047968,0.967924,0.24629,-832.0,15642.0,3694.0,16.0,14.0,13.0
2891.0,2771.0,2843.0,3157.0,3047.0,0.789062,0.613403,0.031616,0.00177,1.0,0.0,0.0,-430.0,7857.0,1854.0,-39.0,-73.0,-155.0,-49.0,130.0,-106.0,-0.047723,0.968139,0.24536,-928.0,15890.0,3662.0,32.0,5.0,17.0
2891.0,2775.0,2839.0,3153.0,3043.0,0.78894,0.613586,0.031616,0.00177,0.0,-1.0,0.0,-440.0,7897.0,1848.0,-49.0,-35.0,-158.0,-58.0,142.0,-70.0,-0.047714,0.968278,0.244942,-928.0,16046.0,3656.0,18.0,-7.0,12.0
2891.0,2759.0,2849.0,3166.0,3051.0,0.78894,0.613586,0.031555,0.001709,-1.0,-1.0,-1.0,-431.0,7900.0,1836.0,-40.0,-32.0,-170.0,-49.0,155.0,-70.0,-0.047693,0.968274,0.244946,-804.0,15632.0,3592.0,-17.0,-5.0,-3.0
2883.0,2768.0,2847.0,3151.0,3055.0,0.788879,0.613647,0.031555,0.001709,-1.0,0.0,0.0,-419.0,7869.0,1834.0,-28.0,-63.0,-171.0,-39.0,148.0,-101.0,-0.047689,0.968296,0.244775,-778.0,15572.0,3648.0,-7.0,1.0,1.0
2885.0,2769.0,2838.0,3151.0,3043.0,0.788818,0.613708,0.031555,0.001892,0.0,0.0,0.0,-397.0,7862.0,1862.0,-8.0,-70.0,-141.0,-17.0,118.0,-101.0,-0.04746,0.968328,0.244604,-748.0,15754.0,3808.0,5.0,18.0,16.0
2887.0,2797.0,2850.0,3153.0,3039.0,0.788757,0.61377,0.031616,0.002014,0.0,0.0,0.0,-405.0,7857.0,1869.0,-16.0,-75.0,-133.0,-25.0,109.0,-104.0,-0.047403,0.968358,0.24443,-870.0,15682.0,3792.0,3.0,22.0,18.0
2893.0,2770.0,2839.0,3157.0,3051.0,0.788635,0.613953,0.031677,0.002258,0.0,0.0,0.0,-414.0,7879.0,1878.0,-27.0,-55.0,-120.0,-35.0,101.0,-81.0,-0.047191,0.968512,0.244009,-842.0,15812.0,3748.0,9.0,8.0,14.0
2887.0,2769.0,2838.0,3151.0,3039.0,0.788635,0.614014,0.031677,0.002258,-1.0,-1.0,0.0,-424.0,7883.0,1874.0,-37.0,-51.0,-124.0,-45.0,105.0,-77.0,-0.04719,0.968609,0.243934,-918.0,15754.0,3716.0,0.0,0.0,13.0
2891.0,2767.0,2839.0,3155.0,3039.0,0.788513,0.614075,0.031616,0.002258,0.0,-1.0,0.0,-436.0,7869.0,1850.0,-50.0,-65.0,-146.0,-59.0,123.0,-96.0,-0.047086,0.968555,0.243671,-876.0,15702.0,3644.0,1.0,-12.0,1.0
2887.0,2773.0,2837.0,3163.0,3037.0,0.788513,0.614136,0.031555,0.002197,-1.0,-1.0,-1.0,-421.0,7881.0,1850.0,-35.0,-54.0,-145.0,-44.0,125.0,-85.0,-0.047065,0.968647,0.243599,-728.0,15868.0,3716.0,0.0,-18.0,-4.0
2.0,2775.0,2832.0,3155.0,3039.0,0.769531,0.634399,-0.034973,0.063477,-1.0,0.0,-2.0,1084.0,7828.0,1520.0,-16.0,-134.0,-57.0,1.0,30.0,-143.0,0.134365,0.97194,0.192522,2214.0,15572.0,2856.0,-8.0,3.0,-24.0
2903.0,2773.0,2850.0,3152.0,3043.0,0.769592,0.634399,-0.034668,0.063416,0.0,1.0,-2.0,1134.0,7793.0,1536.0,37.0,-170.0,-42.0,59.0,11.0,-168.0,0.133822,0.972061,0.192629,2350.0,15282.0,3062.0,1.0,38.0,-28.0
2897.0,2767.0,2838.0,3153.0,3039.0,0.76947,0.63446,-0.034424,0.063599,1.0,2.0,-1.0,1140.0,7724.0,1514.0,44.0,-238.0,-62.0,75.0,18.0,-237.0,0.133678,0.972018,0.192404,2330.0,15046.0,2852.0,36.0,60.0,-18.0
2901.0,2769.0,2842.0,3147.0,3035.0,0.768982,0.635071,-0.033752,0.064331,4.0,4.0,0.0,1142.0,7695.0,1493.0,47.0,-270.0,-71.0,82.0,22.0,-269.0,0.13362,0.972373,0.191018,2106.0,15442.0,2828.0,100.0,106.0,10.0
2903.0,2779.0,2843.0,3157.0,3051.0,0.768555,0.635559,-0.033325,0.064697,4.0,3.0,0.0,1079.0,7718.0,1470.0,-14.0,-249.0,-84.0,18.0,35.0,-259.0,0.133462,0.972612,0.189816,1726.0,15584.0,2800.0,109.0,86.0,15.0
2903.0,2774.0,2835.0,3151.0,3039.0,0.767944,0.636353,-0.033203,0.064758,3.0,-3.0,0.0,957.0,7834.0,1502.0,-135.0,-137.0,-37.0,-115.0,3.0,-158.0,0.133415,0.973066,0.187885,1698.0,16062.0,3266.0,72.0,-46.0,19.0
2897.0,2773.0,2836.0,3143.0,3035.0,0.767822,0.636475,-0.033386,0.064514,1.0,-4.0,-1.0,966.0,7891.0,1546.0,-126.0,-80.0,10.0,-113.0,-31.0,-92.0,0.133393,0.973091,0.187499,2054.0,16072.0,3332.0,33.0,-73.0,-3.0
2899.0,2772.0,2842.0,3146.0,3043.0,0.767944,0.636414,-0.033386,0.063904,-2.0,-1.0,-3.0,1022.0,7911.0,1574.0,-64.0,-61.0,36.0,-53.0,-49.0,-61.0,0.132616,0.973193,0.187685,2124.0,15782.0,3076.0,-23.0,-3.0,-59.0
2897.0,2778.0,2835.0,3151.0,3046.0,0.768066,0.636292,-0.033142,0.063721,-2.0,1.0,-3.0,1037.0,7890.0,1575.0,-44.0,-82.0,34.0,-31.0,-50.0,-79.0,0.132001,0.973205,0.188021,2200.0,15660.0,3132.0,-31.0,27.0,-60.0
2901.0,2783.0,2846.0,3155.0,3053.0,0.76825,0.636108,-0.032227,0.063721,-1.0,4.0,-3.0,1042.0,7846.0,1540.0,-27.0,-127.0,-4.0,-9.0,-20.0,-127.0,0.130583,0.973273,0.188595,1860.0,15546.0,2762.0,-2.0,94.0,-61.0
2899.0,2769.0,2830.0,3141.0,3039.0,0.768188,0.636169,-0.031677,0.063721,0.0,2.0,-2.0,990.0,7826.0,1491.0,-72.0,-147.0,-52.0,-52.0,20.0,-162.0,0.129743,0.973359,0.188459,1702.0,15602.0,2736.0,16.0,56.0,-40.0
2899.0,2775.0,2838.0,3151.0,3038.0,0.768005,0.636414,-0.031799,0.063477,0.0,-3.0,1.0,971.0,7866.0,1509.0,-91.0,-108.0,-29.0,-76.0,3.0,-122.0,0.129639,0.973501,0.187828,2042.0,15784.0,3246.0,20.0,-66.0,25.0
2899.0,2775.0,2838.0,3151.0,3043.0,0.767944,0.636475,-0.032104,0.063354,1.0,-2.0,0.0,1003.0,7867.0,1534.0,-61.0,-107.0,-2.0,-45.0,-20.0,-112.0,0.129956,0.973486,0.187622,2192.0,15708.0,3126.0,28.0,-42.0,7.0
2903.0,2775.0,2846.0,3157.0,3043.0,0.767822,0.636658,-0.031982,0.063171,0.0,0.0,-2.0,1053.0,7913.0,1547.0,-8.0,-63.0,13.0,1.0,-24.0,-59.0,0.129551,0.973639,0.187186,2368.0,16126.0,3264.0,2.0,5.0,-32.0
2896.0,2768.0,2836.0,3154.0,3046.0,0.767944,0.636475,-0.031799,0.063171,-2.0,1.0,-2.0,1080.0,7916.0,1536.0,21.0,-59.0,0.0,28.0,-9.0,-54.0,0.129254,0.973537,0.187618,2262.0,15724.0,2916.0,-45.0,43.0,-44.0
2895.0,2768.0,2835.0,3143.0,3043.0,0.768188,0.636292,-0.031006,0.063232,-1.0,2.0,-2.0,1067.0,7795.0,1437.0,17.0,-181.0,-105.0,38.0,71.0,-193.0,0.128105,0.973662,0.188284,2090.0,15274.0,2572.0,-10.0,65.0,-39.0
2903.0,2779.0,2849.0,3150.0,3043.0,0.768066,0.636414,-0.030701,0.063354,0.0,2.0,-1.0,1054.0,7780.0,1395.0,7.0,-196.0,-144.0,28.0,106.0,-217.0,0.1278,0.973726,0.187975,2020.0,15576.0,2594.0,21.0,51.0,-20.0
2903.0,2775.0,2845.0,3153.0,3047.0,0.767761,0.63678,-0.030457,0.063416,1.0,0.0,0.0,1027.0,7810.0,1361.0,-17.0,-168.0,-171.0,0.0,136.0,-197.0,0.12753,0.973927,0.187063,2002.0,15574.0,2608.0,32.0,4.0,2.0
2899.0,2755.0,2835.0,3152.0,3039.0,0.767578,0.637024,-0.030518,0.063416,2.0,-1.0,0.0,1059.0,7817.0,1393.0,13.0,-162.0,-134.0,30.0,103.0,-181.0,0.127644,0.974061,0.186467,2386.0,15740.0,3088.0,53.0,-14.0,22.0
2899.0,2768.0,2835.0,3183.0,3039.0,0.767212,0.63739,-0.030273,0.063843,1.0,2.0,0.0,1037.0,7876.0,1419.0,-10.0,-104.0,-100.0,0.0,78.0,-121.0,0.127838,0.974161,0.185507,1714.0,15976.0,2850.0,41.0,58.0,1.0
2903.0,2774.0,2837.0,3155.0,3046.0,0.767151,0.637512,-0.03009,0.063904,0.0,0.0,0.0,996.0,7878.0,1455.0,-49.0,-103.0,-62.0,-36.0,39.0,-118.0,0.127647,0.97429,0.185277,1856.0,15832.0,3260.0,18.0,19.0,2.0
2902.0,2771.0,2833.0,3151.0,3043.0,0.767212,0.637451,-0.029968,0.063904,-1.0,0.0,-1.0,1001.0,7902.0,1527.0,-43.0,-79.0,7.0,-31.0,-23.0,-81.0,0.127455,0.97429,0.185456,2078.0,15960.0,3486.0,-8.0,19.0,-9.0
2897.0,2771.0,2831.0,3151.0,3055.0,0.767517,0.637085,-0.02948,0.063965,-2.0,1.0,-2.0,955.0,7849.0,1522.0,-83.0,-131.0,-5.0,-64.0,-23.0,-139.0,0.126755,0.974176,0.186428,1726.0,15522.0,2930.0,-38.0,35.0,-26.0
2903.0,2779.0,2842.0,3151.0,3049.0,0.767639,0.636963,-0.029236,0.063843,-2.0,0.0,-2.0,928.0,7823.0,1509.0,-105.0,-157.0,-21.0,-83.0,-14.0,-170.0,0.126216,0.974182,0.186769,1718.0,15434.0,2962.0,-26.0,16.0,-26.0
2899.0,2771.0,2839.0,3154.0,3045.0,0.767761,0.636841,-0.029175,0.063599,-1.0,-1.0,-1.0,949.0,7849.0,1563.0,-81.0,-131.0,30.0,-61.0,-58.0,-132.0,0.125803,0.974172,0.187085,2086.0,15944.0,3332.0,-12.0,-11.0,-16.0
2898.0,2771.0,2834.0,3165.0,3043.0,0.767944,0.636658,-0.029114,0.063538,-2.0,0.0,-2.0,953.0,7861.0,1559.0,-76.0,-119.0,22.0,-58.0,-47.0,-121.0,0.125619,0.974136,0.187595,1818.0,15686.0,2932.0,-42.0,7.0,-26.0
2898.0,2768.0,2833.0,3149.0,3039.0,0.768127,0.636475,-0.029114,0.063171,-1.0,-2.0,-1.0,961.0,7778.0,1536.0,-64.0,-201.0,-4.0,-36.0,-36.0,-204.0,0.12514,0.974109,0.188063,2182.0,15316.0,3222.0,-4.0,-36.0,-4.0
2900.0,2775.0,2839.0,3153.0,3047.0,0.768066,0.636536,-0.029236,0.063171,1.0,-1.0,0.0,1004.0,7762.0,1560.0,-22.0,-217.0,20.0,8.0,-60.0,-210.0,0.125332,0.97411,0.187884,2208.0,15492.0,3240.0,30.0,-13.0,9.0
2903.0,2775.0,2835.0,3154.0,3047.0,0.767761,0.636902,-0.028992,0.063354,2.0,1.0,-1.0,984.0,7815.0,1541.0,-41.0,-166.0,9.0,-17.0,-41.0,-165.0,0.125219,0.974304,0.186987,1844.0,15948.0,2980.0,57.0,32.0,-8.0
2902.0,2769.0,2835.0,3151.0,3039.0,0.767639,0.637085,-0.028809,0.063354,1.0,1.0,-1.0,963.0,7855.0,1528.0,-60.0,-127.0,0.0,-42.0,-26.0,-131.0,0.124954,0.974452,0.186576,1816.0,15878.0,2982.0,30.0,26.0,-14.0
2899.0,2771.0,2843.0,3151.0,3043.0,0.767517,0.637146,-0.028564,0.063293,0.0,0.0,-1.0,964.0,7871.0,1512.0,-55.0,-111.0,-14.0,-40.0,-9.0,-117.0,0.124502,0.974425,0.186318,2056.0,15792.0,3096.0,2.0,6.0,-7.0
2902.0,2774.0,2843.0,3154.0,3047.0,0.767578,0.637146,-0.028442,0.063293,-1.0,1.0,-1.0,980.0,7878.0,1507.0,-38.0,-105.0,-20.0,-24.0,-1.0,-110.0,0.124318,0.974518,0.186418,2036.0,15744.0,2988.0,-8.0,27.0,-8.0
2903.0,2775.0,2837.0,3152.0,3043.0,0.767578,0.637146,-0.028259,0.063538,0.0,0.0,0.0,957.0,7845.0,1468.0,-61.0,-138.0,-59.0,-44.0,29.0,-153.0,0.124348,0.974528,0.18646,1704.0,15532.0,2864.0,6.0,18.0,17.0
2902.0,2771.0,2839.0,3167.0,3045.0,0.767456,0.637268,-0.028259,0.063538,1.0,-1.0,0.0,914.0,7811.0,1466.0,-104.0,-172.0,-58.0,-82.0,19.0,-191.0,0.124356,0.974559,0.186117,1592.0,15462.0,2966.0,32.0,-16.0,22.0
2902.0,2771.0,2832.0,3149.0,3039.0,0.76709,0.637695,-0.028748,0.063293,2.0,-3.0,0.0,905.0,7848.0,1548.0,-117.0,-136.0,32.0,-96.0,-62.0,-141.0,0.124828,0.9747,0.184951,1906.0,15958.0,3354.0,59.0,-68.0,22.0
2901.0,2773.0,2839.0,3151.0,3039.0,0.766968,0.637817,-0.028931,0.063171,1.0,-3.0,0.0,930.0,7909.0,1563.0,-93.0,-75.0,50.0,-80.0,-68.0,-75.0,0.124961,0.974716,0.184582,2018.0,16170.0,3178.0,33.0,-46.0,9.0
2902.0,2775.0,2845.0,3153.0,3047.0,0.766968,0.637878,-0.028748,0.063049,-1.0,1.0,-2.0,970.0,7927.0,1497.0,-50.0,-58.0,-14.0,-42.0,0.0,-65.0,0.124532,0.974839,0.184499,2070.0,15804.0,2746.0,-7.0,36.0,-30.0
2899.0,2775.0,2839.0,3150.0,3039.0,0.766968,0.637878,-0.028442,0.06311,-1.0,2.0,-2.0,998.0,7894.0,1457.0,-18.0,-92.0,-54.0,-7.0,35.0,-101.0,0.124142,0.974874,0.184525,2142.0,15580.0,2660.0,-6.0,63.0,-23.0
2901.0,2769.0,2835.0,3149.0,3039.0,0.766785,0.638062,-0.027893,0.063538,1.0,1.0,0.0,962.0,7872.0,1402.0,-52.0,-114.0,-106.0,-40.0,80.0,-137.0,0.123858,0.974967,0.184095,1720.0,15946.0,2840.0,25.0,44.0,9.0
2907.0,2775.0,2842.0,3158.0,3043.0,0.766785,0.638123,-0.027832,0.063538,-1.0,-1.0,0.0,924.0,7929.0,1414.0,-89.0,-58.0,-93.0,-84.0,75.0,-84.0,0.123772,0.975068,0.184021,1652.0,16220.0,2944.0,-9.0,-10.0,17.0
2902.0,2779.0,2844.0,3155.0,3051.0,0.767151,0.637634,-0.02832,0.063171,-4.0,-3.0,-1.0,969.0,7900.0,1487.0,-46.0,-85.0,-29.0,-35.0,10.0,-93.0,0.124012,0.974745,0.185132,2250.0,15376.0,3170.0,-71.0,-55.0,-3.0
2900.0,2766.0,2839.0,3151.0,3045.0,0.767334,0.63739,-0.028442,0.06311,-2.0,-1.0,-1.0,1003.0,7834.0,1490.0,-13.0,-149.0,-31.0,5.0,2.0,-152.0,0.124101,0.974592,0.185709,2180.0,15302.0,2972.0,-39.0,-9.0,-18.0
2899.0,2773.0,2839.0,3151.0,3043.0,0.767456,0.637268,-0.028076,0.063171,-1.0,2.0,-2.0,1033.0,7830.0,1503.0,20.0,-153.0,-21.0,39.0,-5.0,-150.0,0.123609,0.974603,0.186081,2158.0,15780.0,3034.0,-11.0,53.0,-32.0
2905.0,2779.0,2843.0,3155.0,3047.0,0.767578,0.637207,-0.027588,0.063232,-1.0,3.0,-3.0,1038.0,7835.0,1489.0,30.0,-149.0,-37.0,48.0,11.0,-148.0,0.122936,0.974723,0.186381,2082.0,15608.0,2838.0,-21.0,88.0,-51.0
2903.0,2781.0,2843.0,3151.0,3046.0,0.767578,0.637146,-0.026489,0.063538,0.0,3.0,-2.0,1001.0,7746.0,1402.0,4.0,-239.0,-126.0,30.0,80.0,-255.0,0.121631,0.974753,0.186557,1774.0,15184.0,2546.0,13.0,89.0,-38.0
2898.0,2775.0,2839.0,3151.0,3045.0,0.767456,0.63739,-0.026184,0.063599,2.0,1.0,-1.0,946.0,7754.0,1398.0,-47.0,-233.0,-126.0,-21.0,78.0,-256.0,0.121265,0.975007,0.186082,1566.0,15726.0,2868.0,49.0,35.0,-6.0
2903.0,2775.0,2839.0,3151.0,3049.0,0.767273,0.637512,-0.02655,0.063416,-1.0,-3.0,1.0,921.0,7901.0,1516.0,-75.0,-85.0,-4.0,-63.0,-16.0,-92.0,0.121599,0.974924,0.185603,2066.0,16142.0,3564.0,-14.0,-64.0,23.0
2907.0,2779.0,2839.0,3155.0,3015.0,0.767456,0.637329,-0.026611,0.063354,-2.0,0.0,-2.0,973.0,7904.0,1562.0,-23.0,-82.0,37.0,-10.0,-52.0,-75.0,0.121601,0.974872,0.186106,2208.0,15740.0,3248.0,-38.0,9.0,-30.0
2903.0,2774.0,2843.0,3151.0,3046.0,0.767761,0.637024,-0.025635,0.063416,-2.0,3.0,-3.0,976.0,7838.0,1503.0,-8.0,-148.0,-29.0,10.0,1.0,-150.0,0.120157,0.974913,0.187022,1902.0,15556.0,2904.0,-29.0,86.0,-54.0
2901.0,2774.0,2839.0,3151.0,3039.0,0.767883,0.636902,-0.025085,0.063538,-2.0,4.0,-3.0,983.0,7822.0,1511.0,4.0,-164.0,-24.0,24.0,-5.0,-163.0,0.11946,0.974945,0.187409,2022.0,15530.0,3106.0,-24.0,97.0,-47.0
2903.0,2775.0,2835.0,3149.0,3047.0,0.767883,0.636841,-0.024109,0.063782,0.0,2.0,-1.0,916.0,7778.0,1456.0,-52.0,-208.0,-80.0,-28.0,37.0,-223.0,0.118263,0.974963,0.187565,1544.0,15526.0,2792.0,15.0,58.0,-21.0
2903.0,2779.0,2843.0,3155.0,3051.0,0.767822,0.636963,-0.023987,0.063782,1.0,-1.0,0.0,886.0,7793.0,1477.0,-81.0,-194.0,-57.0,-57.0,15.0,-209.0,0.118088,0.975089,0.187322,1650.0,15660.0,3204.0,23.0,-7.0,6.0
2903.0,2779.0,2839.0,3159.0,3047.0,0.767578,0.637268,-0.024292,0.06366,2.0,-2.0,0.0,901.0,7797.0,1564.0,-69.0,-191.0,35.0,-42.0,-73.0,-187.0,0.118429,0.975213,0.186528,1896.0,15648.0,3396.0,57.0,-33.0,14.0
2903.0,2771.0,2835.0,3151.0,3045.0,0.767456,0.637451,-0.024353,0.06366,2.0,-1.0,-1.0,924.0,7823.0,1592.0,-47.0,-166.0,67.0,-22.0,-98.0,-155.0,0.11854,0.975331,0.186104,1984.0,15826.0,3308.0,60.0,-1.0,-8.0
2899.0,2775.0,2837.0,3151.0,3039.0,0.767212,0.637695,-0.023743,0.063721,1.0,2.0,-2.0,918.0,7864.0,1569.0,-46.0,-127.0,49.0,-27.0,-73.0,-120.0,0.1177,0.975469,0.185455,1756.0,15854.0,2984.0,26.0,57.0,-30.0
2899.0,2775.0,2838.0,3155.0,3051.0,0.767212,0.637695,-0.023376,0.063782,0.0,3.0,-2.0,921.0,7883.0,1536.0,-39.0,-108.0,16.0,-24.0,-37.0,-106.0,0.117216,0.975513,0.18548,1872.0,15878.0,2854.0,4.0,69.0,-39.0
2899.0,2775.0,2839.0,3154.0,3047.0,0.767273,0.637634,-0.0224,0.063843,-1.0,2.0,-2.0,871.0,7887.0,1427.0,-77.0,-105.0,-94.0,-67.0,68.0,-128.0,0.11579,0.975619,0.185704,1496.0,15742.0,2498.0,-22.0,52.0,-41.0
2903.0,2777.0,2843.0,3151.0,3045.0,0.767334,0.637634,-0.022278,0.063721,-2.0,-1.0,-1.0,834.0,7890.0,1393.0,-111.0,-103.0,-128.0,-103.0,99.0,-137.0,0.11545,0.975718,0.185788,1484.0,15784.0,2636.0,-28.0,-16.0,-18.0
2901.0,2778.0,2839.0,3152.0,3053.0,0.767517,0.637451,-0.022766,0.06311,-2.0,-4.0,-1.0,878.0,7852.0,1451.0,-67.0,-140.0,-74.0,-52.0,42.0,-158.0,0.115406,0.975636,0.186203,1996.0,15510.0,3114.0,-30.0,-85.0,-2.0
2907.0,2779.0,2843.0,3163.0,3043.0,0.767578,0.63739,-0.02301,0.062866,-1.0,-3.0,-1.0,903.0,7822.0,1497.0,-42.0,-170.0,-29.0,-21.0,-4.0,-176.0,0.115465,0.9756,0.186333,1984.0,15512.0,3266.0,-2.0,-58.0,-13.0
2907.0,2779.0,2843.0,3153.0,3050.0,0.767517,0.637451,-0.023132,0.062561,0.0,-1.0,-1.0,910.0,7840.0,1555.0,-34.0,-152.0,30.0,-13.0,-58.0,-146.0,0.115268,0.975615,0.186117,1826.0,15872.0,3348.0,21.0,-19.0,-13.0
2903.0,2773.0,2838.0,3151.0,3039.0,0.767517,0.637451,-0.023071,0.0625,0.0,0.0,-2.0,932.0,7876.0,1585.0,-10.0,-116.0,60.0,7.0,-80.0,-103.0,0.115097,0.975625,0.186112,1996.0,15974.0,3254.0,10.0,21.0,-26.0
2898.0,2775.0,2838.0,3149.0,3045.0,0.767517,0.637512,-0.0224,0.062683,0.0,2.0,-1.0,893.0,7858.0,1488.0,-43.0,-135.0,-36.0,-27.0,8.0,-143.0,0.114307,0.975795,0.186088,1572.0,15686.0,2602.0,14.0,51.0,-11.0
2907.0,2779.0,2835.0,3153.0,3055.0,0.767395,0.637634,-0.022217,0.062744,1.0,0.0,-1.0,863.0,7911.0,1462.0,-71.0,-83.0,-59.0,-62.0,38.0,-100.0,0.114114,0.975847,0.185761,1570.0,16230.0,2822.0,24.0,22.0,-3.0
2897.0,2774.0,2842.0,3151.0,3039.0,0.767456,0.637634,-0.022339,0.0625,-2.0,-3.0,0.0,799.0,7974.0,1443.0,-134.0,-20.0,-79.0,-133.0,64.0,-49.0,0.113992,0.97592,0.185819,1378.0,15852.0,2826.0,-37.0,-55.0,6.0
2903.0,2775.0,2838.0,3147.0,3047.0,0.767517,0.637512,-0.022644,0.062195,-2.0,-5.0,0.0,800.0,7943.0,1476.0,-134.0,-50.0,-47.0,-128.0,28.0,-72.0,0.114059,0.975786,0.186016,1670.0,15718.0,3206.0,-31.0,-96.0,8.0
2899.0,2778.0,2839.0,3155.0,3047.0,0.767578,0.637451,-0.023438,0.061584,1.0,-4.0,0.0,861.0,7831.0,1576.0,-76.0,-161.0,51.0,-53.0,-83.0,-156.0,0.114494,0.9757,0.186076,2020.0,15512.0,3538.0,31.0,-77.0,6.0
2899.0,2774.0,2847.0,3151.0,3039.0,0.767517,0.637573,-0.023621,0.061523,1.0,-1.0,-1.0,912.0,7844.0,1621.0,-27.0,-149.0,98.0,-4.0,-124.0,-130.0,0.11471,0.97579,0.18581,2082.0,15842.0,3458.0,42.0,-12.0,-4.0
2899.0,2775.0,2843.0,3151.0,3035.0,0.767395,0.637695,-0.023254,0.061768,0.0,2.0,-1.0,913.0,7845.0,1546.0,-24.0,-149.0,26.0,-4.0,-53.0,-143.0,0.114468,0.975856,0.185514,1756.0,15564.0,2822.0,13.0,46.0,-1.0
2901.0,2771.0,2835.0,3151.0,3039.0,0.767334,0.637817,-0.023071,0.061951,1.0,1.0,0.0,891.0,7811.0,1494.0,-46.0,-184.0,-23.0,-23.0,-13.0,-189.0,0.114433,0.975979,0.185296,1624.0,15404.0,2710.0,30.0,38.0,9.0
2907.0,2781.0,2845.0,3151.0,3047.0,0.766846,0.638306,-0.023254,0.062195,2.0,-2.0,2.0,859.0,7839.0,1481.0,-83.0,-156.0,-25.0,-63.0,-8.0,-166.0,0.115064,0.976071,0.183946,1596.0,15946.0,3004.0,63.0,-27.0,48.0
2903.0,2773.0,2850.0,3127.0,3047.0,0.766663,0.638489,-0.023499,0.062134,1.0,-3.0,1.0,846.0,7897.0,1502.0,-99.0,-99.0,0.0,-85.0,-23.0,-108.0,0.115374,0.976091,0.183412,1640.0,16154.0,3146.0,39.0,-54.0,41.0
2910.0,2775.0,2838.0,3152.0,3051.0,0.766724,0.638489,-0.024109,0.061768,-2.0,-3.0,0.0,878.0,7923.0,1534.0,-71.0,-73.0,31.0,-59.0,-47.0,-73.0,0.115846,0.976111,0.183431,2022.0,15762.0,3188.0,-24.0,-62.0,1.0
2899.0,2775.0,2843.0,3146.0,3047.0,0.766846,0.638367,-0.02417,0.061646,-2.0,-1.0,-2.0,915.0,7888.0,1526.0,-33.0,-108.0,20.0,-18.0,-40.0,-105.0,0.115774,0.976078,0.183756,2030.0,15548.0,2948.0,-24.0,-18.0,-23.0
2901.0,2771.0,2839.0,3150.0,3045.0,0.767029,0.638184,-0.023926,0.061523,-1.0,1.0,-2.0,933.0,7817.0,1485.0,-10.0,-178.0,-24.0,11.0,-8.0,-179.0,0.11523,0.976066,0.184268,1828.0,15394.0,2780.0,-17.0,24.0,-28.0
2899.0,2775.0,2847.0,3159.0,3037.0,0.767029,0.638184,-0.023804,0.061523,0.0,0.0,-1.0,933.0,7780.0,1452.0,-9.0,-216.0,-57.0,15.0,16.0,-222.0,0.115043,0.976081,0.184273,1892.0,15358.0,2732.0,1.0,13.0,-17.0
2895.0,2768.0,2843.0,3151.0,3043.0,0.019043,0.003357,-0.001404,-1.348511,18709.0,-25646.0,27185.0,29480.0,12798.0,-29437.0,29553.0,12765.0,21200.0,12268.0,-24648.0,-27193.0,-0.009,0.003914,1.818831,1746.0,15438.0,2674.0,51.0,-19.0,18.0
2903.0,2774.0,2835.0,3149.0,3045.0,0.766479,0.638794,-0.024109,0.061523,3.0,-3.0,1.0,923.0,7751.0,1414.0,-23.0,-246.0,-82.0,4.0,35.0,-257.0,0.11556,0.976278,0.182637,1878.0,15548.0,2850.0,73.0,-48.0,41.0
2907.0,2709.0,2839.0,3153.0,3039.0,0.765808,0.639587,-0.024719,0.061462,3.0,-2.0,0.0,937.0,7843.0,1469.0,-17.0,-157.0,-10.0,2.0,-18.0,-157.0,0.116482,0.976564,0.180557,1974.0,16134.0,3118.0,91.0,-41.0,21.0
2899.0,2771.0,2839.0,3151.0,3045.0,0.765625,0.639771,-0.02478,0.061462,2.0,-1.0,-1.0,947.0,7919.0,1483.0,-8.0,-81.0,8.0,2.0,-22.0,-78.0,0.116588,0.976602,0.180039,1946.0,16268.0,3000.0,46.0,-5.0,-3.0
2896.0,2769.0,2833.0,3153.0,3047.0,0.765686,0.639771,-0.024353,0.061401,-2.0,1.0,-2.0,908.0,7959.0,1446.0,-41.0,-42.0,-29.0,-36.0,18.0,-50.0,0.115859,0.976736,0.180146,1704.0,15870.0,2818.0,-31.0,30.0,-37.0
2897.0,2775.0,2843.0,3153.0,3053.0,0.765808,0.639587,-0.024109,0.061279,-2.0,1.0,-2.0,896.0,7937.0,1427.0,-48.0,-63.0,-52.0,-41.0,37.0,-76.0,0.115312,0.976648,0.180564,1688.0,15690.0,2702.0,-43.0,24.0,-34.0
2899.0,2775.0,2846.0,3153.0,3051.0,0.765869,0.639526,-0.023865,0.061096,0.0,-1.0,-1.0,891.0,7831.0,1389.0,-48.0,-169.0,-91.0,-30.0,56.0,-187.0,0.1147,0.976671,0.180725,1864.0,15446.0,2732.0,13.0,-8.0,-8.0
2897.0,2775.0,2833.0,3143.0,3047.0,0.765747,0.639709,-0.023987,0.061096,1.0,-1.0,0.0,904.0,7825.0,1399.0,-37.0,-176.0,-77.0,-17.0,42.0,-190.0,0.114903,0.97678,0.180298,1868.0,15702.0,2898.0,45.0,-18.0,17.0
2897.0,2769.0,2829.0,3159.0,3043.0,0.765381,0.640137,-0.024109,0.061279,2.0,0.0,0.0,929.0,7870.0,1422.0,-16.0,-133.0,-46.0,-1.0,21.0,-140.0,0.115359,0.976942,0.179207,1866.0,15934.0,2862.0,53.0,18.0,13.0
2901.0,2774.0,2826.0,3153.0,3045.0,0.765259,0.64032,-0.023926,0.061462,1.0,2.0,-1.0,931.0,7916.0,1431.0,-13.0,-88.0,-33.0,-3.0,16.0,-93.0,0.11533,0.97708,0.178817,1844.0,16120.0,2902.0,30.0,46.0,-2.0
2903.0,2781.0,2847.0,3147.0,3051.0,0.76532,0.640198,-0.023315,0.061707,-2.0,2.0,-1.0,909.0,7921.0,1425.0,-30.0,-82.0,-42.0,-21.0,25.0,-91.0,0.114696,0.977035,0.179125,1770.0,15690.0,2788.0,-27.0,62.0,-17.0
2899.0,2769.0,2833.0,3150.0,3043.0,0.765381,0.640076,-0.02301,0.061829,-1.0,2.0,-1.0,894.0,7882.0,1419.0,-42.0,-121.0,-50.0,-28.0,25.0,-131.0,0.114373,0.976958,0.179404,1656.0,15530.0,2778.0,-18.0,62.0,-18.0
2902.0,2769.0,2839.0,3151.0,3043.0,0.765442,0.640076,-0.022583,0.061829,-1.0,-1.0,-1.0,832.0,7902.0,1401.0,-99.0,-102.0,-69.0,-88.0,43.0,-123.0,0.113722,0.977089,0.179517,1566.0,15998.0,2818.0,-8.0,-2.0,-12.0
2899.0,2773.0,2839.0,3151.0,3047.0,0.765503,0.640015,-0.022644,0.061584,-2.0,-2.0,-1.0,829.0,7908.0,1416.0,-100.0,-96.0,-55.0,-89.0,30.0,-115.0,0.113498,0.977077,0.179656,1680.0,15796.0,2928.0,-28.0,-35.0,-10.0
2902.0,2773.0,2838.0,3151.0,3047.0,0.765686,0.639832,-0.023071,0.061279,-1.0,-3.0,0.0,867.0,7851.0,1457.0,-64.0,-152.0,-18.0,-45.0,-12.0,-159.0,0.113748,0.976993,0.180114,1828.0,15438.0,3056.0,-15.0,-49.0,11.0
2899.0,2773.0,2837.0,3152.0,3039.0,0.765625,0.639832,-0.023254,0.061218,0.0,-2.0,0.0,896.0,7824.0,1476.0,-37.0,-178.0,1.0,-14.0,-34.0,-177.0,0.113947,0.976895,0.180004,2010.0,15592.0,3100.0,20.0,-34.0,13.0
2903.0,2771.0,2841.0,3154.0,3039.0,0.765564,0.639893,-0.023071,0.061401,-1.0,2.0,-1.0,919.0,7913.0,1481.0,-14.0,-89.0,7.0,-2.0,-23.0,-87.0,0.113906,0.976924,0.179864,1676.0,16090.0,2758.0,-4.0,51.0,-17.0
2899.0,2779.0,2838.0,3151.0,3047.0,0.765625,0.639832,-0.022766,0.061401,-2.0,1.0,-1.0,898.0,7943.0,1455.0,-31.0,-60.0,-19.0,-24.0,6.0,-65.0,0.113434,0.976946,0.180049,1714.0,16072.0,2786.0,-30.0,44.0,-20.0
2899.0,2775.0,2839.0,3152.0,3055.0,0.766052,0.639404,-0.022156,0.061462,-3.0,2.0,-2.0,893.0,7943.0,1433.0,-28.0,-59.0,-52.0,-22.0,38.0,-70.0,0.112544,0.976911,0.181285,1720.0,15716.0,2676.0,-67.0,50.0,-31.0
2899.0,2773.0,2839.0,3155.0,3039.0,0.766235,0.63916,-0.021973,0.061462,-3.0,0.0,-1.0,867.0,7893.0,1402.0,-52.0,-108.0,-88.0,-42.0,64.0,-127.0,0.112241,0.976793,0.181886,1566.0,15448.0,2650.0,-61.0,20.0,-17.0
2897.0,2771.0,2839.0,3152.0,3039.0,0.766357,0.639038,-0.022095,0.06134,0.0,-2.0,0.0,867.0,7820.0,1431.0,-52.0,-181.0,-61.0,-32.0,24.0,-193.0,0.112263,0.976753,0.182208,1750.0,15528.0,2910.0,4.0,-24.0,7.0
2900.0,2774.0,2843.0,3154.0,3047.0,0.766296,0.639099,-0.022217,0.06134,1.0,-1.0,0.0,876.0,7791.0,1446.0,-45.0,-210.0,-45.0,-20.0,4.0,-218.0,0.112454,0.976753,0.182032,1662.0,15584.0,2812.0,29.0,-15.0,16.0
2899.0,2775.0,2839.0,3152.0,3047.0,0.766174,0.639282,-0.022278,0.061462,0.0,1.0,0.0,884.0,7848.0,1485.0,-39.0,-154.0,-2.0,-19.0,-27.0,-155.0,0.112721,0.976865,0.181623,1714.0,15840.0,2880.0,12.0,26.0,9.0
2902.0,2774.0,2839.0,3153.0,3046.0,0.766174,0.639221,-0.022095,0.061584,-1.0,1.0,-1.0,868.0,7862.0,1459.0,-54.0,-139.0,-29.0,-37.0,0.0,-147.0,0.112589,0.976788,0.181724,1644.0,15800.0,2770.0,-5.0,41.0,-5.0
2899.0,2772.0,2839.0,3153.0,3043.0,0.766296,0.639099,-0.021729,0.061646,-2.0,1.0,-1.0,858.0,7899.0,1446.0,-60.0,-102.0,-45.0,-49.0,22.0,-114.0,0.112096,0.9768,0.182091,1700.0,15862.0,2912.0,-31.0,35.0,-17.0
2907.0,2779.0,2839.0,3151.0,3039.0,0.766418,0.638977,-0.021484,0.061646,-2.0,0.0,-1.0,847.0,7900.0,1448.0,-68.0,-101.0,-46.0,-57.0,22.0,-114.0,0.111712,0.976799,0.182444,1610.0,15786.0,2920.0,-43.0,21.0,-22.0
2902.0,2775.0,2835.0,3157.0,3043.0,0.766663,0.638672,-0.021545,0.06134,-1.0,-2.0,0.0,837.0,7817.0,1474.0,-75.0,-183.0,-26.0,-53.0,-11.0,-191.0,0.111389,0.976648,0.183168,1674.0,15274.0,3068.0,-17.0,-45.0,1.0
2899.0,2773.0,2837.0,3151.0,3043.0,0.766663,0.638672,-0.021851,0.061218,0.0,-3.0,0.0,859.0,7766.0,1499.0,-56.0,-234.0,-1.0,-27.0,-44.0,-234.0,0.111701,0.976616,0.18314,1856.0,15210.0,3102.0,21.0,-54.0,18.0
2903.0,2772.0,2839.0,3155.0,3045.0,0.766357,0.639038,-0.022095,0.061279,1.0,0.0,0.0,895.0,7848.0,1500.0,-24.0,-153.0,7.0,-4.0,-35.0,-150.0,0.112185,0.976755,0.182201,1820.0,16104.0,2890.0,44.0,8.0,3.0
2901.0,2775.0,2845.0,3147.0,3039.0,0.766296,0.63916,-0.021973,0.06134,0.0,1.0,-1.0,887.0,7875.0,1480.0,-31.0,-127.0,-10.0,-15.0,-14.0,-129.0,0.112088,0.976877,0.181964,1694.0,15842.0,2808.0,6.0,23.0,-2.0
2903.0,2775.0,2835.0,3151.0,3039.0,0.766235,0.63916,-0.02179,0.061401,-1.0,0.0,-1.0,876.0,7885.0,1462.0,-40.0,-117.0,-28.0,-26.0,4.0,-123.0,0.111882,0.976818,0.181886,1792.0,15776.0,2912.0,-2.0,14.0,-2.0
2895.0,2773.0,2834.0,3155.0,3038.0,0.766296,0.63916,-0.021729,0.061401,-1.0,0.0,-1.0,878.0,7890.0,1447.0,-37.0,-112.0,-43.0,-24.0,20.0,-121.0,0.111792,0.976904,0.181982,1794.0,15840.0,2846.0,-9.0,14.0,-6.0
2903.0,2765.0,2837.0,3151.0,3039.0,0.766357,0.639099,-0.021606,0.061279,-1.0,-1.0,-1.0,852.0,7895.0,1402.0,-60.0,-107.0,-90.0,-50.0,65.0,-127.0,0.111444,0.976909,0.182144,1622.0,15684.0,2680.0,-19.0,-18.0,-9.0
2903.0,2775.0,2846.0,3159.0,3053.0,0.766357,0.639099,-0.02179,0.061096,-1.0,-3.0,0.0,863.0,7861.0,1409.0,-50.0,-141.0,-82.0,-36.0,52.0,-158.0,0.11149,0.976894,0.182114,1858.0,15486.0,2876.0,-11.0,-47.0,3.0
2899.0,2775.0,2839.0,3151.0,3054.0,0.766174,0.639282,-0.022156,0.061035,2.0,-2.0,1.0,894.0,7790.0,1441.0,-23.0,-212.0,-46.0,1.0,6.0,-218.0,0.111988,0.976899,0.181576,1848.0,15568.0,2994.0,57.0,-30.0,24.0
2899.0,2767.0,2847.0,3155.0,3039.0,0.76593,0.639526,-0.022339,0.061096,2.0,-1.0,1.0,906.0,7840.0,1467.0,-14.0,-163.0,-14.0,5.0,-15.0,-163.0,0.112365,0.976935,0.180889,1874.0,16084.0,3064.0,62.0,-12.0,28.0
2899.0,2767.0,2843.0,3152.0,3031.0,0.765808,0.639709,-0.022156,0.061279,0.0,1.0,-1.0,891.0,7924.0,1473.0,-29.0,-80.0,-5.0,-19.0,-10.0,-82.0,0.112336,0.977074,0.180498,1684.0,16026.0,2892.0,3.0,43.0,-7.0
2898.0,2775.0,2845.0,3155.0,3051.0,0.765869,0.639648,-0.021851,0.061401,-1.0,2.0,-1.0,868.0,7956.0,1461.0,-49.0,-48.0,-19.0,-43.0,7.0,-55.0,0.11202,0.977091,0.180698,1604.0,16064.0,2858.0,-20.0,53.0,-21.0
2901.0,2773.0,2841.0,3147.0,3047.0,0.766174,0.639282,-0.021362,0.061279,-3.0,0.0,-1.0,821.0,7941.0,1415.0,-89.0,-62.0,-72.0,-84.0,53.0,-83.0,0.111084,0.976985,0.18164,1538.0,15754.0,2714.0,-57.0,5.0,-20.0
2903.0,2768.0,2837.0,3149.0,3031.0,0.766296,0.639099,-0.021423,0.061157,-3.0,-2.0,-1.0,849.0,7917.0,1418.0,-60.0,-85.0,-73.0,-52.0,52.0,-102.0,0.111004,0.976858,0.182044,1912.0,15696.0,2854.0,-52.0,-23.0,-4.0
2895.0,2770.0,2839.0,3153.0,3038.0,0.766479,0.638916,-0.021667,0.061279,0.0,0.0,0.0,913.0,7804.0,1431.0,0.0,-197.0,-64.0,21.0,28.0,-204.0,0.11152,0.976776,0.182563,1942.0,15322.0,2926.0,12.0,10.0,21.0
2907.0,2775.0,2839.0,3121.0,3047.0,0.766296,0.639099,-0.021606,0.061462,2.0,1.0,0.0,911.0,7818.0,1450.0,-3.0,-184.0,-41.0,17.0,7.0,-187.0,0.111675,0.976823,0.182073,1806.0,15872.0,2996.0,47.0,32.0,19.0
2903.0,2771.0,2845.0,3154.0,3047.0,0.766296,0.639038,-0.021179,0.061707,-2.0,1.0,-1.0,862.0,7917.0,1474.0,-49.0,-84.0,-18.0,-39.0,0.0,-90.0,0.111325,0.976771,0.1822,1512.0,15960.0,2926.0,-34.0,42.0,-18.0
2903.0,2759.0,2842.0,3147.0,3039.0,0.766541,0.638855,-0.020935,0.061646,-3.0,1.0,-2.0,840.0,7902.0,1468.0,-68.0,-100.0,-29.0,-56.0,6.0,-110.0,0.11086,0.976835,0.182811,1570.0,15618.0,2892.0,-60.0,23.0,-24.0
2901.0,2771.0,2833.0,3143.0,3039.0,0.766785,0.63855,-0.020874,0.061401,-1.0,-1.0,-1.0,831.0,7816.0,1464.0,-73.0,-185.0,-39.0,-51.0,0.0,-195.0,0.110427,0.976697,0.183547,1664.0,15542.0,3026.0,-19.0,-21.0,-12.0
2903.0,2778.0,2837.0,3155.0,3047.0,0.766846,0.638489,-0.020935,0.061279,-1.0,-2.0,-1.0,846.0,7812.0,1493.0,-58.0,-188.0,-11.0,-35.0,-26.0,-192.0,0.11036,0.976679,0.183701,1828.0,15590.0,3148.0,-8.0,-36.0,-4.0
2903.0,2779.0,2839.0,3153.0,3047.0,0.766785,0.63855,-0.021301,0.061157,1.0,-2.0,0.0,887.0,7809.0,1539.0,-20.0,-191.0,35.0,4.0,-69.0,-182.0,0.110771,0.976655,0.183499,2020.0,15776.0,3372.0,23.0,-29.0,14.0
2897.0,2769.0,2842.0,3143.0,3039.0,0.766785,0.638611,-0.021362,0.061218,1.0,0.0,0.0,871.0,7832.0,1518.0,-37.0,-169.0,15.0,-15.0,-47.0,-166.0,0.11095,0.976738,0.183426,1556.0,15770.0,2778.0,23.0,9.0,1.0
2899.0,2775.0,2834.0,3151.0,3045.0,0.766663,0.638672,-0.02124,0.061157,0.0,-1.0,-1.0,832.0,7857.0,1493.0,-74.0,-144.0,-7.0,-56.0,-23.0,-150.0,0.110687,0.976694,0.183159,1440.0,15928.0,2878.0,17.0,-2.0,-7.0
2907.0,2779.0,2839.0,3153.0,3045.0,0.766785,0.63855,-0.02124,0.060913,-2.0,-1.0,-1.0,859.0,7932.0,1472.0,-45.0,-68.0,-31.0,-37.0,15.0,-77.0,0.110365,0.976673,0.183472,1922.0,15816.0,2798.0,-44.0,-3.0,-14.0
2903.0,2771.0,2839.0,3155.0,3039.0,0.766907,0.638428,-0.021118,0.060913,-2.0,1.0,-1.0,886.0,7880.0,1441.0,-16.0,-120.0,-64.0,-4.0,40.0,-130.0,0.110169,0.976656,0.18382,1938.0,15382.0,2670.0,-39.0,24.0,-14.0
2901.0,2775.0,2842.0,3151.0,3039.0,0.766785,0.63855,-0.020874,0.061096,1.0,0.0,0.0,855.0,7851.0,1411.0,-46.0,-150.0,-92.0,-31.0,60.0,-168.0,0.110038,0.97671,0.18351,1528.0,15924.0,2886.0,29.0,17.0,5.0
2902.0,2774.0,2842.0,3155.0,3053.0,0.766724,0.638672,-0.020935,0.061096,0.0,-2.0,0.0,834.0,7889.0,1442.0,-68.0,-113.0,-59.0,-56.0,33.0,-128.0,0.110144,0.976812,0.183258,1614.0,15970.0,3120.0,8.0,-23.0,22.0
2903.0,2778.0,2837.0,3153.0,3047.0,0.766846,0.638489,-0.021362,0.061035,-1.0,-1.0,0.0,860.0,7882.0,1518.0,-46.0,-118.0,13.0,-30.0,-36.0,-117.0,0.110704,0.976637,0.183653,1734.0,15650.0,3084.0,-11.0,-21.0,20.0
2896.0,2768.0,2842.0,3151.0,3039.0,0.766846,0.638489,-0.021423,0.061035,-1.0,-1.0,0.0,851.0,7866.0,1507.0,-56.0,-134.0,2.0,-39.0,-29.0,-136.0,0.110797,0.97663,0.183651,1652.0,15662.0,2954.0,-2.0,-14.0,9.0
2899.0,2775.0,2831.0,3147.0,3039.0,0.766907,0.638367,-0.021423,0.061035,-1.0,1.0,-1.0,876.0,7877.0,1514.0,-31.0,-122.0,7.0,-15.0,-30.0,-121.0,0.110785,0.97652,0.1839,1802.0,15692.0,2928.0,-8.0,25.0,-11.0
2903.0,2779.0,2845.0,3153.0,3045.0,0.766968,0.638367,-0.021179,0.061096,-1.0,1.0,-1.0,884.0,7863.0,1464.0,-21.0,-137.0,-43.0,-6.0,16.0,-144.0,0.110491,0.976625,0.184012,1832.0,15616.0,2608.0,-3.0,44.0,-22.0
2901.0,2774.0,2839.0,3151.0,3047.0,0.766785,0.63855,-0.020874,0.06134,0.0,1.0,0.0,884.0,7873.0,1412.0,-19.0,-128.0,-91.0,-7.0,65.0,-143.0,0.110349,0.9767,0.18354,1726.0,15876.0,2744.0,12.0,34.0,7.0
2897.0,2771.0,2846.0,3148.0,3045.0,0.766724,0.638611,-0.020813,0.061462,0.0,0.0,1.0,866.0,7891.0,1407.0,-38.0,-110.0,-95.0,-28.0,71.0,-129.0,0.110417,0.976718,0.183386,1644.0,15862.0,2846.0,8.0,10.0,23.0
2903.0,2771.0,2835.0,3147.0,3039.0,0.766663,0.638672,-0.02124,0.061523,0.0,-2.0,1.0,846.0,7883.0,1487.0,-64.0,-117.0,-13.0,-49.0,-12.0,-123.0,0.111155,0.976678,0.183204,1740.0,15870.0,3408.0,13.0,-41.0,42.0
2902.0,2775.0,2837.0,3155.0,3047.0,0.766724,0.638611,-0.021423,0.061584,0.0,-2.0,1.0,857.0,7896.0,1549.0,-56.0,-104.0,46.0,-40.0,-67.0,-99.0,0.111509,0.976637,0.183375,1760.0,15828.0,3410.0,1.0,-24.0,29.0
2907.0,2778.0,2843.0,3155.0,3051.0,0.766968,0.638306,-0.021301,0.061584,-2.0,1.0,-2.0,864.0,7884.0,1582.0,-47.0,-115.0,73.0,-29.0,-95.0,-104.0,0.111294,0.976496,0.184144,1746.0,15670.0,3134.0,-30.0,34.0,-23.0
2899.0,2773.0,2839.0,3151.0,3038.0,0.76709,0.638184,-0.021057,0.061584,-2.0,1.0,-2.0,848.0,7855.0,1552.0,-60.0,-144.0,40.0,-40.0,-68.0,-139.0,0.11091,0.976495,0.184498,1594.0,15530.0,2934.0,-32.0,39.0,-24.0
2899.0,2770.0,2837.0,3151.0,3031.0,0.767151,0.638062,-0.020752,0.061584,0.0,0.0,-1.0,837.0,7808.0,1505.0,-67.0,-190.0,-8.0,-43.0,-30.0,-194.0,0.110429,0.976423,0.18476,1686.0,15572.0,2914.0,6.0,12.0,-6.0
2901.0,2775.0,2839.0,3153.0,3043.0,0.76709,0.638123,-0.020752,0.061584,0.0,-1.0,0.0,828.0,7812.0,1472.0,-76.0,-186.0,-40.0,-54.0,1.0,-197.0,0.110434,0.976439,0.184588,1546.0,15634.0,2712.0,15.0,-5.0,10.0
2903.0,2779.0,2845.0,3155.0,3046.0,0.766846,0.638428,-0.021179,0.061523,1.0,-3.0,1.0,831.0,7840.0,1467.0,-78.0,-159.0,-38.0,-59.0,3.0,-170.0,0.111039,0.976545,0.183799,1714.0,15800.0,3052.0,34.0,-48.0,31.0
2902.0,2769.0,2838.0,3147.0,3035.0,0.766724,0.63855,-0.021423,0.061523,1.0,-3.0,1.0,855.0,7861.0,1486.0,-57.0,-138.0,-16.0,-40.0,-12.0,-144.0,0.111423,0.976546,0.183445,1888.0,15832.0,3072.0,34.0,-46.0,33.0
2899.0,2775.0,2839.0,3151.0,3039.0,0.766724,0.638611,-0.021484,0.061646,-1.0,2.0,-1.0,921.0,7900.0,1505.0,6.0,-100.0,2.0,18.0,-19.0,-96.0,0.11168,0.976627,0.18338,1892.0,15748.0,2950.0,-6.0,49.0,-20.0
2899.0,2777.0,2846.0,3151.0,3045.0,0.766724,0.63855,-0.021118,0.061707,-1.0,2.0,-2.0,899.0,7877.0,1468.0,-11.0,-123.0,-35.0,2.0,11.0,-127.0,0.111189,0.976576,0.183481,1636.0,15684.0,2730.0,-9.0,57.0,-31.0
2899.0,2775.0,2838.0,3149.0,3039.0,0.766724,0.63855,-0.020874,0.061707,-1.0,1.0,-2.0,870.0,7899.0,1455.0,-37.0,-101.0,-48.0,-26.0,26.0,-111.0,0.110815,0.976606,0.183491,1584.0,16002.0,2882.0,-11.0,31.0,-23.0
2897.0,2775.0,2839.0,3150.0,3039.0,0.767029,0.638306,-0.020691,0.061462,-3.0,-2.0,-1.0,854.0,7886.0,1427.0,-48.0,-114.0,-82.0,-37.0,57.0,-131.0,0.110205,0.976654,0.184249,1752.0,15472.0,2734.0,-53.0,-23.0,-19.0
2903.0,2779.0,2843.0,3155.0,3047.0,0.76709,0.638184,-0.020874,0.061279,-2.0,-2.0,-1.0,886.0,7846.0,1424.0,-17.0,-153.0,-87.0,-2.0,57.0,-167.0,0.110239,0.97653,0.184468,2022.0,15472.0,2920.0,-32.0,-38.0,-5.0
2901.0,2775.0,2839.0,3157.0,3045.0,0.76709,0.638184,-0.020935,0.061401,0.0,0.0,0.0,912.0,7830.0,1451.0,6.0,-169.0,-60.0,23.0,29.0,-175.0,0.110489,0.976517,0.18448,1754.0,15736.0,2994.0,18.0,17.0,6.0
2899.0,2774.0,2838.0,3151.0,3039.0,0.767029,0.638245,-0.020874,0.061462,0.0,1.0,0.0,904.0,7849.0,1473.0,-1.0,-150.0,-36.0,15.0,8.0,-153.0,0.110478,0.976538,0.184319,1796.0,15840.0,3124.0,21.0,24.0,4.0
2903.0,2779.0,2843.0,3155.0,3039.0,0.767029,0.638306,-0.020691,0.061584,0.0,1.0,-1.0,908.0,7874.0,1502.0,3.0,-126.0,-7.0,17.0,-15.0,-124.0,0.11036,0.976649,0.184264,1856.0,15878.0,3198.0,7.0,43.0,-7.0
2903.0,2775.0,2839.0,3155.0,3051.0,0.76709,0.638123,-0.019958,0.06189,-1.0,3.0,-2.0,876.0,7888.0,1494.0,-21.0,-111.0,-18.0,-8.0,-3.0,-114.0,0.109606,0.976524,0.184658,1606.0,15852.0,2916.0,-14.0,75.0,-28.0
2902.0,2771.0,2834.0,3149.0,3039.0,0.767151,0.638062,-0.019592,0.061951,-1.0,2.0,-2.0,841.0,7877.0,1479.0,-52.0,-122.0,-35.0,-38.0,8.0,-131.0,0.109117,0.976551,0.184852,1432.0,15616.0,2852.0,-20.0,60.0,-26.0
2901.0,2773.0,2839.0,3151.0,3039.0,0.767212,0.638062,-0.01947,0.061829,-1.0,-2.0,0.0,783.0,7871.0,1490.0,-108.0,-129.0,-24.0,-92.0,-6.0,-142.0,0.108776,0.976649,0.184935,1530.0,15896.0,3142.0,0.0,-34.0,18.0
2906.0,2781.0,2839.0,3153.0,3046.0,0.767273,0.638,-0.019653,0.061707,-1.0,-3.0,0.0,784.0,7897.0,1521.0,-108.0,-103.0,4.0,-94.0,-29.0,-111.0,0.108897,0.976616,0.185085,1572.0,15894.0,3230.0,-15.0,-46.0,11.0
2906.0,2778.0,2839.0,3155.0,3043.0,0.767456,0.637817,-0.019958,0.061401,-1.0,-2.0,-1.0,821.0,7864.0,1539.0,-71.0,-135.0,18.0,-53.0,-46.0,-136.0,0.10896,0.976543,0.18555,1904.0,15598.0,3190.0,-15.0,-30.0,-9.0
2900.0,2771.0,2839.0,3146.0,3043.0,0.767517,0.637695,-0.019897,0.061401,-1.0,0.0,-1.0,866.0,7842.0,1530.0,-25.0,-157.0,7.0,-5.0,-36.0,-154.0,0.108854,0.976441,0.185801,1990.0,15540.0,2942.0,-7.0,17.0,-13.0
2901.0,2774.0,2838.0,3151.0,3043.0,0.767334,0.637878,-0.019531,0.061768,1.0,2.0,0.0,887.0,7824.0,1469.0,-4.0,-175.0,-49.0,14.0,16.0,-180.0,0.108774,0.976519,0.185346,1788.0,15768.0,2830.0,29.0,55.0,5.0
2907.0,2781.0,2843.0,3157.0,3045.0,0.767273,0.637939,-0.019348,0.062012,0.0,2.0,0.0,879.0,7879.0,1459.0,-12.0,-120.0,-58.0,0.0,34.0,-129.0,0.10881,0.976548,0.185212,1660.0,16120.0,2834.0,18.0,53.0,10.0
2899.0,2779.0,2845.0,3155.0,3046.0,0.767334,0.637878,-0.019104,0.062012,-2.0,-1.0,-1.0,824.0,7916.0,1436.0,-64.0,-83.0,-82.0,-57.0,61.0,-103.0,0.10843,0.976562,0.185393,1528.0,15700.0,2858.0,-39.0,-14.0,-4.0
2899.0,2774.0,2839.0,3151.0,3045.0,0.767456,0.637756,-0.019226,0.061829,-2.0,-2.0,-1.0,830.0,7882.0,1463.0,-57.0,-117.0,-58.0,-45.0,31.0,-131.0,0.108374,0.976523,0.185709,1734.0,15544.0,3158.0,-34.0,-43.0,-1.0
2903.0,2771.0,2839.0,3152.0,3039.0,0.767639,0.637573,-0.019531,0.061646,0.0,-2.0,-1.0,847.0,7810.0,1531.0,-42.0,-189.0,5.0,-18.0,-41.0,-188.0,0.108593,0.976444,0.186189,1754.0,15548.0,3220.0,4.0,-24.0,-2.0
2903.0,2779.0,2841.0,3153.0,3047.0,0.767639,0.637573,-0.019531,0.061646,0.0,0.0,-1.0,869.0,7815.0,1553.0,-20.0,-184.0,27.0,3.0,-60.0,-176.0,0.108593,0.976444,0.186189,1844.0,15670.0,3184.0,7.0,12.0,-17.0
2903.0,2775.0,2842.0,3155.0,3051.0,0.767639,0.637573,-0.019043,0.061707,0.0,1.0,-1.0,855.0,7781.0,1500.0,-29.0,-218.0,-25.0,-4.0,-16.0,-220.0,0.107921,0.976502,0.186215,1670.0,15436.0,2856.0,12.0,38.0,-18.0
2902.0,2775.0,2839.0,3151.0,3047.0,0.767517,0.637695,-0.01886,0.061707,1.0,1.0,-1.0,832.0,7787.0,1472.0,-49.0,-212.0,-50.0,-25.0,7.0,-221.0,0.10765,0.976557,0.185879,1498.0,15660.0,2792.0,33.0,25.0,-7.0
2902.0,2774.0,2837.0,3151.0,3045.0,0.767334,0.637939,-0.01886,0.061523,-1.0,-2.0,-1.0,788.0,7942.0,1470.0,-92.0,-59.0,-47.0,-86.0,29.0,-76.0,0.10744,0.976705,0.185264,1462.0,16328.0,3058.0,-14.0,-38.0,-4.0
2899.0,2775.0,2847.0,3155.0,3051.0,0.767517,0.637756,-0.018982,0.061218,-3.0,-3.0,-1.0,769.0,7949.0,1480.0,-109.0,-51.0,-41.0,-104.0,23.0,-69.0,0.107223,0.976654,0.185737,1430.0,15836.0,3008.0,-52.0,-68.0,-18.0
2903.0,2779.0,2841.0,3159.0,3051.0,0.767761,0.637512,-0.019348,0.060303,-1.0,-4.0,-3.0,791.0,7882.0,1523.0,-82.0,-118.0,-3.0,-67.0,-23.0,-124.0,0.106597,0.976581,0.186298,1690.0,15614.0,3174.0,-12.0,-71.0,-52.0
2903.0,2775.0,2839.0,3151.0,3049.0,0.767822,0.637512,-0.019409,0.059875,-1.0,-3.0,-3.0,807.0,7880.0,1533.0,-62.0,-120.0,6.0,-47.0,-31.0,-122.0,0.106148,0.976668,0.186338,1712.0,15792.0,3084.0,-2.0,-52.0,-64.0
2905.0,2773.0,2842.0,3151.0,3037.0,0.768066,0.637329,-0.019043,0.059082,-2.0,0.0,-4.0,837.0,7894.0,1512.0,-19.0,-107.0,-18.0,-7.0,-2.0,-109.0,0.104562,0.976772,0.186866,1672.0,15800.0,2798.0,-39.0,4.0,-91.0
2901.0,2775.0,2843.0,3155.0,3047.0,0.76825,0.637146,-0.018677,0.058716,-3.0,0.0,-4.0,843.0,7889.0,1490.0,-5.0,-112.0,-44.0,5.0,22.0,-118.0,0.103518,0.976781,0.187351,1760.0,15756.0,2864.0,-59.0,8.0,-91.0
2903.0,2777.0,2839.0,3155.0,3047.0,0.768799,0.636475,-0.018188,0.058228,-5.0,0.0,-3.0,875.0,7871.0,1460.0,38.0,-128.0,-88.0,48.0,65.0,-137.0,0.102087,0.976524,0.189011,1856.0,15412.0,2794.0,-98.0,16.0,-58.0
2899.0,2759.0,2833.0,3151.0,3041.0,0.769043,0.63623,-0.018066,0.058167,-3.0,0.0,-2.0,879.0,7796.0,1434.0,45.0,-203.0,-119.0,61.0,82.0,-216.0,0.101802,0.976475,0.189695,1740.0,15138.0,2770.0,-61.0,16.0,-25.0
2897.0,2775.0,2838.0,3151.0,3043.0,0.768921,0.636353,-0.018188,0.05835,2.0,-1.0,1.0,832.0,7771.0,1470.0,-5.0,-228.0,-81.0,17.0,37.0,-238.0,0.102233,0.976487,0.189369,1542.0,15794.0,3228.0,50.0,-13.0,33.0
2899.0,2777.0,2845.0,3155.0,3045.0,0.768738,0.636536,-0.01825,0.05835,2.0,-1.0,0.0,836.0,7836.0,1531.0,-2.0,-163.0,-16.0,15.0,-14.0,-162.0,0.102341,0.976528,0.188852,1704.0,16138.0,3392.0,51.0,-2.0,13.0
2902.0,2779.0,2845.0,3153.0,3055.0,0.768677,0.636597,-0.017883,0.058472,0.0,2.0,-1.0,826.0,7861.0,1539.0,-9.0,-139.0,-6.0,6.0,-20.0,-137.0,0.101939,0.976583,0.188708,1572.0,15524.0,2956.0,6.0,47.0,-17.0
2897.0,2771.0,2839.0,3155.0,3043.0,0.768616,0.636719,-0.017517,0.058594,1.0,2.0,-1.0,803.0,7873.0,1536.0,-28.0,-128.0,-8.0,-13.0,-17.0,-129.0,0.101543,0.976731,0.188486,1454.0,15884.0,3050.0,26.0,65.0,-18.0
2899.0,2805.0,2839.0,3155.0,3039.0,0.768616,0.636719,-0.016907,0.058716,-1.0,1.0,-1.0,760.0,7916.0,1516.0,-65.0,-85.0,-28.0,-56.0,7.0,-94.0,0.10076,0.976799,0.188521,1538.0,15816.0,2942.0,-17.0,26.0,-15.0
2900.0,2775.0,2845.0,3155.0,3047.0,0.768677,0.636658,-0.016846,0.058716,-1.0,0.0,-1.0,759.0,7873.0,1500.0,-65.0,-128.0,-45.0,-52.0,16.0,-140.0,0.100662,0.97679,0.188695,1492.0,15440.0,2922.0,-18.0,13.0,-4.0
2897.0,2775.0,2839.0,3155.0,3038.0,0.768494,0.636841,-0.016968,0.058777,1.0,-1.0,1.0,781.0,7839.0,1521.0,-45.0,-163.0,-20.0,-27.0,-13.0,-167.0,0.100942,0.976822,0.188183,1662.0,15746.0,3216.0,38.0,-12.0,27.0
2887.0,2775.0,2846.0,3151.0,3043.0,0.768372,0.636963,-0.017151,0.058899,1.0,-1.0,1.0,780.0,7821.0,1527.0,-50.0,-181.0,-11.0,-29.0,-25.0,-183.0,0.101389,0.976828,0.187848,1494.0,15392.0,3034.0,38.0,-8.0,33.0
2899.0,2775.0,2846.0,3151.0,3039.0,0.767944,0.637512,-0.017456,0.05896,3.0,-2.0,1.0,754.0,7865.0,1576.0,-81.0,-139.0,48.0,-62.0,-77.0,-135.0,0.101986,0.977089,0.186488,1626.0,16264.0,3474.0,73.0,-34.0,27.0
2901.0,2778.0,2839.0,3155.0,3039.0,0.767883,0.637573,-0.017517,0.058899,0.0,-1.0,0.0,767.0,7931.0,1602.0,-68.0,-73.0,75.0,-55.0,-91.0,-64.0,0.102007,0.9771,0.186307,1582.0,16194.0,3220.0,15.0,-7.0,0.0
2896.0,2775.0,2839.0,3147.0,3043.0,0.768005,0.637451,-0.017395,0.058838,-2.0,0.0,-1.0,768.0,7919.0,1577.0,-65.0,-85.0,47.0,-52.0,-65.0,-80.0,0.101732,0.977085,0.186648,1570.0,15642.0,2962.0,-30.0,7.0,-20.0
2897.0,2779.0,2843.0,3152.0,3045.0,0.768066,0.637329,-0.017212,0.058716,-1.0,0.0,-1.0,782.0,7851.0,1492.0,-47.0,-152.0,-38.0,-31.0,6.0,-160.0,0.101282,0.977001,0.186889,1612.0,15566.0,2764.0,-7.0,9.0,-17.0
2907.0,2778.0,2832.0,3157.0,3039.0,0.768005,0.63739,-0.017151,0.058716,0.0,-1.0,-1.0,787.0,7836.0,1454.0,-41.0,-167.0,-75.0,-25.0,40.0,-181.0,0.101194,0.977024,0.186719,1626.0,15602.0,2712.0,10.0,-6.0,-3.0
2899.0,2775.0,2854.0,3155.0,3039.0,0.767822,0.637634,-0.017151,0.058716,0.0,1.0,-1.0,844.0,7876.0,1426.0,14.0,-128.0,-98.0,23.0,74.0,-141.0,0.101216,0.977166,0.186127,1762.0,15812.0,2656.0,12.0,24.0,-7.0
2897.0,2775.0,2849.0,3151.0,3043.0,0.767761,0.637756,-0.017029,0.058777,0.0,1.0,-1.0,822.0,7866.0,1388.0,-6.0,-139.0,-134.0,3.0,106.0,-161.0,0.101119,0.977287,0.185889,1488.0,15614.0,2600.0,9.0,27.0,-6.0
2901.0,2774.0,2832.0,3153.0,3043.0,0.767578,0.638,-0.016968,0.058899,1.0,0.0,0.0,843.0,7876.0,1429.0,13.0,-131.0,-89.0,23.0,64.0,-143.0,0.101203,0.977432,0.185313,1876.0,15774.0,3096.0,23.0,11.0,8.0
2899.0,2778.0,2837.0,3153.0,3047.0,0.767517,0.638,-0.016907,0.059021,0.0,1.0,0.0,854.0,7879.0,1453.0,24.0,-127.0,-64.0,34.0,41.0,-133.0,0.101263,0.977357,0.185236,1712.0,15750.0,3034.0,15.0,39.0,6.0
2902.0,2774.0,2847.0,3135.0,3039.0,0.767456,0.638062,-0.016602,0.059265,0.0,1.0,0.0,773.0,7880.0,1479.0,-55.0,-126.0,-37.0,-42.0,9.0,-135.0,0.101112,0.977401,0.185103,1190.0,15744.0,3020.0,7.0,23.0,0.0
2897.0,2771.0,2839.0,3153.0,3045.0,0.767456,0.638062,-0.016541,0.059204,0.0,-1.0,-1.0,738.0,7870.0,1509.0,-88.0,-136.0,-7.0,-72.0,-23.0,-143.0,0.10094,0.97741,0.185098,1322.0,15696.0,3236.0,8.0,-13.0,-2.0
2903.0,2778.0,2847.0,3147.0,3039.0,0.767578,0.637939,-0.016541,0.059082,-1.0,0.0,-1.0,795.0,7875.0,1566.0,-30.0,-131.0,46.0,-12.0,-70.0,-122.0,0.100774,0.977382,0.185427,1674.0,15568.0,3070.0,-10.0,21.0,-13.0
2895.0,2773.0,2835.0,3151.0,3039.0,0.767578,0.637939,-0.016418,0.059204,0.0,1.0,0.0,776.0,7823.0,1522.0,-49.0,-183.0,2.0,-28.0,-38.0,-183.0,0.100742,0.977393,0.185445,1394.0,15352.0,2738.0,12.0,34.0,0.0
2897.0,2773.0,2843.0,3143.0,3047.0,0.767212,0.638306,-0.016235,0.059326,2.0,0.0,0.0,724.0,7858.0,1525.0,-100.0,-149.0,14.0,-81.0,-47.0,-153.0,0.100648,0.977505,0.184436,1222.0,16036.0,3120.0,54.0,11.0,10.0
2897.0,2768.0,2843.0,3155.0,3051.0,0.767151,0.638489,-0.016174,0.059265,1.0,-2.0,0.0,691.0,7909.0,1536.0,-132.0,-100.0,27.0,-118.0,-53.0,-106.0,0.100497,0.977717,0.184103,1220.0,16106.0,3144.0,28.0,-24.0,3.0
2896.0,2771.0,2835.0,3151.0,3051.0,0.767273,0.638367,-0.016357,0.058899,-1.0,-2.0,-1.0,729.0,7923.0,1538.0,-92.0,-86.0,27.0,-80.0,-48.0,-88.0,0.100299,0.977676,0.184397,1614.0,15652.0,2970.0,-22.0,-29.0,-12.0
2901.0,2770.0,2837.0,3181.0,3043.0,0.767273,0.638306,-0.016418,0.058777,-1.0,-2.0,-1.0,746.0,7888.0,1519.0,-75.0,-120.0,7.0,-60.0,-33.0,-123.0,0.10023,0.977579,0.184459,1572.0,15600.0,2942.0,-3.0,-25.0,-1.0
2903.0,2775.0,2843.0,3147.0,3039.0,0.767212,0.638367,-0.016602,0.058716,0.0,-1.0,0.0,775.0,7897.0,1526.0,-47.0,-111.0,16.0,-33.0,-38.0,-110.0,0.100438,0.977576,0.184274,1538.0,15802.0,2892.0,12.0,-9.0,7.0
2907.0,2775.0,2837.0,3141.0,3047.0,0.767151,0.638489,-0.016724,0.058716,0.0,-2.0,0.0,762.0,7888.0,1488.0,-62.0,-121.0,-19.0,-48.0,-7.0,-128.0,0.100638,0.977671,0.18402,1458.0,15784.0,2738.0,17.0,-24.0,14.0
2898.0,2775.0,2835.0,3151.0,3047.0,0.766968,0.638672,-0.01709,0.058533,0.0,-2.0,0.0,792.0,7926.0,1476.0,-35.0,-83.0,-27.0,-26.0,9.0,-89.0,0.100981,0.977681,0.183472,1712.0,15958.0,2950.0,11.0,-30.0,7.0
2896.0,2772.0,2839.0,3155.0,3039.0,0.766968,0.638733,-0.017151,0.058472,-1.0,-1.0,-1.0,792.0,7947.0,1460.0,-35.0,-62.0,-42.0,-29.0,27.0,-71.0,0.101004,0.977769,0.183385,1580.0,16020.0,2830.0,-9.0,-10.0,-7.0
2901.0,2770.0,2837.0,3153.0,3039.0,0.767151,0.63855,-0.01709,0.05835,-2.0,-1.0,-1.0,795.0,7928.0,1451.0,-30.0,-81.0,-55.0,-23.0,37.0,-92.0,0.100739,0.977734,0.183887,1622.0,15748.0,2928.0,-33.0,-3.0,-9.0
2903.0,2771.0,2835.0,3151.0,3039.0,0.767212,0.638428,-0.017029,0.058289,-2.0,0.0,-1.0,801.0,7900.0,1451.0,-22.0,-108.0,-57.0,-12.0,35.0,-118.0,0.100555,0.977634,0.184132,1652.0,15634.0,2878.0,-23.0,9.0,-15.0
2905.0,2779.0,2837.0,3151.0,3045.0,0.767273,0.638367,-0.016968,0.058289,-1.0,0.0,-1.0,819.0,7850.0,1456.0,-3.0,-158.0,-53.0,12.0,23.0,-164.0,0.100457,0.977625,0.184305,1734.0,15518.0,2998.0,-1.0,10.0,-4.0
2903.0,2773.0,2843.0,3153.0,3037.0,0.767273,0.638367,-0.016907,0.05835,0.0,0.0,0.0,827.0,7818.0,1452.0,4.0,-190.0,-57.0,22.0,22.0,-195.0,0.100441,0.97763,0.184315,1694.0,15466.0,2898.0,14.0,19.0,6.0
2899.0,2771.0,2839.0,3152.0,3043.0,0.76709,0.638611,-0.016846,0.058655,1.0,0.0,1.0,792.0,7844.0,1466.0,-33.0,-165.0,-39.0,-16.0,6.0,-171.0,0.100759,0.977768,0.18376,1422.0,15860.0,2980.0,26.0,16.0,23.0
2903.0,2779.0,2822.0,3152.0,3043.0,0.767029,0.638672,-0.016907,0.058716,0.0,-1.0,1.0,759.0,7870.0,1468.0,-67.0,-139.0,-35.0,-52.0,5.0,-149.0,0.100936,0.977774,0.183593,1344.0,15868.0,3002.0,7.0,-10.0,26.0
2899.0,2774.0,2837.0,3153.0,3045.0,0.767029,0.638611,-0.017212,0.058716,-1.0,-2.0,0.0,745.0,7894.0,1506.0,-85.0,-114.0,1.0,-71.0,-26.0,-119.0,0.101397,0.977645,0.183661,1398.0,15890.0,3208.0,-9.0,-28.0,17.0
2903.0,2770.0,2832.0,3152.0,3039.0,0.76709,0.63855,-0.017334,0.058594,-1.0,-2.0,0.0,739.0,7913.0,1529.0,-91.0,-95.0,23.0,-78.0,-45.0,-97.0,0.101424,0.977619,0.183814,1480.0,15962.0,3224.0,-16.0,-29.0,2.0
2903.0,2773.0,2835.0,3153.0,3047.0,0.767395,0.638245,-0.017456,0.058411,-2.0,-1.0,-1.0,788.0,7888.0,1554.0,-42.0,-119.0,41.0,-26.0,-64.0,-113.0,0.101352,0.977532,0.184646,1790.0,15648.0,3194.0,-28.0,-4.0,-10.0
2901.0,2779.0,2847.0,3151.0,3039.0,0.767456,0.638123,-0.017334,0.058472,-1.0,1.0,-1.0,809.0,7867.0,1532.0,-20.0,-140.0,17.0,-3.0,-43.0,-135.0,0.10123,0.977435,0.184907,1680.0,15572.0,2846.0,-12.0,41.0,-14.0
2901.0,2773.0,2846.0,3151.0,3042.0,0.767334,0.638245,-0.016968,0.058777,1.0,1.0,0.0,799.0,7818.0,1456.0,-28.0,-189.0,-56.0,-9.0,19.0,-197.0,0.101068,0.977499,0.184612,1520.0,15560.0,2792.0,28.0,30.0,16.0
2899.0,2774.0,2850.0,3151.0,3043.0,0.767151,0.638489,-0.016968,0.058899,2.0,0.0,0.0,778.0,7834.0,1454.0,-51.0,-174.0,-53.0,-33.0,17.0,-185.0,0.101246,0.977636,0.184034,1418.0,15856.0,2926.0,47.0,15.0,19.0
2903.0,2769.0,2837.0,3151.0,3039.0,0.767029,0.638611,-0.01709,0.058777,-1.0,-2.0,0.0,741.0,7915.0,1466.0,-88.0,-93.0,-38.0,-78.0,14.0,-106.0,0.101288,0.977657,0.183672,1394.0,15868.0,3038.0,-22.0,-40.0,7.0
2910.0,2783.0,2847.0,3151.0,3047.0,0.767151,0.638489,-0.017273,0.058594,-2.0,-3.0,-1.0,731.0,7894.0,1470.0,-99.0,-114.0,-37.0,-87.0,9.0,-128.0,0.101325,0.97761,0.183987,1440.0,15620.0,2950.0,-26.0,-55.0,-5.0
2901.0,2775.0,2844.0,3151.0,3047.0,0.767395,0.638245,-0.0177,0.058044,-2.0,-3.0,-1.0,766.0,7898.0,1535.0,-63.0,-109.0,22.0,-49.0,-45.0,-108.0,0.101259,0.977517,0.184595,1740.0,15932.0,3298.0,-36.0,-59.0,-10.0
2899.0,2774.0,2835.0,3155.0,3045.0,0.767578,0.638,-0.017761,0.057861,-3.0,-1.0,-2.0,802.0,7901.0,1543.0,-26.0,-105.0,26.0,-12.0,-46.0,-100.0,0.101097,0.977375,0.185164,1788.0,15766.0,3018.0,-51.0,-12.0,-33.0
2903.0,2773.0,2835.0,3152.0,3043.0,0.767944,0.637573,-0.017456,0.057678,-3.0,0.0,-2.0,819.0,7847.0,1460.0,-3.0,-158.0,-65.0,11.0,35.0,-166.0,0.100359,0.977228,0.186261,1664.0,15452.0,2738.0,-50.0,18.0,-30.0
2899.0,2773.0,2831.0,3153.0,3039.0,0.768005,0.637512,-0.017334,0.057678,-1.0,0.0,-2.0,812.0,7821.0,1443.0,-8.0,-184.0,-84.0,8.0,48.0,-196.0,0.100166,0.977226,0.186437,1574.0,15556.0,2838.0,-17.0,20.0,-24.0
2903.0,2774.0,2843.0,3151.0,3039.0,0.768005,0.637573,-0.017212,0.057251,-1.0,-3.0,-2.0,705.0,7910.0,1436.0,-109.0,-96.0,-90.0,-101.0,63.0,-121.0,0.099441,0.977349,0.186314,1084.0,16208.0,2980.0,-20.0,-57.0,-27.0
2899.0,2768.0,2835.0,3155.0,3051.0,0.768188,0.637451,-0.017395,0.056702,-3.0,-5.0,-2.0,667.0,7931.0,1450.0,-144.0,-75.0,-79.0,-138.0,54.0,-102.0,0.099014,0.977393,0.186682,1178.0,15910.0,2920.0,-46.0,-113.0,-40.0
2902.0,2778.0,2830.0,3154.0,3035.0,0.768616,0.637024,-0.017944,0.054688,-3.0,-8.0,-6.0,620.0,7956.0,1572.0,-176.0,-49.0,34.0,-168.0,-53.0,-58.0,0.097259,0.977291,0.187639,1226.0,16000.0,3516.0,-63.0,-177.0,-122.0
2900.0,2779.0,2838.0,3152.0,3039.0,0.769043,0.636658,-0.018127,0.053406,-5.0,-8.0,-8.0,664.0,7951.0,1636.0,-121.0,-55.0,90.0,-110.0,-105.0,-48.0,0.095884,0.977298,0.188618,1700.0,15814.0,3712.0,-104.0,-173.0,-164.0
2903.0,2775.0,2845.0,3153.0,3043.0,0.77002,0.63562,-0.017944,0.051453,-5.0,-3.0,-7.0,826.0,7734.0,1608.0,63.0,-269.0,41.0,91.0,-86.0,-249.0,0.093044,0.977033,0.191243,2160.0,14542.0,2970.0,-94.0,-53.0,-157.0
2893.0,2774.0,2839.0,3147.0,3031.0,0.770142,0.635498,-0.017822,0.051025,-1.0,-1.0,-4.0,878.0,7612.0,1558.0,121.0,-391.0,-11.0,159.0,-55.0,-372.0,0.092304,0.977028,0.191546,1986.0,14648.0,2814.0,-2.0,-2.0,-91.0
2896.0,2771.0,2843.0,3153.0,3035.0,0.769592,0.636169,-0.017578,0.051025,3.0,0.0,-1.0,833.0,7747.0,1482.0,79.0,-259.0,-73.0,101.0,28.0,-259.0,0.091978,0.977388,0.189855,1380.0,16342.0,2834.0,81.0,10.0,-8.0
2898.0,2783.0,2843.0,3155.0,3047.0,0.769348,0.636475,-0.017517,0.050903,1.0,-1.0,-1.0,778.0,7878.0,1448.0,26.0,-130.0,-100.0,35.0,75.0,-143.0,0.091751,0.977558,0.189081,1266.0,16462.0,2678.0,36.0,-20.0,-9.0
2906.0,2781.0,2835.0,3153.0,3047.0,0.769287,0.636597,-0.017822,0.050354,-1.0,-3.0,-1.0,746.0,7950.0,1429.0,-3.0,-58.0,-117.0,-1.0,103.0,-79.0,0.091531,0.977656,0.188765,1470.0,15850.0,2852.0,-17.0,-64.0,-16.0
2899.0,2768.0,2839.0,3152.0,3053.0,0.769348,0.636536,-0.018005,0.05011,-1.0,-3.0,-1.0,754.0,7943.0,1462.0,4.0,-65.0,-85.0,7.0,71.0,-79.0,0.091498,0.977631,0.188906,1550.0,15852.0,3136.0,-9.0,-53.0,-16.0
2895.0,2769.0,2839.0,3151.0,3045.0,0.76947,0.636414,-0.018066,0.049927,-1.0,0.0,-1.0,780.0,7922.0,1517.0,31.0,-86.0,-33.0,38.0,18.0,-87.0,0.091351,0.977599,0.189228,1574.0,15674.0,3084.0,-13.0,20.0,-17.0
2897.0,2778.0,2839.0,3147.0,3043.0,0.76947,0.636414,-0.017883,0.050049,-1.0,1.0,-1.0,767.0,7884.0,1490.0,19.0,-124.0,-60.0,29.0,36.0,-130.0,0.091225,0.977612,0.189247,1462.0,15556.0,2816.0,-1.0,42.0,-9.0
2897.0,2781.0,2839.0,3151.0,3039.0,0.769287,0.636536,-0.017456,0.050415,0.0,2.0,0.0,744.0,7906.0,1471.0,-1.0,-102.0,-76.0,6.0,55.0,-114.0,0.091039,0.977597,0.188862,1300.0,15986.0,2862.0,13.0,63.0,5.0
2903.0,2747.0,2835.0,3143.0,3047.0,0.769287,0.636597,-0.017212,0.050598,-1.0,2.0,0.0,689.0,7909.0,1445.0,-55.0,-100.0,-101.0,-48.0,77.0,-121.0,0.090903,0.977709,0.188811,998.0,15808.0,2776.0,-2.0,46.0,6.0
2903.0,2767.0,2842.0,3147.0,3039.0,0.769226,0.636658,-0.017273,0.050476,0.0,-3.0,0.0,642.0,7884.0,1485.0,-102.0,-125.0,-60.0,-91.0,30.0,-142.0,0.090846,0.977724,0.188625,1244.0,15604.0,3200.0,4.0,-48.0,17.0
2906.0,2774.0,2844.0,3155.0,3039.0,0.769226,0.636719,-0.017578,0.050293,0.0,-4.0,0.0,657.0,7856.0,1522.0,-89.0,-154.0,-22.0,-73.0,-11.0,-162.0,0.091088,0.977793,0.188518,1474.0,15536.0,3286.0,20.0,-74.0,18.0
2898.0,2775.0,2837.0,3152.0,3043.0,0.769043,0.636902,-0.018127,0.049988,1.0,-2.0,0.0,700.0,7848.0,1571.0,-50.0,-162.0,31.0,-32.0,-62.0,-157.0,0.091556,0.977798,0.187953,1450.0,15728.0,3142.0,36.0,-41.0,5.0
2902.0,2768.0,2833.0,3135.0,3039.0,0.768982,0.636963,-0.01825,0.049927,1.0,-2.0,0.0,735.0,7851.0,1597.0,-15.0,-159.0,58.0,3.0,-86.0,-145.0,0.09167,0.977804,0.187771,1736.0,15726.0,3434.0,27.0,-30.0,5.0
2896.0,2771.0,2839.0,3151.0,3039.0,0.768982,0.636963,-0.018127,0.05011,-1.0,2.0,-1.0,774.0,7898.0,1560.0,22.0,-112.0,21.0,33.0,-39.0,-103.0,0.091716,0.977809,0.187794,1534.0,15872.0,2774.0,-12.0,58.0,-17.0
2906.0,2778.0,2847.0,3157.0,3047.0,0.769043,0.636902,-0.017822,0.050232,-2.0,2.0,-1.0,745.0,7885.0,1492.0,-3.0,-125.0,-48.0,7.0,23.0,-131.0,0.091398,0.977819,0.187989,1342.0,15654.0,2640.0,-23.0,59.0,-21.0
2903.0,2777.0,2843.0,3153.0,3049.0,0.769104,0.636841,-0.017456,0.050293,-1.0,0.0,-1.0,727.0,7898.0,1458.0,-17.0,-112.0,-83.0,-8.0,59.0,-126.0,0.090908,0.977838,0.188179,1420.0,15828.0,2886.0,-20.0,12.0,-3.0
2897.0,2768.0,2837.0,3131.0,3039.0,0.769104,0.63678,-0.017517,0.050293,-1.0,-1.0,0.0,724.0,7885.0,1454.0,-21.0,-124.0,-88.0,-11.0,62.0,-139.0,0.090996,0.977738,0.188255,1458.0,15676.0,2918.0,-17.0,-11.0,8.0
2901.0,2771.0,2846.0,3150.0,3039.0,0.769165,0.63678,-0.017822,0.050293,0.0,-1.0,0.0,736.0,7871.0,1496.0,-13.0,-139.0,-46.0,0.0,18.0,-145.0,0.091468,0.977785,0.188338,1496.0,15806.0,3178.0,2.0,-11.0,20.0
2899.0,2775.0,2842.0,3155.0,3043.0,0.769165,0.63678,-0.017822,0.050415,0.0,0.0,0.0,741.0,7871.0,1501.0,-9.0,-138.0,-41.0,3.0,14.0,-143.0,0.091623,0.97778,0.18835,1526.0,15740.0,2994.0,3.0,14.0,12.0
2898.0,2779.0,2838.0,3151.0,3047.0,0.769104,0.63678,-0.017578,0.050659,0.0,1.0,0.0,724.0,7883.0,1489.0,-26.0,-126.0,-53.0,-15.0,27.0,-135.0,0.091556,0.977719,0.18829,1464.0,15782.0,2920.0,4.0,33.0,8.0
2881.0,2771.0,2833.0,3151.0,3043.0,0.769104,0.636841,-0.017517,0.050842,0.0,1.0,0.0,730.0,7878.0,1488.0,-21.0,-132.0,-54.0,-9.0,27.0,-141.0,0.091702,0.977812,0.188233,1490.0,15698.0,2954.0,2.0,30.0,18.0
2901.0,2768.0,2834.0,3141.0,3039.0,0.768982,0.636963,-0.017395,0.051086,0.0,0.0,0.0,706.0,7931.0,1476.0,-46.0,-79.0,-63.0,-40.0,44.0,-93.0,0.091833,0.977849,0.187919,1346.0,16198.0,2974.0,9.0,19.0,10.0
2899.0,2778.0,2838.0,3151.0,3046.0,0.768982,0.636902,-0.017334,0.051147,-2.0,0.0,0.0,704.0,7958.0,1482.0,-48.0,-51.0,-58.0,-44.0,44.0,-65.0,0.091811,0.977759,0.188005,1402.0,15992.0,3002.0,-29.0,13.0,3.0
2907.0,2774.0,2846.0,3153.0,3047.0,0.769226,0.636658,-0.017212,0.051147,-1.0,0.0,0.0,689.0,7873.0,1487.0,-61.0,-136.0,-58.0,-49.0,28.0,-149.0,0.091607,0.977707,0.188696,1336.0,15502.0,3076.0,-12.0,9.0,1.0
2899.0,2769.0,2834.0,3146.0,3041.0,0.769226,0.636658,-0.017151,0.051208,0.0,0.0,0.0,680.0,7871.0,1507.0,-70.0,-138.0,-38.0,-57.0,7.0,-148.0,0.09159,0.977711,0.188704,1298.0,15798.0,3130.0,5.0,8.0,4.0
2901.0,2771.0,2835.0,3153.0,3039.0,0.769287,0.636536,-0.01709,0.051208,-1.0,-1.0,0.0,657.0,7877.0,1554.0,-92.0,-131.0,6.0,-78.0,-35.0,-135.0,0.091486,0.977607,0.188955,1266.0,15672.0,3196.0,-10.0,-2.0,6.0
2911.0,2775.0,2845.0,3152.0,3047.0,0.769348,0.636475,-0.01709,0.051208,0.0,0.0,0.0,657.0,7859.0,1578.0,-92.0,-149.0,28.0,-75.0,-60.0,-148.0,0.091482,0.977591,0.189127,1304.0,15650.0,3278.0,1.0,6.0,1.0
2901.0,2775.0,2843.0,3152.0,3039.0,0.636475,-0.017029,0.051208,0.0,0.0,0.0,640.0,7879.0,1578.0,-19862.0,8413.0,1755.0,-23156.0,1875.0,198.0,-9899.0,-0.065186,-0.021677,0.402188,1180.0,15916.0,3062.0,-22.0,-11.0,1.0
2898.0,2771.0,2835.0,3151.0,3037.0,0.769531,0.636292,-0.017029,0.051025,-2.0,-2.0,0.0,630.0,7885.0,1551.0,-116.0,-123.0,-2.0,-103.0,-27.0,-131.0,0.091142,0.977555,0.189625,1360.0,15562.0,3010.0,-31.0,-33.0,4.0
2901.0,2771.0,2839.0,3150.0,3046.0,0.769409,0.636414,-0.017273,0.051025,2.0,0.0,0.0,708.0,7866.0,1538.0,-41.0,-142.0,-12.0,-26.0,-16.0,-144.0,0.091526,0.977562,0.189273,1540.0,16018.0,3024.0,46.0,17.0,3.0
2900.0,2779.0,2842.0,3157.0,3046.0,0.769287,0.636536,-0.01709,0.051086,0.0,1.0,-1.0,697.0,7956.0,1524.0,-51.0,-52.0,-23.0,-46.0,10.0,-59.0,0.091331,0.977611,0.188943,1264.0,16480.0,2972.0,18.0,29.0,-3.0
2902.0,2778.0,2839.0,3152.0,3047.0,0.769592,0.63623,-0.017029,0.050903,-4.0,-2.0,-1.0,667.0,7978.0,1487.0,-78.0,-30.0,-67.0,-77.0,55.0,-49.0,0.090983,0.977542,0.189784,1432.0,15634.0,2896.0,-72.0,-29.0,-5.0
2899.0,2770.0,2838.0,3151.0,3039.0,0.769714,0.636047,-0.017212,0.050842,-2.0,-2.0,0.0,699.0,7898.0,1496.0,-47.0,-108.0,-62.0,-38.0,38.0,-121.0,0.091173,0.977399,0.190193,1604.0,15344.0,3080.0,-43.0,-33.0,10.0
2899.0,2774.0,2838.0,3147.0,3043.0,0.769775,0.635925,-0.017395,0.050964,-1.0,0.0,0.0,740.0,7880.0,1521.0,-10.0,-125.0,-39.0,1.0,14.0,-130.0,0.0916,0.977266,0.190448,1472.0,15832.0,3052.0,-2.0,20.0,12.0
2902.0,2775.0,2842.0,3154.0,3045.0,0.769836,0.635925,-0.017334,0.051147,-1.0,1.0,0.0,734.0,7868.0,1521.0,-17.0,-138.0,-40.0,-4.0,12.0,-144.0,0.091741,0.977344,0.190563,1386.0,15574.0,3002.0,-13.0,25.0,18.0
2901.0,2774.0,2845.0,3152.0,3050.0,0.769775,0.635925,-0.017334,0.051514,1.0,0.0,1.0,706.0,7818.0,1540.0,-49.0,-187.0,-20.0,-30.0,-17.0,-191.0,0.092204,0.977253,0.190506,1296.0,15646.0,3186.0,27.0,20.0,35.0
2901.0,2771.0,2839.0,3151.0,3037.0,0.769653,0.636047,-0.017334,0.051636,1.0,0.0,1.0,662.0,7839.0,1548.0,-94.0,-166.0,-9.0,-76.0,-27.0,-172.0,0.092368,0.977282,0.190176,956.0,15842.0,3136.0,31.0,6.0,34.0
2899.0,2773.0,2839.0,3147.0,3039.0,0.037537,0.481262,0.096436,-1.21228,23272.0,-12534.0,20899.0,-29610.0,-5993.0,7772.0,-19991.0,-4373.0,-2305.0,26775.0,7978.0,21500.0,-1.174089,-0.197684,1.230119,1286.0,15948.0,3340.0,-25.0,-66.0,5.0
2903.0,2779.0,2839.0,3155.0,3043.0,0.769958,0.635742,-0.017883,0.051086,-2.0,-3.0,-1.0,634.0,7875.0,1612.0,-123.0,-129.0,47.0,-107.0,-77.0,-128.0,0.092494,0.977163,0.190958,1384.0,15468.0,3198.0,-36.0,-61.0,-1.0
2901.0,2773.0,2845.0,3155.0,3050.0,0.769958,0.635742,-0.01825,0.050842,0.0,-1.0,0.0,705.0,7822.0,1579.0,-54.0,-182.0,14.0,-34.0,-50.0,-180.0,0.092748,0.977135,0.19092,1586.0,15782.0,2996.0,22.0,-17.0,5.0
2901.0,2774.0,2839.0,3151.0,3039.0,0.769897,0.635864,-0.018311,0.050903,0.0,-1.0,0.0,720.0,7864.0,1540.0,-41.0,-141.0,-22.0,-27.0,-6.0,-145.0,0.09293,0.977236,0.190675,1522.0,16008.0,2832.0,21.0,-2.0,13.0
2903.0,2771.0,2837.0,3147.0,3039.0,0.769775,0.635925,-0.018433,0.051025,-1.0,0.0,0.0,739.0,7907.0,1463.0,-25.0,-97.0,-96.0,-18.0,74.0,-115.0,0.093275,0.977158,0.190417,1468.0,15868.0,2704.0,-14.0,1.0,12.0
2903.0,2778.0,2843.0,3153.0,3067.0,0.769775,0.635925,-0.018555,0.051025,-1.0,-2.0,0.0,734.0,7916.0,1434.0,-31.0,-88.0,-125.0,-26.0,104.0,-112.0,0.093463,0.977146,0.190412,1444.0,15916.0,2714.0,-18.0,-24.0,17.0
2902.0,2778.0,2843.0,3153.0,3047.0,0.769958,0.635681,-0.019104,0.050781,-3.0,-3.0,0.0,750.0,7959.0,1434.0,-19.0,-44.0,-130.0,-18.0,118.0,-69.0,0.09398,0.976956,0.190959,1518.0,16014.0,2900.0,-63.0,-55.0,18.0
2902.0,2773.0,2839.0,3151.0,3045.0,0.770203,0.635437,-0.01947,0.05072,-4.0,-3.0,1.0,758.0,7902.0,1440.0,-15.0,-100.0,-129.0,-9.0,106.0,-123.0,0.094451,0.976855,0.191625,1468.0,15418.0,2778.0,-72.0,-57.0,29.0
2899.0,2769.0,2839.0,3151.0,3039.0,0.770386,0.635193,-0.020081,0.05072,0.0,-1.0,1.0,805.0,7781.0,1535.0,23.0,-219.0,-39.0,44.0,-1.0,-219.0,0.095374,0.97665,0.192194,1626.0,15448.0,3318.0,7.0,-12.0,25.0
2898.0,2780.0,2847.0,3159.0,3045.0,0.770386,0.635193,-0.020081,0.050842,0.0,1.0,0.0,796.0,7788.0,1572.0,13.0,-212.0,-2.0,34.0,-37.0,-206.0,0.095529,0.976645,0.192206,1498.0,15652.0,3300.0,18.0,23.0,5.0
2901.0,2773.0,2837.0,3147.0,3039.0,0.770386,0.635193,-0.019958,0.050903,0.0,1.0,-1.0,774.0,7799.0,1583.0,-7.0,-201.0,8.0,14.0,-45.0,-195.0,0.095418,0.976655,0.192217,1452.0,15636.0,3252.0,6.0,28.0,-9.0
2898.0,2772.0,2835.0,3151.0,3007.0,0.770386,0.635193,-0.019592,0.050964,0.0,0.0,-1.0,730.0,7793.0,1555.0,-47.0,-208.0,-19.0,-25.0,-22.0,-211.0,0.094932,0.97669,0.192238,1246.0,15608.0,2930.0,11.0,21.0,-12.0
2903.0,2777.0,2847.0,3155.0,3047.0,0.770325,0.635254,-0.019531,0.050903,0.0,-1.0,-1.0,716.0,7824.0,1553.0,-60.0,-177.0,-20.0,-42.0,-16.0,-182.0,0.094764,0.976715,0.192062,1396.0,15848.0,3120.0,16.0,-5.0,-7.0
2899.0,2779.0,2850.0,3155.0,3047.0,0.770325,0.635315,-0.019531,0.05072,-1.0,-1.0,-1.0,716.0,7882.0,1551.0,-58.0,-120.0,-21.0,-46.0,-5.0,-126.0,0.094537,0.976816,0.191966,1442.0,15822.0,3104.0,-7.0,-18.0,-8.0
2902.0,2775.0,2835.0,3151.0,3047.0,0.770325,0.635315,-0.019592,0.050598,-1.0,-1.0,-1.0,725.0,7877.0,1549.0,-48.0,-125.0,-23.0,-35.0,-3.0,-131.0,0.094476,0.976815,0.191951,1530.0,15702.0,3114.0,0.0,-18.0,-8.0
2899.0,2775.0,2839.0,3151.0,3039.0,0.770325,0.635315,-0.019531,0.050476,0.0,0.0,-1.0,724.0,7903.0,1580.0,-47.0,-99.0,7.0,-36.0,-27.0,-99.0,0.094227,0.976826,0.191941,1354.0,15878.0,3198.0,2.0,9.0,-10.0
2902.0,2775.0,2845.0,3154.0,3051.0,0.770325,0.635254,-0.019409,0.050476,-1.0,0.0,-1.0,717.0,7907.0,1584.0,-53.0,-94.0,10.0,-42.0,-30.0,-94.0,0.094033,0.976744,0.192024,1418.0,15836.0,3184.0,-9.0,4.0,-13.0
2901.0,2775.0,2847.0,3157.0,3047.0,0.770386,0.635193,-0.019409,0.050354,-1.0,-1.0,0.0,704.0,7879.0,1561.0,-65.0,-122.0,-13.0,-52.0,-13.0,-127.0,0.093874,0.976732,0.192183,1380.0,15716.0,2982.0,0.0,-15.0,6.0
2901.0,2779.0,2843.0,3151.0,3043.0,0.770386,0.635254,-0.019531,0.050293,0.0,-2.0,0.0,696.0,7883.0,1541.0,-73.0,-119.0,-32.0,-61.0,5.0,-129.0,0.093991,0.976817,0.192095,1344.0,15788.0,2988.0,5.0,-27.0,14.0
2899.0,2771.0,2846.0,3152.0,3045.0,0.770264,0.635376,-0.019958,0.050171,0.0,-2.0,0.0,718.0,7896.0,1521.0,-56.0,-106.0,-49.0,-46.0,25.0,-118.0,0.094501,0.976811,0.191722,1546.0,15824.0,3016.0,9.0,-38.0,20.0
2903.0,2781.0,2847.0,3157.0,3051.0,0.770203,0.635437,-0.020142,0.05011,0.0,-2.0,0.0,741.0,7889.0,1511.0,-34.0,-113.0,-58.0,-24.0,33.0,-124.0,0.09471,0.976812,0.191537,1654.0,15706.0,2974.0,8.0,-25.0,15.0
2902.0,2774.0,2846.0,3159.0,3047.0,0.770081,0.635559,-0.020325,0.050232,0.0,0.0,0.0,774.0,7872.0,1508.0,-5.0,-130.0,-58.0,6.0,32.0,-138.0,0.095154,0.976821,0.191199,1642.0,15770.0,2994.0,17.0,4.0,18.0
2902.0,2779.0,2847.0,3151.0,3039.0,0.77002,0.63562,-0.020325,0.050415,0.0,1.0,0.0,775.0,7877.0,1499.0,-6.0,-125.0,-66.0,4.0,41.0,-135.0,0.09539,0.97683,0.191046,1528.0,15770.0,2922.0,9.0,23.0,12.0
2903.0,2781.0,2847.0,3153.0,3047.0,0.769958,0.635681,-0.020203,0.050476,0.0,1.0,0.0,775.0,7868.0,1489.0,-5.0,-134.0,-74.0,6.0,47.0,-145.0,0.095284,0.976857,0.190885,1554.0,15656.0,2918.0,1.0,25.0,5.0
2879.0,2779.0,2846.0,3155.0,3046.0,0.769958,0.635742,-0.020142,0.050537,-1.0,-1.0,0.0,759.0,7852.0,1492.0,-21.0,-151.0,-71.0,-7.0,40.0,-163.0,0.095274,0.976954,0.190816,1566.0,15702.0,3126.0,-3.0,-11.0,2.0
2915.0,2775.0,2837.0,3143.0,3039.0,0.769958,0.635681,-0.020264,0.050476,-1.0,-2.0,0.0,762.0,7848.0,1500.0,-19.0,-154.0,-63.0,-5.0,32.0,-164.0,0.095378,0.976851,0.190883,1530.0,15622.0,3026.0,-14.0,-24.0,4.0
2903.0,2775.0,2837.0,3151.0,3043.0,0.77002,0.63562,-0.02063,0.050354,0.0,-2.0,0.0,773.0,7812.0,1535.0,-11.0,-189.0,-29.0,7.0,-7.0,-191.0,0.095783,0.976802,0.191027,1600.0,15640.0,3166.0,7.0,-36.0,10.0
65.0,-133.0,-54.0,,,,,,,,,,,,,,,,,,,,,,,,,,,
2895.0,2775.0,2832.0,3155.0,3055.0,0.747498,0.65863,0.052979,0.067322,-4.0,-6.0,-3.0,-4.0,8066.0,1095.0,-81.0,-58.0,57.0,-68.0,-76.0,-51.0,0.009478,0.991782,0.126684,264.0,15804.0,2190.0,-80.0,-120.0,-61.0
2894.0,2771.0,2835.0,3163.0,3053.0,0.747986,0.658264,0.05249,0.066406,-2.0,-4.0,-2.0,71.0,7951.0,1051.0,-1.0,-173.0,3.0,4.0,-24.0,-171.0,0.008902,0.991716,0.127826,398.0,15724.0,1948.0,-29.0,-72.0,-28.0
2887.0,2767.0,2833.0,3155.0,3039.0,0.747986,0.658264,0.052246,0.066223,-1.0,-2.0,-1.0,90.0,7940.0,1018.0,16.0,-183.0,-29.0,16.0,8.0,-185.0,0.009026,0.991664,0.127827,228.0,15844.0,1828.0,-6.0,-41.0,-4.0
2887.0,2763.0,2827.0,3163.0,3047.0,0.747864,0.658447,0.051941,0.065979,-1.0,-3.0,0.0,44.0,8032.0,948.0,-31.0,-92.0,-95.0,-43.0,76.0,-103.0,0.009198,0.991712,0.127403,-112.0,16470.0,1730.0,-1.0,-55.0,7.0
2893.0,2771.0,2839.0,3163.0,3055.0,0.747925,0.658447,0.051697,0.065613,-2.0,-4.0,-1.0,23.0,8085.0,942.0,-51.0,-39.0,-102.0,-65.0,86.0,-52.0,0.009075,0.991722,0.127471,-24.0,16466.0,1884.0,-31.0,-85.0,-8.0
2897.0,2768.0,2839.0,3155.0,3047.0,0.748413,0.65802,0.051086,0.064819,-4.0,-4.0,-2.0,55.0,8082.0,961.0,-17.0,-40.0,-93.0,-30.0,83.0,-51.0,0.008837,0.991564,0.128724,310.0,15940.0,1966.0,-73.0,-77.0,-33.0
2890.0,2751.0,2831.0,3151.0,3038.0,0.748596,0.657837,0.050964,0.064575,-3.0,-2.0,-2.0,88.0,8038.0,955.0,17.0,-84.0,-103.0,2.0,92.0,-96.0,0.008656,0.99149,0.129219,372.0,15824.0,1882.0,-62.0,-41.0,-32.0
2893.0,2768.0,2827.0,3163.0,3043.0,0.748779,0.657593,0.051025,0.064514,-1.0,0.0,-1.0,126.0,7998.0,935.0,56.0,-123.0,-128.0,38.0,118.0,-138.0,0.008435,0.991367,0.129801,310.0,15960.0,1838.0,-18.0,22.0,-8.0
2891.0,2773.0,2859.0,3163.0,3051.0,0.748779,0.657593,0.051147,0.064636,-1.0,1.0,0.0,109.0,7986.0,921.0,40.0,-135.0,-142.0,20.0,128.0,-151.0,0.008412,0.991396,0.129804,76.0,15890.0,1768.0,-6.0,38.0,7.0
2895.0,2773.0,2832.0,3163.0,3055.0,0.748535,0.657898,0.051331,0.064697,1.0,-1.0,0.0,8.0,8032.0,933.0,-59.0,-90.0,-123.0,-75.0,99.0,-105.0,0.008283,0.991561,0.129026,-330.0,16302.0,2030.0,29.0,-14.0,5.0
2885.0,2768.0,2823.0,3158.0,3039.0,0.748474,0.657959,0.051208,0.064453,0.0,-3.0,0.0,-6.0,8082.0,987.0,-72.0,-40.0,-68.0,-80.0,49.0,-49.0,0.008159,0.991532,0.128835,-32.0,16504.0,2338.0,13.0,-63.0,0.0
2887.0,2767.0,2827.0,3155.0,3039.0,0.748779,0.657715,0.05072,0.063965,-2.0,-3.0,-1.0,26.0,8089.0,1049.0,-41.0,-33.0,-12.0,-41.0,0.0,-34.0,0.008185,0.991455,0.129601,82.0,15994.0,2094.0,-44.0,-49.0,-14.0
2891.0,2771.0,2835.0,3183.0,3051.0,0.748962,0.657532,0.050598,0.063782,-3.0,-2.0,-1.0,27.0,8073.0,1049.0,-39.0,-48.0,-16.0,-39.0,3.0,-49.0,0.008085,0.991388,0.130105,48.0,16090.0,2106.0,-47.0,-38.0,-16.0
2887.0,2771.0,2833.0,3165.0,3047.0,0.749512,0.656982,0.050476,0.063477,-4.0,-1.0,-1.0,33.0,8073.0,1069.0,-30.0,-47.0,-9.0,-29.0,-2.0,-48.0,0.007741,0.99124,0.131623,-16.0,16074.0,2112.0,-85.0,-14.0,-22.0
2887.0,2765.0,2833.0,3159.0,3061.0,0.749817,0.656555,0.050537,0.063293,-5.0,-1.0,-2.0,6.0,8066.0,1061.0,-53.0,-52.0,-25.0,-54.0,9.0,-55.0,0.007324,0.99099,0.132613,-164.0,16102.0,2046.0,-100.0,-21.0,-34.0
