flex_1,flex_2,flex_3,flex_4,flex_5,Qw,Qx,Qy,Qz,GYRx,GYRy,GYRz,ACCx,ACCy,ACCz,ACCx_real,ACCy_real,ACCz_real,ACCx_world,ACCy_world,ACCz_world,GRAx,GRAy,GRAz,ACCx_raw,ACCy_raw,ACCz_raw,GYRx_raw,GYRy_raw,GYRz_raw
2882.0,2831.0,2879.0,3139.0,2987.0,1.0,0.0,0.0,0.0,0.0,0.0,0.0,0.0,0.0,0.0,0.0,0.0,0.0,0.0,0.0,0.0,0.0,0.0,0.0,0.0,0.0,0.0,0.0,0.0,0.0
2893.0,2823.0,2885.0,3135.0,2991.0,0.90155,-0.068359,-0.427246,0.003601,-1.0,0.0,1.0,7199.0,-1120.0,2879.0,892.0,-85.0,-2245.0,2292.0,-296.0,-706.0,0.769875,-0.126336,0.625594,14334.0,-2200.0,5868.0,-14.0,5.0,35.0
2891.0,2811.0,2897.0,3135.0,2987.0,0.900574,-0.069092,-0.429138,0.003845,-2.0,0.0,1.0,7233.0,-1163.0,2937.0,905.0,-116.0,-2159.0,2235.0,-316.0,-629.0,0.77241,-0.127745,0.622115,14656.0,-2526.0,6112.0,-27.0,3.0,36.0
2887.0,2818.0,2898.0,3151.0,2963.0,0.900146,-0.069397,-0.429993,0.003967,-1.0,0.0,1.0,7244.0,-1209.0,2962.0,906.0,-157.0,-2121.0,2205.0,-352.0,-595.0,0.773562,-0.128347,0.62057,14500.0,-2690.0,6088.0,-11.0,19.0,28.0
2893.0,2830.0,2902.0,3138.0,2991.0,0.899292,-0.069763,-0.431702,0.004211,0.0,0.0,0.0,7209.0,-1218.0,2985.0,853.0,-160.0,-2073.0,2137.0,-353.0,-597.0,0.775864,-0.129111,0.617511,14354.0,-2384.0,6054.0,18.0,1.0,16.0
2879.0,2823.0,2897.0,3135.0,2991.0,0.898865,-0.069885,-0.432617,0.004333,0.0,-1.0,0.0,7209.0,-1213.0,2997.0,842.0,-153.0,-2048.0,2112.0,-343.0,-587.0,0.777123,-0.129384,0.615935,14438.0,-2404.0,6020.0,16.0,-8.0,10.0
2887.0,2819.0,2890.0,3135.0,2991.0,0.897888,-0.070129,-0.434509,0.004517,0.0,-1.0,0.0,7214.0,-1190.0,3002.0,827.0,-126.0,-2015.0,2081.0,-313.0,-573.0,0.779648,-0.129862,0.612507,14494.0,-2274.0,6038.0,1.0,-19.0,20.0
2891.0,2835.0,2895.0,3143.0,2995.0,0.8974,-0.070374,-0.435486,0.004578,-1.0,-1.0,0.0,7221.0,-1182.0,3004.0,823.0,-114.0,-1999.0,2068.0,-300.0,-563.0,0.780966,-0.130293,0.610747,14456.0,-2312.0,6024.0,-14.0,-18.0,20.0
2889.0,2825.0,2891.0,3135.0,2993.0,0.896423,-0.070923,-0.437378,0.004639,-1.0,-1.0,0.0,7210.0,-1224.0,2966.0,791.0,-149.0,-2008.0,2056.0,-339.0,-580.0,0.783494,-0.131212,0.607267,14420.0,-2644.0,5784.0,-12.0,-13.0,9.0
2895.0,2831.0,2897.0,3139.0,2991.0,0.895935,-0.071106,-0.438354,0.0047,0.0,-1.0,0.0,7214.0,-1241.0,2943.0,784.0,-163.0,-2017.0,2059.0,-354.0,-584.0,0.784806,-0.131533,0.605511,14434.0,-2538.0,5726.0,8.0,-10.0,1.0
2895.0,2831.0,2890.0,3134.0,2987.0,0.89502,-0.071228,-0.440247,0.004761,0.0,-1.0,-1.0,7217.0,-1223.0,2905.0,766.0,-144.0,-2028.0,2060.0,-338.0,-599.0,0.78738,-0.131693,0.602192,14488.0,-2338.0,5744.0,17.0,-10.0,-3.0
2887.0,2829.0,2887.0,3143.0,2991.0,0.894531,-0.071289,-0.441223,0.004761,0.0,-1.0,0.0,7224.0,-1208.0,2892.0,762.0,-128.0,-2026.0,2058.0,-322.0,-598.0,0.788697,-0.131742,0.600449,14514.0,-2344.0,5750.0,5.0,-10.0,3.0
2887.0,2829.0,2897.0,3135.0,2991.0,0.893616,-0.071655,-0.442993,0.004822,-1.0,-1.0,0.0,7234.0,-1224.0,2890.0,753.0,-139.0,-2002.0,2036.0,-331.0,-581.0,0.79104,-0.132337,0.597195,14426.0,-2554.0,5848.0,-1.0,-3.0,10.0
2883.0,2827.0,2887.0,3134.0,2992.0,0.893188,-0.071838,-0.443848,0.004883,0.0,-1.0,0.0,7230.0,-1230.0,2902.0,740.0,-143.0,-1977.0,2009.0,-333.0,-572.0,0.792178,-0.132665,0.595648,14472.0,-2472.0,5900.0,4.0,-1.0,8.0
2887.0,2827.0,2903.0,3171.0,2991.0,0.892334,-0.072083,-0.445557,0.004944,0.0,0.0,0.0,7233.0,-1215.0,2912.0,724.0,-125.0,-1942.0,1975.0,-312.0,-558.0,0.794458,-0.133049,0.592568,14462.0,-2372.0,5816.0,4.0,2.0,4.0
2887.0,2831.0,2891.0,3143.0,2991.0,0.891907,-0.072205,-0.446411,0.005005,0.0,-1.0,0.0,7235.0,-1213.0,2915.0,717.0,-121.0,-1926.0,1959.0,-306.0,-551.0,0.795591,-0.133268,0.591026,14488.0,-2422.0,5864.0,6.0,-3.0,1.0
2885.0,2827.0,2893.0,3135.0,2997.0,0.891052,-0.072327,-0.448059,0.005066,0.0,-1.0,0.0,7240.0,-1192.0,2923.0,704.0,-98.0,-1893.0,1928.0,-280.0,-538.0,0.797755,-0.133433,0.588012,14518.0,-2274.0,5888.0,10.0,-7.0,3.0
2887.0,2829.0,2893.0,3143.0,2989.0,0.890625,-0.072449,-0.448914,0.005066,0.0,-1.0,0.0,7241.0,-1192.0,2916.0,696.0,-97.0,-1888.0,1921.0,-279.0,-538.0,0.798893,-0.133598,0.586466,14506.0,-2406.0,5762.0,6.0,-4.0,4.0
2887.0,2823.0,2887.0,3143.0,2989.0,0.889771,-0.072571,-0.450562,0.005188,0.0,-1.0,0.0,7247.0,-1187.0,2912.0,684.0,-90.0,-1867.0,1899.0,-270.0,-529.0,0.80104,-0.133818,0.583446,14488.0,-2312.0,5768.0,13.0,0.0,4.0
2887.0,2831.0,2896.0,3143.0,2991.0,0.889343,-0.072632,-0.451355,0.005188,0.0,0.0,0.0,7235.0,-1172.0,2907.0,664.0,-75.0,-1860.0,1883.0,-256.0,-539.0,0.802065,-0.133873,0.581962,14400.0,-2254.0,5800.0,9.0,3.0,2.0
2891.0,2829.0,2897.0,3139.0,2995.0,0.88855,-0.072876,-0.452942,0.005188,-1.0,-1.0,0.0,7231.0,-1169.0,2914.0,643.0,-69.0,-1829.0,1848.0,-248.0,-532.0,0.804167,-0.134208,0.57908,14478.0,-2314.0,5850.0,-5.0,0.0,7.0
2884.0,2822.0,2895.0,3142.0,2993.0,0.888123,-0.073059,-0.453735,0.005188,-1.0,0.0,0.0,7229.0,-1172.0,2908.0,632.0,-70.0,-1823.0,1838.0,-249.0,-534.0,0.805187,-0.134479,0.577575,14444.0,-2404.0,5776.0,-11.0,2.0,0.0
2886.0,2829.0,2895.0,3143.0,2991.0,0.887329,-0.073364,-0.455261,0.005188,-1.0,0.0,0.0,7241.0,-1197.0,2914.0,628.0,-91.0,-1794.0,1813.0,-267.0,-511.0,0.807172,-0.13492,0.574735,14466.0,-2436.0,5856.0,-1.0,5.0,2.0
2887.0,2829.0,2895.0,3143.0,2991.0,0.886902,-0.073486,-0.455994,0.005188,0.0,0.0,-1.0,7240.0,-1206.0,2922.0,620.0,-99.0,-1774.0,1792.0,-273.0,-502.0,0.808081,-0.135082,0.573291,14476.0,-2448.0,5890.0,10.0,5.0,-3.0
2886.0,2827.0,2896.0,3135.0,2991.0,0.886169,-0.073547,-0.457397,0.005188,0.0,0.0,-1.0,7237.0,-1186.0,2950.0,602.0,-79.0,-1725.0,1745.0,-248.0,-486.0,0.8099,-0.135097,0.570702,14446.0,-2320.0,5978.0,14.0,3.0,-2.0
2887.0,2827.0,2895.0,3135.0,3002.0,0.885803,-0.073608,-0.45813,0.005188,0.0,-1.0,0.0,7224.0,-1186.0,2964.0,581.0,-78.0,-1700.0,1713.0,-246.0,-486.0,0.810862,-0.135159,0.569373,14334.0,-2364.0,6028.0,8.0,-7.0,1.0
2886.0,2822.0,2903.0,3135.0,2993.0,0.884949,-0.07373,-0.459778,0.005249,0.0,-2.0,0.0,7213.0,-1191.0,2969.0,553.0,-82.0,-1670.0,1674.0,-248.0,-485.0,0.812986,-0.135322,0.56633,14456.0,-2410.0,5936.0,6.0,-31.0,2.0
2891.0,2829.0,2895.0,3139.0,2991.0,0.884521,-0.073792,-0.460632,0.00531,0.0,-2.0,-1.0,7230.0,-1205.0,2970.0,560.0,-95.0,-1656.0,1667.0,-258.0,-466.0,0.814095,-0.135432,0.564779,14596.0,-2486.0,5988.0,12.0,-28.0,-5.0
2891.0,2859.0,2896.0,3138.0,2995.0,0.883667,-0.073853,-0.462219,0.00531,0.0,-1.0,-1.0,7232.0,-1186.0,2957.0,546.0,-76.0,-1645.0,1653.0,-239.0,-468.0,0.816111,-0.135431,0.561795,14492.0,-2262.0,5914.0,15.0,-15.0,-12.0
2887.0,2825.0,2895.0,3143.0,2995.0,0.88324,-0.073853,-0.462952,0.005188,0.0,-1.0,-1.0,7225.0,-1174.0,2937.0,531.0,-65.0,-1653.0,1652.0,-230.0,-483.0,0.817028,-0.135263,0.560361,14396.0,-2310.0,5776.0,3.0,-13.0,-16.0
2886.0,2827.0,2892.0,3135.0,2987.0,0.882385,-0.074036,-0.4646,0.005066,-1.0,-1.0,-1.0,7228.0,-1192.0,2906.0,517.0,-83.0,-1659.0,1650.0,-250.0,-489.0,0.819162,-0.135363,0.557295,14514.0,-2392.0,5772.0,-2.0,-18.0,-12.0
2887.0,2830.0,2895.0,3143.0,2991.0,0.882019,-0.074158,-0.465332,0.005005,-1.0,-1.0,-1.0,7243.0,-1175.0,2912.0,524.0,-65.0,-1642.0,1642.0,-230.0,-474.0,0.820121,-0.135475,0.555949,14562.0,-2236.0,5900.0,-7.0,-10.0,-12.0
2891.0,2832.0,2891.0,3142.0,2993.0,0.881226,-0.074402,-0.466736,0.004883,-1.0,-1.0,-1.0,7222.0,-1184.0,2889.0,489.0,-72.0,-1642.0,1623.0,-240.0,-496.0,0.821873,-0.135688,0.553204,14358.0,-2382.0,5700.0,-12.0,-4.0,-5.0
2890.0,2823.0,2896.0,3135.0,2992.0,0.880798,-0.074524,-0.467468,0.004822,-1.0,-1.0,-1.0,7222.0,-1189.0,2885.0,481.0,-76.0,-1634.0,1612.0,-244.0,-495.0,0.822772,-0.135789,0.551749,14466.0,-2386.0,5682.0,-5.0,-13.0,-10.0
2887.0,2827.0,2896.0,3139.0,2993.0,0.880005,-0.074707,-0.468994,0.0047,0.0,-1.0,-1.0,7257.0,-1186.0,2887.0,500.0,-72.0,-1609.0,1604.0,-236.0,-461.0,0.824732,-0.135893,0.548894,14610.0,-2372.0,5824.0,1.0,-10.0,-14.0
2887.0,2827.0,2891.0,3143.0,2997.0,0.879639,-0.074768,-0.469727,0.004578,0.0,-1.0,-1.0,7264.0,-1190.0,2891.0,499.0,-77.0,-1594.0,1592.0,-239.0,-450.0,0.825695,-0.135838,0.547552,14586.0,-2392.0,5834.0,1.0,-3.0,-19.0
2891.0,2827.0,2897.0,3143.0,2993.0,0.878906,-0.074768,-0.471008,0.004456,0.0,0.0,-1.0,7262.0,-1189.0,2884.0,484.0,-77.0,-1581.0,1574.0,-239.0,-450.0,0.827278,-0.135625,0.545057,14442.0,-2298.0,5714.0,14.0,9.0,-17.0
2887.0,2827.0,2896.0,3138.0,2987.0,0.878601,-0.074768,-0.471619,0.004395,0.0,0.0,-1.0,7255.0,-1169.0,2887.0,471.0,-58.0,-1568.0,1558.0,-220.0,-455.0,0.828072,-0.135528,0.543945,14494.0,-2230.0,5796.0,12.0,6.0,-11.0
2891.0,2827.0,2895.0,3135.0,2992.0,0.87793,-0.07489,-0.4729,0.004333,-1.0,-1.0,0.0,7230.0,-1141.0,2888.0,433.0,-30.0,-1548.0,1523.0,-192.0,-474.0,0.829697,-0.135595,0.541536,14384.0,-2258.0,5818.0,-8.0,-5.0,2.0
2889.0,2829.0,2897.0,3141.0,2991.0,0.877502,-0.075012,-0.473572,0.004333,-1.0,-1.0,-1.0,7237.0,-1137.0,2889.0,433.0,-24.0,-1535.0,1513.0,-185.0,-466.0,0.830471,-0.135751,0.540132,14548.0,-2272.0,5772.0,-10.0,-8.0,-2.0
2890.0,2827.0,2895.0,3139.0,2991.0,0.876831,-0.075195,-0.474854,0.004211,0.0,0.0,-1.0,7254.0,-1163.0,2883.0,437.0,-49.0,-1521.0,1504.0,-208.0,-447.0,0.832099,-0.135867,0.53771,14510.0,-2360.0,5720.0,11.0,8.0,-11.0
2886.0,2829.0,2896.0,3141.0,2991.0,0.876526,-0.075134,-0.475464,0.004211,0.0,0.0,-1.0,7252.0,-1156.0,2892.0,429.0,-44.0,-1503.0,1485.0,-201.0,-443.0,0.83288,-0.135719,0.536604,14490.0,-2246.0,5852.0,19.0,6.0,-13.0
2895.0,2829.0,2895.0,3135.0,2993.0,0.875916,-0.075073,-0.476624,0.00415,0.0,0.0,-1.0,7253.0,-1126.0,2915.0,418.0,-16.0,-1463.0,1449.0,-169.0,-430.0,0.834341,-0.135472,0.534439,14506.0,-2140.0,5826.0,11.0,10.0,-4.0
2890.0,2829.0,2896.0,3141.0,2994.0,0.87561,-0.075134,-0.477112,0.00415,-1.0,0.0,0.0,7255.0,-1114.0,2920.0,415.0,-3.0,-1449.0,1437.0,-155.0,-426.0,0.834904,-0.135537,0.53343,14504.0,-2160.0,5844.0,0.0,18.0,3.0
2885.0,2830.0,2895.0,3142.0,2992.0,0.875061,-0.075378,-0.478088,0.00415,-1.0,0.0,0.0,7198.0,-1143.0,2910.0,348.0,-29.0,-1444.0,1396.0,-185.0,-472.0,0.836087,-0.13589,0.531499,14184.0,-2462.0,5718.0,-2.0,11.0,14.0
2886.0,2831.0,2897.0,3163.0,2992.0,0.874695,-0.0755,-0.478699,0.004272,0.0,-1.0,0.0,7169.0,-1171.0,2912.0,314.0,-55.0,-1431.0,1365.0,-212.0,-488.0,0.836785,-0.13617,0.530256,14196.0,-2456.0,5882.0,13.0,-8.0,17.0
2891.0,2827.0,2895.0,3137.0,2991.0,0.873962,-0.075562,-0.47998,0.004395,0.0,-2.0,-1.0,7198.0,-1146.0,2925.0,330.0,-29.0,-1398.0,1349.0,-180.0,-457.0,0.838306,-0.136294,0.527739,14588.0,-2266.0,5932.0,5.0,-23.0,-8.0
2891.0,2827.0,2893.0,3143.0,2997.0,0.873596,-0.075623,-0.480652,0.004333,-1.0,-1.0,-1.0,7241.0,-1172.0,2926.0,366.0,-55.0,-1386.0,1358.0,-202.0,-415.0,0.839136,-0.136293,0.526444,14760.0,-2524.0,5836.0,-5.0,-12.0,-9.0
2891.0,2830.0,2891.0,3139.0,2992.0,0.872986,-0.075745,-0.48175,0.004395,1.0,0.0,-1.0,7273.0,-1202.0,2933.0,387.0,-83.0,-1362.0,1348.0,-225.0,-377.0,0.840457,-0.136482,0.524303,14510.0,-2444.0,5846.0,25.0,14.0,-7.0
2887.0,2831.0,2896.0,3135.0,2993.0,0.872742,-0.075684,-0.4823,0.004395,1.0,0.0,-1.0,7256.0,-1187.0,2930.0,365.0,-70.0,-1357.0,1333.0,-213.0,-393.0,0.841181,-0.136343,0.523356,14430.0,-2230.0,5854.0,28.0,8.0,-7.0
2890.0,2823.0,2895.0,3139.0,2991.0,0.872131,-0.075745,-0.483398,0.004333,-1.0,-1.0,0.0,7248.0,-1143.0,2937.0,346.0,-26.0,-1332.0,1306.0,-168.0,-399.0,0.842517,-0.136308,0.521221,14504.0,-2328.0,5888.0,-21.0,-4.0,1.0
2891.0,2825.0,2894.0,3143.0,2992.0,0.871765,-0.075989,-0.483948,0.004333,-2.0,-1.0,0.0,7242.0,-1163.0,2936.0,335.0,-43.0,-1323.0,1292.0,-185.0,-399.0,0.843119,-0.136683,0.520014,14452.0,-2458.0,5856.0,-23.0,-7.0,13.0
2891.0,2826.0,2896.0,3135.0,2991.0,0.871094,-0.076355,-0.485107,0.004456,0.0,-1.0,0.0,7209.0,-1205.0,2931.0,291.0,-79.0,-1309.0,1255.0,-222.0,-421.0,0.844468,-0.137348,0.517665,14356.0,-2570.0,5844.0,7.0,-18.0,12.0
2887.0,2827.0,2896.0,3143.0,2993.0,0.870728,-0.076355,-0.485718,0.004578,1.0,-2.0,0.0,7199.0,-1205.0,2928.0,275.0,-79.0,-1302.0,1242.0,-222.0,-429.0,0.845157,-0.137416,0.516436,14366.0,-2348.0,5862.0,30.0,-29.0,7.0
2891.0,2829.0,2891.0,3139.0,2991.0,0.870056,-0.076111,-0.486938,0.0047,1.0,-1.0,-1.0,7225.0,-1141.0,2933.0,289.0,-18.0,-1278.0,1234.0,-157.0,-409.0,0.846612,-0.137018,0.514118,14480.0,-2098.0,5848.0,28.0,-13.0,-8.0
2883.0,2827.0,2897.0,3139.0,2991.0,0.869751,-0.076111,-0.487549,0.0047,0.0,-1.0,-1.0,7215.0,-1114.0,2928.0,273.0,8.0,-1274.0,1225.0,-132.0,-423.0,0.847377,-0.136978,0.512992,14370.0,-2086.0,5810.0,8.0,-12.0,-8.0
2891.0,2829.0,2897.0,3139.0,2993.0,0.86908,-0.076294,-0.48877,0.004578,-1.0,-1.0,0.0,7232.0,-1113.0,2916.0,278.0,10.0,-1266.0,1222.0,-129.0,-411.0,0.848861,-0.137086,0.510604,14596.0,-2264.0,5838.0,-18.0,-22.0,6.0
2885.0,2831.0,2897.0,3142.0,2991.0,0.868713,-0.076416,-0.48938,0.004578,-1.0,-1.0,0.0,7255.0,-1130.0,2905.0,295.0,-5.0,-1267.0,1231.0,-143.0,-394.0,0.849562,-0.137248,0.509352,14646.0,-2392.0,5744.0,-11.0,-13.0,1.0
2891.0,2823.0,2895.0,3143.0,2994.0,0.868103,-0.076538,-0.490356,0.004517,0.0,0.0,-1.0,7282.0,-1135.0,2894.0,313.0,-10.0,-1261.0,1236.0,-145.0,-372.0,0.850668,-0.137315,0.507316,14586.0,-2184.0,5760.0,4.0,13.0,-4.0
2885.0,2827.0,2895.0,3143.0,3007.0,0.867859,-0.076599,-0.490845,0.004517,0.0,0.0,-1.0,7271.0,-1130.0,2885.0,297.0,-4.0,-1263.0,1230.0,-141.0,-386.0,0.851276,-0.137388,0.506404,14416.0,-2226.0,5702.0,1.0,18.0,-4.0
2885.0,2829.0,2907.0,3149.0,2993.0,0.86731,-0.076721,-0.49176,0.004456,-1.0,-1.0,0.0,7222.0,-1113.0,2883.0,239.0,13.0,-1250.0,1191.0,-128.0,-428.0,0.852333,-0.137464,0.504531,14412.0,-2208.0,5850.0,-10.0,-8.0,3.0
2886.0,2823.0,2896.0,3135.0,2995.0,0.867004,-0.076843,-0.49231,0.004456,-1.0,-1.0,0.0,7230.0,-1127.0,2886.0,242.0,0.0,-1238.0,1182.0,-139.0,-416.0,0.852984,-0.137634,0.503443,14540.0,-2334.0,5822.0,-10.0,-12.0,10.0
2887.0,2829.0,2897.0,3142.0,2991.0,0.866394,-0.077148,-0.493347,0.004578,-1.0,-1.0,0.0,7255.0,-1143.0,2894.0,257.0,-10.0,-1212.0,1168.0,-144.0,-386.0,0.85416,-0.138199,0.501316,14550.0,-2342.0,5826.0,-2.0,-3.0,11.0
2891.0,2823.0,2892.0,3143.0,2991.0,0.866089,-0.077209,-0.493835,0.004578,0.0,0.0,0.0,7264.0,-1157.0,2887.0,262.0,-24.0,-1211.0,1169.0,-158.0,-378.0,0.854704,-0.138262,0.500296,14568.0,-2416.0,5744.0,1.0,4.0,10.0
2887.0,2832.0,2895.0,3135.0,2991.0,0.865601,-0.077332,-0.49469,0.004761,0.0,0.0,0.0,7258.0,-1176.0,2877.0,248.0,-40.0,-1207.0,1158.0,-174.0,-384.0,0.855672,-0.138587,0.498589,14506.0,-2372.0,5754.0,16.0,12.0,8.0
2883.0,2827.0,2896.0,3141.0,2989.0,0.865356,-0.077332,-0.495117,0.004822,0.0,0.0,0.0,7264.0,-1172.0,2879.0,250.0,-36.0,-1198.0,1152.0,-168.0,-377.0,0.85616,-0.138613,0.497744,14584.0,-2310.0,5762.0,15.0,11.0,7.0
2891.0,2829.0,2891.0,3139.0,2993.0,0.864868,-0.077454,-0.495911,0.004883,0.0,0.0,0.0,7245.0,-1170.0,2868.0,224.0,-32.0,-1196.0,1138.0,-166.0,-396.0,0.857038,-0.138817,0.496094,14322.0,-2352.0,5728.0,3.0,20.0,3.0
2890.0,2821.0,2906.0,3149.0,2997.0,0.864685,-0.077576,-0.496277,0.004883,-1.0,0.0,0.0,7219.0,-1163.0,2877.0,194.0,-24.0,-1181.0,1111.0,-159.0,-415.0,0.857489,-0.139004,0.495395,14306.0,-2264.0,5818.0,-6.0,7.0,6.0
2883.0,2822.0,2891.0,3135.0,2993.0,0.864075,-0.077881,-0.497192,0.004944,-1.0,-1.0,0.0,7231.0,-1171.0,2922.0,198.0,-28.0,-1119.0,1060.0,-155.0,-378.0,0.858453,-0.139506,0.493384,14610.0,-2462.0,5978.0,-19.0,-9.0,16.0
2887.0,2830.0,2896.0,3141.0,2991.0,0.863831,-0.078064,-0.49762,0.005005,-1.0,-1.0,0.0,7252.0,-1196.0,2939.0,215.0,-50.0,-1095.0,1047.0,-173.0,-347.0,0.858937,-0.139849,0.492509,14606.0,-2522.0,5972.0,-1.0,0.0,10.0
2894.0,2823.0,2889.0,3138.0,2993.0,0.863403,-0.078003,-0.498413,0.005066,0.0,0.0,-1.0,7268.0,-1179.0,2973.0,223.0,-34.0,-1049.0,1013.0,-150.0,-318.0,0.859873,-0.139746,0.490991,14568.0,-2246.0,5998.0,19.0,11.0,-6.0
2895.0,2823.0,2895.0,3146.0,2991.0,0.86322,-0.078003,-0.498779,0.005005,0.0,0.0,-1.0,7254.0,-1161.0,2971.0,206.0,-16.0,-1045.0,1003.0,-133.0,-332.0,0.860332,-0.13966,0.490309,14384.0,-2246.0,5888.0,12.0,10.0,-8.0
2879.0,2831.0,2895.0,3135.0,2998.0,0.862732,-0.078003,-0.499634,0.005005,0.0,-1.0,0.0,7216.0,-1165.0,2952.0,160.0,-21.0,-1050.0,984.0,-142.0,-372.0,0.861319,-0.139592,0.488613,14276.0,-2350.0,5854.0,12.0,-14.0,1.0
2891.0,2827.0,2895.0,3143.0,2983.0,0.862427,-0.078003,-0.500122,0.005127,0.0,-2.0,0.0,7206.0,-1158.0,2955.0,145.0,-13.0,-1039.0,968.0,-134.0,-379.0,0.861838,-0.139672,0.4876,14402.0,-2240.0,5970.0,20.0,-32.0,9.0
2886.0,2827.0,2895.0,3139.0,2991.0,0.861755,-0.078003,-0.501221,0.00531,0.0,-2.0,0.0,7208.0,-1138.0,2931.0,138.0,6.0,-1044.0,971.0,-116.0,-388.0,0.863031,-0.139762,0.485344,14378.0,-2298.0,5762.0,8.0,-30.0,10.0
2887.0,2826.0,2890.0,3135.0,2999.0,0.86145,-0.078064,-0.501831,0.005371,0.0,-2.0,0.0,7195.0,-1147.0,2912.0,119.0,-1.0,-1054.0,971.0,-126.0,-407.0,0.863766,-0.139887,0.484197,14346.0,-2368.0,5732.0,1.0,-40.0,14.0
2887.0,2819.0,2895.0,3149.0,2995.0,0.860718,-0.078247,-0.502991,0.005493,0.0,-2.0,0.0,7231.0,-1167.0,2906.0,144.0,-18.0,-1040.0,971.0,-139.0,-373.0,0.865006,-0.140223,0.481743,14634.0,-2352.0,5782.0,1.0,-37.0,9.0
2893.0,2832.0,2893.0,3135.0,2999.0,0.860352,-0.078369,-0.503601,0.005554,-1.0,-2.0,0.0,7255.0,-1152.0,2902.0,163.0,-1.0,-1034.0,977.0,-120.0,-355.0,0.865677,-0.140444,0.48048,14706.0,-2238.0,5850.0,-15.0,-30.0,13.0
2893.0,2826.0,2895.0,3147.0,2995.0,0.859802,-0.078674,-0.504456,0.005493,-1.0,0.0,0.0,7286.0,-1173.0,2891.0,186.0,-19.0,-1029.0,983.0,-135.0,-328.0,0.8666,-0.140831,0.478625,14560.0,-2384.0,5768.0,-14.0,3.0,3.0
2891.0,2823.0,2903.0,3138.0,2995.0,0.859558,-0.078796,-0.504822,0.005432,-1.0,0.0,-1.0,7269.0,-1171.0,2879.0,166.0,-16.0,-1035.0,979.0,-135.0,-348.0,0.866991,-0.140945,0.477816,14384.0,-2310.0,5660.0,-6.0,10.0,-2.0
2891.0,2827.0,2887.0,3143.0,2981.0,0.85907,-0.078918,-0.505676,0.005432,0.0,-1.0,0.0,7230.0,-1178.0,2868.0,119.0,-22.0,-1032.0,954.0,-145.0,-384.0,0.867965,-0.141087,0.476094,14454.0,-2406.0,5848.0,5.0,-13.0,1.0
2880.0,2829.0,2895.0,3143.0,2989.0,0.858826,-0.078918,-0.506104,0.005493,0.0,-1.0,0.0,7223.0,-1171.0,2866.0,108.0,-14.0,-1027.0,945.0,-137.0,-392.0,0.868442,-0.141115,0.475243,14454.0,-2270.0,5740.0,12.0,-17.0,5.0
2896.0,2826.0,2893.0,3141.0,2987.0,0.858337,-0.078979,-0.506958,0.005554,-1.0,-1.0,0.0,7252.0,-1134.0,2903.0,129.0,22.0,-976.0,914.0,-93.0,-353.0,0.869405,-0.141214,0.47353,14566.0,-2186.0,5888.0,-3.0,-4.0,7.0
2889.0,2827.0,2897.0,3139.0,2991.0,0.858093,-0.079041,-0.507324,0.005554,-1.0,0.0,0.0,7252.0,-1142.0,2906.0,126.0,15.0,-966.0,904.0,-99.0,-349.0,0.869785,-0.141284,0.47273,14470.0,-2372.0,5774.0,-9.0,2.0,7.0
2887.0,2831.0,2896.0,3135.0,2981.0,0.857666,-0.079224,-0.507996,0.005554,-1.0,0.0,0.0,7272.0,-1167.0,2911.0,140.0,-7.0,-949.0,895.0,-117.0,-324.0,0.870501,-0.141538,0.471286,14598.0,-2318.0,5832.0,-2.0,8.0,0.0
2883.0,2827.0,2891.0,3139.0,2991.0,0.857483,-0.079285,-0.508362,0.005493,-1.0,0.0,0.0,7264.0,-1166.0,2905.0,129.0,-6.0,-950.0,890.0,-118.0,-333.0,0.870952,-0.141556,0.470589,14432.0,-2342.0,5782.0,-8.0,11.0,0.0
2887.0,2831.0,2892.0,3150.0,2997.0,0.856995,-0.07959,-0.509033,0.005493,-1.0,-1.0,0.0,7224.0,-1198.0,2882.0,83.0,-34.0,-960.0,875.0,-151.0,-373.0,0.871603,-0.142009,0.469021,14362.0,-2500.0,5628.0,-6.0,-12.0,6.0
2891.0,2831.0,2899.0,3138.0,2987.0,0.85675,-0.079651,-0.509521,0.005554,0.0,-1.0,0.0,7229.0,-1206.0,2877.0,84.0,-41.0,-957.0,873.0,-158.0,-368.0,0.872181,-0.142142,0.468096,14546.0,-2440.0,5732.0,9.0,-19.0,4.0
2877.0,2827.0,2885.0,3139.0,2999.0,0.856262,-0.079651,-0.510315,0.005615,0.0,0.0,-1.0,7264.0,-1199.0,2875.0,112.0,-34.0,-946.0,878.0,-147.0,-338.0,0.873032,-0.142135,0.466451,14630.0,-2418.0,5706.0,10.0,8.0,-8.0
2887.0,2827.0,2895.0,3139.0,2995.0,0.856079,-0.079651,-0.51062,0.005554,0.0,0.0,-1.0,7271.0,-1205.0,2873.0,116.0,-41.0,-943.0,877.0,-153.0,-332.0,0.873378,-0.142047,0.465825,14560.0,-2454.0,5766.0,7.0,17.0,-14.0
2889.0,2831.0,2895.0,3135.0,2991.0,0.855774,-0.079651,-0.511108,0.005432,-1.0,0.0,-1.0,7256.0,-1168.0,2880.0,96.0,-5.0,-927.0,857.0,-117.0,-346.0,0.873921,-0.141879,0.464803,14476.0,-2204.0,5766.0,-7.0,22.0,-18.0
2905.0,2823.0,2895.0,3143.0,2991.0,0.855652,-0.079712,-0.511353,0.005249,-1.0,1.0,-1.0,7239.0,-1154.0,2889.0,77.0,7.0,-914.0,837.0,-105.0,-358.0,0.874243,-0.141779,0.464332,14334.0,-2246.0,5798.0,-19.0,23.0,-16.0
2887.0,2826.0,2896.0,3149.0,2990.0,0.855286,-0.079895,-0.511902,0.005066,-1.0,0.0,-1.0,7215.0,-1155.0,2908.0,48.0,7.0,-885.0,799.0,-105.0,-368.0,0.874835,-0.141853,0.463112,14400.0,-2286.0,5902.0,-11.0,7.0,-5.0
2893.0,2826.0,2891.0,3135.0,2991.0,0.855103,-0.079956,-0.512207,0.005005,-1.0,0.0,-1.0,7224.0,-1142.0,2917.0,54.0,20.0,-871.0,790.0,-90.0,-358.0,0.875179,-0.141868,0.462476,14548.0,-2194.0,5906.0,-4.0,2.0,-5.0
2902.0,2831.0,2897.0,3137.0,2987.0,0.854736,-0.079956,-0.512817,0.004944,-1.0,-1.0,-1.0,7245.0,-1119.0,2932.0,69.0,42.0,-846.0,778.0,-63.0,-335.0,0.875857,-0.141753,0.461224,14618.0,-2192.0,5910.0,-3.0,-4.0,-5.0
2890.0,2832.0,2896.0,3143.0,2992.0,0.854553,-0.079956,-0.513184,0.004883,-1.0,-1.0,-1.0,7248.0,-1110.0,2926.0,69.0,50.0,-846.0,779.0,-55.0,-336.0,0.876305,-0.141665,0.460535,14522.0,-2172.0,5864.0,-1.0,-7.0,-6.0
2893.0,2821.0,2894.0,3135.0,2995.0,0.854126,-0.080017,-0.513855,0.004822,-1.0,-1.0,0.0,7260.0,-1113.0,2911.0,75.0,47.0,-849.0,784.0,-58.0,-330.0,0.877022,-0.141645,0.459105,14512.0,-2262.0,5742.0,-1.0,-1.0,6.0
2885.0,2827.0,2891.0,3139.0,2997.0,0.853882,-0.080078,-0.514221,0.004883,-1.0,-1.0,0.0,7247.0,-1122.0,2897.0,59.0,39.0,-857.0,783.0,-69.0,-346.0,0.877386,-0.141776,0.458302,14426.0,-2274.0,5702.0,-2.0,-5.0,13.0
2889.0,2827.0,2892.0,3143.0,2992.0,0.853455,-0.080261,-0.514893,0.004944,-1.0,-1.0,0.0,7253.0,-1143.0,2880.0,59.0,20.0,-862.0,787.0,-88.0,-344.0,0.878081,-0.14209,0.456853,14574.0,-2430.0,5778.0,-6.0,-6.0,6.0
2891.0,2827.0,2903.0,3139.0,2991.0,0.853271,-0.080383,-0.515259,0.004944,-1.0,0.0,0.0,7260.0,-1164.0,2865.0,63.0,1.0,-871.0,796.0,-108.0,-342.0,0.878516,-0.142272,0.456144,14548.0,-2428.0,5620.0,-1.0,2.0,5.0
2887.0,2831.0,2893.0,3135.0,2987.0,0.852844,-0.080383,-0.515869,0.004944,0.0,0.0,-1.0,7266.0,-1191.0,2858.0,64.0,-26.0,-867.0,791.0,-134.0,-334.0,0.879117,-0.14221,0.454785,14624.0,-2426.0,5764.0,12.0,11.0,-12.0
2887.0,2831.0,2899.0,3143.0,2991.0,0.852722,-0.080383,-0.516113,0.004944,0.0,1.0,-1.0,7282.0,-1199.0,2873.0,77.0,-34.0,-848.0,780.0,-138.0,-312.0,0.879408,-0.142192,0.454325,14666.0,-2464.0,5838.0,17.0,23.0,-17.0
2881.0,2829.0,2899.0,3147.0,2997.0,0.852539,-0.080139,-0.516418,0.004883,1.0,1.0,-1.0,7233.0,-1199.0,2907.0,26.0,-38.0,-810.0,723.0,-141.0,-339.0,0.879751,-0.141687,0.453736,14264.0,-2368.0,5894.0,33.0,23.0,-21.0
2886.0,2827.0,2893.0,3151.0,2990.0,0.852478,-0.079956,-0.516602,0.004883,1.0,0.0,-1.0,7222.0,-1180.0,2930.0,13.0,-21.0,-784.0,695.0,-122.0,-341.0,0.880002,-0.141366,0.453472,14362.0,-2226.0,6012.0,32.0,12.0,-19.0
2887.0,2821.0,2894.0,3143.0,2990.0,0.852112,-0.079834,-0.517151,0.004883,0.0,-1.0,0.0,7204.0,-1139.0,2972.0,-9.0,16.0,-733.0,643.0,-81.0,-341.0,0.880561,-0.141105,0.4523,14502.0,-2144.0,6110.0,2.0,-18.0,0.0
2887.0,2831.0,2895.0,3139.0,2993.0,0.851929,-0.079895,-0.517517,0.004822,-1.0,-1.0,0.0,7229.0,-1134.0,2984.0,11.0,22.0,-715.0,637.0,-71.0,-316.0,0.881005,-0.14112,0.451599,14588.0,-2260.0,6002.0,-14.0,-14.0,1.0
2893.0,2831.0,2896.0,3143.0,2998.0,0.851562,-0.080139,-0.518127,0.004761,-1.0,-1.0,0.0,7235.0,-1149.0,2965.0,12.0,9.0,-723.0,644.0,-85.0,-316.0,0.881673,-0.14142,0.450303,14418.0,-2356.0,5860.0,-21.0,-8.0,2.0
2897.0,2829.0,2899.0,3141.0,2992.0,0.851318,-0.080261,-0.518433,0.004761,-1.0,-1.0,-1.0,7223.0,-1176.0,2938.0,-1.0,-16.0,-744.0,655.0,-113.0,-333.0,0.881938,-0.141592,0.449551,14374.0,-2538.0,5728.0,-13.0,-13.0,-4.0
2887.0,2821.0,2887.0,3147.0,2987.0,0.850891,-0.080322,-0.519165,0.0047,0.0,-1.0,-1.0,7239.0,-1192.0,2896.0,7.0,-32.0,-774.0,685.0,-132.0,-336.0,0.882751,-0.141571,0.448054,14576.0,-2312.0,5764.0,19.0,-12.0,-18.0
2886.0,2829.0,2898.0,3135.0,2998.0,0.850708,-0.0802,-0.51947,0.0047,0.0,0.0,-1.0,7242.0,-1161.0,2881.0,7.0,-3.0,-784.0,696.0,-105.0,-344.0,0.883081,-0.141337,0.447445,14476.0,-2102.0,5676.0,18.0,4.0,-20.0
2896.0,2831.0,2898.0,3139.0,2983.0,0.850342,-0.080017,-0.52002,0.004456,0.0,0.0,-1.0,7233.0,-1118.0,2862.0,-6.0,34.0,-793.0,701.0,-71.0,-363.0,0.883676,-0.140718,0.446278,14500.0,-2172.0,5736.0,1.0,7.0,-16.0
2879.0,2823.0,2893.0,3142.0,2991.0,0.85022,-0.080017,-0.520264,0.004395,-1.0,0.0,-1.0,7244.0,-1094.0,2869.0,2.0,58.0,-783.0,698.0,-45.0,-355.0,0.883974,-0.140637,0.445816,14538.0,-2010.0,5784.0,-1.0,11.0,-10.0
2877.0,2821.0,2902.0,3131.0,3007.0,0.849976,-0.080139,-0.520691,0.004272,-1.0,0.0,0.0,7265.0,-1098.0,2884.0,19.0,54.0,-760.0,686.0,-45.0,-328.0,0.884464,-0.140682,0.444935,14522.0,-2290.0,5800.0,-11.0,20.0,7.0
2895.0,2828.0,2891.0,3135.0,2994.0,0.849854,-0.0802,-0.520874,0.004272,0.0,0.0,0.0,7254.0,-1112.0,2888.0,6.0,41.0,-753.0,673.0,-58.0,-335.0,0.884648,-0.140768,0.444527,14422.0,-2306.0,5778.0,2.0,19.0,6.0
2885.0,2823.0,2891.0,3147.0,2993.0,0.849548,-0.080139,-0.521301,0.004333,0.0,0.0,-1.0,7259.0,-1122.0,2903.0,8.0,30.0,-730.0,653.0,-65.0,-320.0,0.885047,-0.140682,0.443574,14610.0,-2264.0,5896.0,15.0,4.0,-3.0
2879.0,2815.0,2891.0,3147.0,2994.0,0.849426,-0.080078,-0.521545,0.004395,0.0,0.0,0.0,7270.0,-1120.0,2912.0,17.0,31.0,-718.0,646.0,-62.0,-307.0,0.885325,-0.140625,0.443122,14588.0,-2202.0,5868.0,11.0,8.0,5.0
2887.0,2821.0,2881.0,3139.0,2987.0,0.849182,-0.0802,-0.521973,0.004456,-1.0,0.0,0.0,7251.0,-1121.0,2920.0,-5.0,32.0,-702.0,622.0,-61.0,-319.0,0.885785,-0.140861,0.442243,14466.0,-2308.0,5890.0,-10.0,5.0,11.0
2887.0,2821.0,2896.0,3145.0,2995.0,0.84906,-0.080322,-0.522156,0.004456,-1.0,0.0,0.0,7252.0,-1124.0,2925.0,-5.0,31.0,-694.0,615.0,-61.0,-315.0,0.885967,-0.14105,0.441825,14556.0,-2246.0,5892.0,-12.0,7.0,9.0
2893.0,2827.0,2902.0,3150.0,2991.0,0.848816,-0.080566,-0.522461,0.004333,-1.0,1.0,-1.0,7250.0,-1154.0,2925.0,-10.0,3.0,-688.0,606.0,-88.0,-312.0,0.886248,-0.1413,0.441051,14438.0,-2424.0,5892.0,-16.0,26.0,-1.0
2879.0,2827.0,2903.0,3143.0,2993.0,0.848755,-0.080688,-0.522583,0.004272,-1.0,1.0,-1.0,7227.0,-1168.0,2914.0,-34.0,-9.0,-697.0,602.0,-104.0,-336.0,0.8864,-0.141435,0.440799,14326.0,-2402.0,5780.0,-7.0,23.0,-6.0
2891.0,2815.0,2894.0,3139.0,2999.0,0.848511,-0.080688,-0.522949,0.004272,0.0,0.0,-1.0,7190.0,-1168.0,2925.0,-74.0,-9.0,-679.0,568.0,-105.0,-363.0,0.886767,-0.141399,0.440002,14282.0,-2278.0,5916.0,8.0,2.0,-2.0
2887.0,2831.0,2917.0,3143.0,2999.0,0.848328,-0.080688,-0.523193,0.004272,0.0,-1.0,-1.0,7189.0,-1141.0,2941.0,-77.0,17.0,-658.0,551.0,-77.0,-359.0,0.886989,-0.141371,0.439436,14416.0,-2128.0,6020.0,6.0,-9.0,-4.0
2886.0,2831.0,2889.0,3135.0,2993.0,0.848083,-0.080688,-0.523682,0.00415,-1.0,-1.0,-1.0,7225.0,-1115.0,2964.0,-46.0,41.0,-628.0,540.0,-46.0,-322.0,0.887582,-0.141208,0.43851,14520.0,-2194.0,5972.0,-6.0,-2.0,-4.0
2890.0,2823.0,2897.0,3143.0,2993.0,0.8479,-0.080688,-0.523926,0.00415,-1.0,-1.0,-1.0,7229.0,-1124.0,2970.0,-43.0,32.0,-617.0,531.0,-54.0,-312.0,0.887804,-0.141181,0.437943,14484.0,-2316.0,5954.0,-4.0,-3.0,-1.0
2867.0,2827.0,2895.0,3139.0,2997.0,0.847595,-0.080811,-0.524414,0.004211,0.0,-1.0,0.0,7246.0,-1138.0,2972.0,-30.0,20.0,-607.0,528.0,-63.0,-294.0,0.888301,-0.141406,0.436895,14570.0,-2314.0,5978.0,4.0,-10.0,7.0
2887.0,2830.0,2894.0,3143.0,2993.0,0.847412,-0.080811,-0.524658,0.004272,0.0,-1.0,0.0,7249.0,-1127.0,2973.0,-29.0,31.0,-601.0,524.0,-51.0,-292.0,0.888513,-0.141443,0.436329,14494.0,-2134.0,5946.0,5.0,-11.0,7.0
2886.0,2829.0,2896.0,3139.0,2992.0,0.847107,-0.080872,-0.525208,0.00415,-1.0,-1.0,-1.0,7262.0,-1120.0,2939.0,-21.0,38.0,-626.0,550.0,-47.0,-296.0,0.889143,-0.141373,0.435224,14512.0,-2332.0,5672.0,-12.0,-8.0,-8.0
2887.0,2819.0,2895.0,3143.0,2993.0,0.846924,-0.080933,-0.525513,0.00415,-1.0,-1.0,-1.0,7253.0,-1133.0,2927.0,-33.0,25.0,-633.0,551.0,-62.0,-307.0,0.889467,-0.14145,0.434584,14448.0,-2286.0,5806.0,-1.0,-13.0,-2.0
2887.0,2819.0,2893.0,3115.0,2983.0,0.846497,-0.080933,-0.526123,0.004089,0.0,-1.0,0.0,7236.0,-1119.0,2916.0,-55.0,38.0,-632.0,541.0,-51.0,-328.0,0.890061,-0.141321,0.433218,14402.0,-2254.0,5748.0,1.0,-22.0,0.0
2883.0,2825.0,2895.0,3143.0,2991.0,0.846313,-0.080933,-0.526489,0.00415,-1.0,-2.0,0.0,7236.0,-1113.0,2911.0,-58.0,45.0,-632.0,541.0,-44.0,-331.0,0.890478,-0.141359,0.432523,14488.0,-2158.0,5824.0,0.0,-28.0,1.0
2883.0,2827.0,2896.0,3147.0,2993.0,0.845886,-0.080933,-0.527161,0.00415,0.0,-1.0,-1.0,7243.0,-1123.0,2907.0,-57.0,34.0,-624.0,534.0,-54.0,-324.0,0.891164,-0.141295,0.431092,14478.0,-2272.0,5794.0,13.0,-21.0,-2.0
2892.0,2823.0,2895.0,3139.0,2986.0,0.845703,-0.080872,-0.527466,0.00415,0.0,-2.0,0.0,7252.0,-1096.0,2910.0,-51.0,60.0,-616.0,532.0,-27.0,-319.0,0.891488,-0.141165,0.430471,14596.0,-1962.0,5862.0,16.0,-23.0,1.0
2891.0,2829.0,2890.0,3135.0,2983.0,0.845337,-0.080872,-0.528015,0.004089,-1.0,-1.0,0.0,7260.0,-1073.0,2896.0,-47.0,82.0,-620.0,539.0,-5.0,-319.0,0.89204,-0.141046,0.429271,14466.0,-2222.0,5732.0,-14.0,-7.0,7.0
2889.0,2830.0,2893.0,3143.0,2993.0,0.845154,-0.080994,-0.52832,0.00415,-1.0,-1.0,0.0,7241.0,-1105.0,2880.0,-69.0,52.0,-631.0,537.0,-38.0,-339.0,0.892352,-0.14129,0.42862,14346.0,-2410.0,5644.0,-5.0,-14.0,12.0
2890.0,2829.0,2896.0,3155.0,2993.0,0.844788,-0.080933,-0.528931,0.004395,1.0,-1.0,0.0,7252.0,-1127.0,2866.0,-63.0,31.0,-634.0,541.0,-59.0,-331.0,0.892957,-0.141391,0.427368,14642.0,-2264.0,5724.0,34.0,-17.0,4.0
2893.0,2823.0,2890.0,3135.0,2995.0,0.844604,-0.080811,-0.529175,0.004456,1.0,-1.0,0.0,7269.0,-1110.0,2870.0,-47.0,46.0,-626.0,542.0,-41.0,-315.0,0.893167,-0.141221,0.42682,14650.0,-2064.0,5760.0,32.0,-3.0,8.0
2883.0,2822.0,2891.0,3135.0,2992.0,0.844421,-0.080811,-0.529541,0.004578,-1.0,0.0,0.0,7239.0,-1077.0,2876.0,-81.0,80.0,-614.0,520.0,-9.0,-345.0,0.893572,-0.141324,0.426124,14332.0,-2170.0,5762.0,-16.0,2.0,21.0
2887.0,2829.0,2897.0,3143.0,2993.0,0.844238,-0.080994,-0.529785,0.004578,-2.0,-1.0,1.0,7221.0,-1098.0,2875.0,-100.0,62.0,-610.0,507.0,-28.0,-357.0,0.893788,-0.141606,0.425527,14354.0,-2350.0,5710.0,-28.0,-10.0,29.0
2891.0,2826.0,2895.0,3139.0,2993.0,0.843933,-0.081421,-0.530212,0.004761,0.0,0.0,0.0,7250.0,-1175.0,2886.0,-74.0,-7.0,-591.0,496.0,-92.0,-316.0,0.894152,-0.142476,0.424491,14626.0,-2478.0,5852.0,3.0,2.0,16.0
2885.0,2822.0,2893.0,3115.0,2992.0,0.843872,-0.081421,-0.530334,0.004883,0.0,0.0,0.0,7260.0,-1178.0,2883.0,-65.0,-9.0,-592.0,501.0,-93.0,-308.0,0.894274,-0.142597,0.42426,14526.0,-2352.0,5700.0,17.0,19.0,5.0
2890.0,2827.0,2895.0,3135.0,2992.0,0.843689,-0.08136,-0.530579,0.004883,0.0,0.0,-1.0,7240.0,-1156.0,2895.0,-87.0,11.0,-575.0,478.0,-73.0,-323.0,0.894492,-0.142466,0.423702,14440.0,-2224.0,5858.0,6.0,7.0,-1.0
2887.0,2827.0,2891.0,3179.0,2991.0,0.843567,-0.08136,-0.530762,0.004883,-1.0,-1.0,0.0,7245.0,-1143.0,2910.0,-84.0,23.0,-557.0,464.0,-58.0,-314.0,0.894671,-0.142448,0.423302,14516.0,-2206.0,5898.0,-5.0,0.0,1.0
2893.0,2831.0,2896.0,3135.0,2993.0,0.843323,-0.081543,-0.531128,0.004761,-2.0,-1.0,0.0,7245.0,-1136.0,2929.0,-87.0,32.0,-531.0,440.0,-47.0,-306.0,0.895048,-0.142591,0.42247,14478.0,-2330.0,5896.0,-25.0,-5.0,4.0
2891.0,2827.0,2895.0,3139.0,2992.0,0.843201,-0.081726,-0.531311,0.004761,-1.0,-1.0,0.0,7234.0,-1153.0,2932.0,-99.0,17.0,-525.0,429.0,-62.0,-312.0,0.895226,-0.142882,0.422039,14378.0,-2434.0,5848.0,-22.0,-11.0,6.0
2885.0,2829.0,2895.0,3138.0,2993.0,0.842834,-0.081848,-0.53186,0.004822,0.0,-1.0,-1.0,7237.0,-1193.0,2947.0,-100.0,-20.0,-500.0,403.0,-95.0,-297.0,0.895751,-0.143098,0.420819,14528.0,-2404.0,5948.0,16.0,-21.0,-4.0
2887.0,2831.0,2897.0,3143.0,2995.0,0.842712,-0.081726,-0.532104,0.004822,0.0,-1.0,-1.0,7259.0,-1172.0,2958.0,-81.0,-1.0,-485.0,400.0,-73.0,-276.0,0.896034,-0.142875,0.420373,14636.0,-2180.0,5972.0,22.0,-18.0,-7.0
2887.0,2831.0,2897.0,3143.0,2993.0,0.842407,-0.081604,-0.532532,0.004761,0.0,-1.0,-1.0,7255.0,-1133.0,2940.0,-88.0,34.0,-495.0,409.0,-40.0,-291.0,0.89644,-0.142558,0.419423,14492.0,-2214.0,5800.0,2.0,-13.0,-11.0
2889.0,2825.0,2895.0,3143.0,2994.0,0.842285,-0.081604,-0.532776,0.004761,-1.0,-1.0,-1.0,7243.0,-1122.0,2920.0,-102.0,45.0,-512.0,419.0,-33.0,-312.0,0.896721,-0.14254,0.418958,14420.0,-2178.0,5712.0,-5.0,-13.0,-5.0
2891.0,2827.0,2896.0,3143.0,2994.0,0.84198,-0.081665,-0.533325,0.0047,0.0,-1.0,-1.0,7225.0,-1123.0,2890.0,-125.0,44.0,-533.0,428.0,-39.0,-341.0,0.897331,-0.142534,0.417847,14432.0,-2238.0,5772.0,3.0,-13.0,-1.0
2885.0,2822.0,2895.0,3147.0,2989.0,0.841797,-0.081604,-0.533569,0.0047,0.0,-1.0,0.0,7226.0,-1116.0,2885.0,-126.0,50.0,-533.0,428.0,-33.0,-342.0,0.897547,-0.142403,0.417289,14450.0,-2216.0,5802.0,6.0,-14.0,2.0
2887.0,2826.0,2895.0,3139.0,2991.0,0.841553,-0.081543,-0.533936,0.004883,1.0,-1.0,0.0,7247.0,-1104.0,2884.0,-108.0,63.0,-527.0,432.0,-17.0,-325.0,0.897874,-0.14246,0.416498,14582.0,-2120.0,5844.0,25.0,-1.0,10.0
2891.0,2829.0,2893.0,3139.0,2992.0,0.841492,-0.081421,-0.534119,0.004944,0.0,0.0,0.0,7246.0,-1084.0,2888.0,-111.0,81.0,-521.0,427.0,0.0,-328.0,0.898108,-0.142311,0.416221,14454.0,-2042.0,5804.0,18.0,3.0,10.0
2887.0,2829.0,2891.0,3133.0,2992.0,0.841248,-0.081421,-0.534424,0.005066,0.0,-1.0,0.0,7244.0,-1087.0,2896.0,-115.0,79.0,-507.0,413.0,0.0,-325.0,0.898341,-0.142405,0.415485,14446.0,-2262.0,5782.0,7.0,-3.0,13.0
2887.0,2830.0,2896.0,3147.0,2993.0,0.841125,-0.081421,-0.534607,0.005127,0.0,-1.0,0.0,7252.0,-1105.0,2895.0,-108.0,61.0,-505.0,413.0,-16.0,-315.0,0.898508,-0.142452,0.415084,14600.0,-2320.0,5808.0,11.0,-6.0,20.0
2891.0,2831.0,2897.0,3143.0,2994.0,0.840942,-0.081421,-0.534912,0.005432,0.0,0.0,0.0,7260.0,-1138.0,2899.0,-102.0,31.0,-496.0,405.0,-44.0,-301.0,0.898776,-0.142752,0.414453,14498.0,-2318.0,5792.0,18.0,1.0,15.0
2887.0,2826.0,2895.0,3139.0,2991.0,0.84082,-0.081421,-0.535095,0.005493,0.0,-1.0,0.0,7248.0,-1147.0,2895.0,-116.0,22.0,-496.0,398.0,-54.0,-312.0,0.898943,-0.142799,0.414053,14408.0,-2350.0,5770.0,11.0,-9.0,10.0
2885.0,2823.0,2895.0,3139.0,2993.0,0.840515,-0.081482,-0.535583,0.005676,0.0,-1.0,0.0,7263.0,-1173.0,2896.0,-104.0,-1.0,-487.0,394.0,-74.0,-294.0,0.899407,-0.143054,0.413009,14624.0,-2424.0,5810.0,8.0,-18.0,8.0
2887.0,2831.0,2897.0,3142.0,2993.0,0.840393,-0.081482,-0.535767,0.005737,0.0,-1.0,0.0,7280.0,-1176.0,2900.0,-89.0,-3.0,-480.0,394.0,-74.0,-277.0,0.899574,-0.143101,0.412608,14658.0,-2360.0,5832.0,12.0,-9.0,6.0
2887.0,2829.0,2898.0,3143.0,2998.0,0.840149,-0.081482,-0.536133,0.005859,0.0,-1.0,0.0,7262.0,-1170.0,2901.0,-110.0,3.0,-472.0,379.0,-69.0,-293.0,0.899908,-0.143197,0.411807,14496.0,-2332.0,5824.0,8.0,-12.0,5.0
2885.0,2827.0,2895.0,3135.0,2993.0,0.840027,-0.081543,-0.536316,0.00592,0.0,-1.0,0.0,7271.0,-1157.0,2916.0,-102.0,17.0,-454.0,367.0,-52.0,-281.0,0.900074,-0.143347,0.411396,14610.0,-2196.0,5936.0,4.0,-9.0,4.0
2895.0,2827.0,2895.0,3135.0,2992.0,0.839844,-0.081604,-0.536621,0.005798,-1.0,-1.0,-1.0,7249.0,-1162.0,2907.0,-127.0,11.0,-457.0,359.0,-61.0,-303.0,0.900409,-0.143292,0.41075,14390.0,-2498.0,5776.0,-15.0,0.0,-3.0
2897.0,2829.0,2899.0,3143.0,2993.0,0.839722,-0.081665,-0.536804,0.005798,-1.0,-1.0,-1.0,7237.0,-1174.0,2913.0,-140.0,0.0,-448.0,345.0,-72.0,-309.0,0.900585,-0.143377,0.410338,14442.0,-2372.0,5880.0,-2.0,-7.0,-2.0
2887.0,2829.0,2897.0,3143.0,2993.0,0.839478,-0.081665,-0.53717,0.005798,0.0,-2.0,-1.0,7198.0,-1146.0,2907.0,-182.0,28.0,-447.0,328.0,-48.0,-351.0,0.900938,-0.143341,0.409535,14276.0,-2154.0,5752.0,3.0,-24.0,-2.0
2887.0,2827.0,2896.0,3139.0,2991.0,0.839294,-0.081665,-0.537476,0.005798,-1.0,-2.0,0.0,7214.0,-1126.0,2913.0,-169.0,48.0,-436.0,326.0,-26.0,-337.0,0.901253,-0.143315,0.4089,14596.0,-2142.0,5878.0,-14.0,-37.0,4.0
2887.0,2825.0,2895.0,3143.0,2993.0,0.838928,-0.081848,-0.537964,0.005798,-1.0,-1.0,0.0,7248.0,-1131.0,2902.0,-138.0,45.0,-438.0,341.0,-26.0,-309.0,0.901677,-0.143568,0.40773,14478.0,-2318.0,5748.0,-5.0,-19.0,5.0
2887.0,2829.0,2893.0,3147.0,2994.0,0.838806,-0.081848,-0.538208,0.005798,0.0,-1.0,0.0,7250.0,-1129.0,2890.0,-138.0,46.0,-446.0,348.0,-26.0,-312.0,0.901955,-0.143551,0.407262,14542.0,-2220.0,5720.0,10.0,-17.0,2.0
2887.0,2823.0,2895.0,3143.0,2992.0,0.838562,-0.081726,-0.538574,0.005859,0.0,-1.0,0.0,7257.0,-1078.0,2877.0,-134.0,96.0,-452.0,359.0,22.0,-318.0,0.902298,-0.143376,0.406479,14512.0,-1972.0,5728.0,3.0,-8.0,0.0
2887.0,2829.0,2893.0,3143.0,2991.0,0.83844,-0.081726,-0.538818,0.005798,-1.0,-1.0,0.0,7255.0,-1061.0,2873.0,-138.0,112.0,-453.0,360.0,37.0,-324.0,0.902586,-0.143293,0.406011,14482.0,-2046.0,5738.0,-15.0,-12.0,6.0
2887.0,2827.0,2891.0,3139.0,2991.0,0.838135,-0.08197,-0.539246,0.005798,-1.0,-1.0,0.0,7267.0,-1100.0,2863.0,-130.0,76.0,-454.0,362.0,2.0,-312.0,0.90297,-0.143658,0.404999,14556.0,-2404.0,5710.0,-12.0,-13.0,20.0
2887.0,2827.0,2895.0,3135.0,2992.0,0.838013,-0.082031,-0.539429,0.00592,0.0,-1.0,0.0,7249.0,-1114.0,2855.0,-149.0,64.0,-459.0,358.0,-11.0,-329.0,0.903125,-0.143874,0.404588,14390.0,-2264.0,5642.0,8.0,-17.0,16.0
2892.0,2826.0,2896.0,3143.0,2995.0,0.837708,-0.082031,-0.539856,0.006104,0.0,-2.0,0.0,7258.0,-1117.0,2871.0,-143.0,62.0,-435.0,339.0,-9.0,-313.0,0.903481,-0.144026,0.403618,14522.0,-2306.0,5770.0,7.0,-23.0,16.0
2887.0,2830.0,2897.0,3139.0,2995.0,0.837524,-0.082092,-0.5401,0.006226,0.0,-2.0,0.0,7254.0,-1139.0,2871.0,-148.0,42.0,-430.0,331.0,-29.0,-313.0,0.903672,-0.144233,0.403039,14490.0,-2398.0,5710.0,13.0,-24.0,18.0
2887.0,2823.0,2896.0,3138.0,2994.0,0.83728,-0.082031,-0.540588,0.006531,0.0,-1.0,0.0,7266.0,-1130.0,2880.0,-141.0,53.0,-414.0,320.0,-15.0,-301.0,0.904177,-0.144427,0.402116,14606.0,-2146.0,5852.0,20.0,-20.0,11.0
2895.0,2831.0,2895.0,3143.0,2994.0,0.837158,-0.08197,-0.540771,0.006592,0.0,-1.0,0.0,7265.0,-1122.0,2879.0,-143.0,60.0,-411.0,317.0,-8.0,-303.0,0.904342,-0.144373,0.401724,14484.0,-2204.0,5720.0,5.0,-17.0,11.0
2883.0,2827.0,2893.0,3143.0,2995.0,0.836853,-0.082153,-0.541199,0.006592,-2.0,-1.0,0.0,7263.0,-1108.0,2888.0,-148.0,76.0,-394.0,301.0,8.0,-302.0,0.904725,-0.144635,0.400721,14566.0,-2218.0,5792.0,-25.0,-22.0,14.0
2887.0,2830.0,2895.0,3139.0,2991.0,0.83667,-0.082336,-0.541382,0.006592,-2.0,-1.0,0.0,7266.0,-1128.0,2872.0,-146.0,59.0,-406.0,312.0,-9.0,-303.0,0.90483,-0.144914,0.400186,14552.0,-2412.0,5636.0,-32.0,-22.0,12.0
2890.0,2823.0,2891.0,3139.0,2994.0,0.836365,-0.082642,-0.54187,0.006592,-1.0,-2.0,0.0,7267.0,-1193.0,2852.0,-149.0,-2.0,-417.0,316.0,-71.0,-301.0,0.905313,-0.145381,0.399097,14576.0,-2608.0,5680.0,0.0,-24.0,2.0
2885.0,2823.0,2891.0,3139.0,2992.0,0.836182,-0.082581,-0.542114,0.006714,0.0,-1.0,-1.0,7268.0,-1209.0,2844.0,-149.0,-18.0,-420.0,318.0,-87.0,-299.0,0.905503,-0.145384,0.398537,14558.0,-2464.0,5638.0,22.0,-21.0,-1.0
2886.0,2822.0,2893.0,3135.0,2991.0,0.835938,-0.082397,-0.54248,0.006836,0.0,-1.0,0.0,7292.0,-1170.0,2836.0,-128.0,19.0,-422.0,332.0,-49.0,-286.0,0.905833,-0.145175,0.397764,14584.0,-2188.0,5630.0,17.0,-6.0,3.0
2887.0,2829.0,2896.0,3139.0,2992.0,0.835876,-0.082397,-0.542664,0.006836,0.0,-1.0,0.0,7284.0,-1165.0,2825.0,-138.0,24.0,-431.0,336.0,-46.0,-299.0,0.906073,-0.145167,0.397463,14512.0,-2348.0,5588.0,2.0,-2.0,6.0
2893.0,2826.0,2891.0,3139.0,2989.0,0.835693,-0.082458,-0.542908,0.006897,0.0,0.0,-1.0,7282.0,-1186.0,2815.0,-142.0,4.0,-436.0,338.0,-67.0,-302.0,0.906271,-0.145309,0.396883,14588.0,-2402.0,5582.0,10.0,5.0,-1.0
2885.0,2832.0,2899.0,3149.0,2993.0,0.835632,-0.082397,-0.54303,0.006958,0.0,0.0,-1.0,7276.0,-1167.0,2813.0,-149.0,23.0,-436.0,336.0,-49.0,-311.0,0.9064,-0.145265,0.396659,14490.0,-2186.0,5612.0,10.0,12.0,-2.0
2894.0,2826.0,2894.0,3139.0,2995.0,0.83551,-0.082458,-0.543213,0.006897,-1.0,0.0,0.0,7259.0,-1130.0,2830.0,-167.0,60.0,-416.0,314.0,-11.0,-324.0,0.906582,-0.145283,0.396245,14532.0,-2190.0,5742.0,-15.0,3.0,4.0
2887.0,2823.0,2893.0,3139.0,2991.0,0.835449,-0.08252,-0.543274,0.006836,-1.0,0.0,0.0,7263.0,-1146.0,2839.0,-164.0,44.0,-405.0,304.0,-26.0,-315.0,0.906627,-0.145309,0.396066,14546.0,-2408.0,5718.0,-15.0,7.0,6.0
2890.0,2827.0,2895.0,3135.0,2989.0,0.835327,-0.082581,-0.543457,0.006897,0.0,-1.0,-1.0,7251.0,-1156.0,2855.0,-177.0,35.0,-386.0,281.0,-33.0,-318.0,0.90679,-0.14546,0.395654,14454.0,-2290.0,5770.0,12.0,0.0,-4.0
2891.0,2826.0,2898.0,3143.0,2992.0,0.835266,-0.08252,-0.543579,0.006897,0.0,-1.0,-1.0,7260.0,-1155.0,2870.0,-169.0,35.0,-369.0,269.0,-30.0,-304.0,0.906928,-0.14535,0.395429,14622.0,-2290.0,5848.0,13.0,-7.0,-4.0
2891.0,2829.0,2879.0,3139.0,2991.0,0.835083,-0.082397,-0.543823,0.006958,0.0,-1.0,0.0,7278.0,-1130.0,2890.0,-153.0,59.0,-344.0,254.0,-2.0,-283.0,0.907128,-0.145185,0.394879,14596.0,-2130.0,5808.0,8.0,-2.0,3.0
2887.0,2829.0,2907.0,3147.0,2991.0,0.835022,-0.082397,-0.543945,0.006958,-1.0,-1.0,0.0,7286.0,-1110.0,2897.0,-146.0,79.0,-335.0,251.0,19.0,-276.0,0.907266,-0.145177,0.394644,14618.0,-2126.0,5818.0,0.0,-1.0,0.0
2893.0,2830.0,2896.0,3139.0,2991.0,0.8349,-0.082458,-0.544189,0.006897,-1.0,-1.0,0.0,7265.0,-1102.0,2879.0,-169.0,87.0,-349.0,255.0,23.0,-303.0,0.90755,-0.145196,0.394164,14466.0,-2144.0,5722.0,-7.0,-10.0,7.0
2896.0,2825.0,2887.0,3143.0,3006.0,0.834778,-0.082458,-0.544312,0.006897,-1.0,-1.0,0.0,7264.0,-1093.0,2870.0,-171.0,96.0,-356.0,261.0,31.0,-309.0,0.907621,-0.145177,0.393827,14544.0,-2134.0,5702.0,-9.0,-15.0,6.0
2891.0,2829.0,2894.0,3143.0,2992.0,0.834534,-0.082581,-0.544739,0.006897,-1.0,-1.0,0.0,7272.0,-1108.0,2850.0,-166.0,82.0,-368.0,273.0,16.0,-307.0,0.908067,-0.145347,0.392934,14578.0,-2274.0,5608.0,-8.0,-18.0,10.0
2885.0,2823.0,2896.0,3143.0,2995.0,0.834351,-0.082642,-0.544922,0.006897,-1.0,-1.0,0.0,7274.0,-1113.0,2837.0,-165.0,78.0,-377.0,282.0,11.0,-309.0,0.908172,-0.145421,0.392419,14536.0,-2228.0,5594.0,-1.0,-13.0,8.0
2891.0,2830.0,2899.0,3135.0,2991.0,0.834167,-0.082703,-0.545166,0.006958,-1.0,0.0,0.0,7278.0,-1119.0,2824.0,-163.0,73.0,-385.0,290.0,5.0,-309.0,0.908369,-0.145562,0.391838,14528.0,-2294.0,5668.0,-4.0,4.0,9.0
2895.0,2833.0,2897.0,3143.0,2979.0,0.834106,-0.082764,-0.545288,0.006958,-1.0,0.0,0.0,7258.0,-1120.0,2820.0,-184.0,73.0,-387.0,283.0,2.0,-329.0,0.908505,-0.145656,0.391593,14374.0,-2246.0,5612.0,-3.0,7.0,15.0
2887.0,2832.0,2893.0,3151.0,2995.0,0.833984,-0.082947,-0.54541,0.007019,-1.0,0.0,0.0,7272.0,-1122.0,2839.0,-170.0,74.0,-365.0,269.0,7.0,-308.0,0.908563,-0.146009,0.391227,14614.0,-2276.0,5700.0,-13.0,6.0,13.0
2890.0,2823.0,2896.0,3151.0,2983.0,0.833984,-0.083008,-0.545471,0.007019,-1.0,0.0,0.0,7277.0,-1128.0,2844.0,-166.0,68.0,-360.0,266.0,2.0,-301.0,0.908664,-0.146112,0.39115,14542.0,-2308.0,5716.0,-10.0,14.0,6.0
2895.0,2830.0,2898.0,3141.0,2995.0,0.833923,-0.08313,-0.545532,0.007019,-1.0,0.0,0.0,7268.0,-1161.0,2868.0,-176.0,37.0,-334.0,235.0,-25.0,-295.0,0.908697,-0.146306,0.390961,14584.0,-2384.0,5836.0,-1.0,6.0,2.0
2891.0,2825.0,2886.0,3131.0,2991.0,0.833862,-0.08313,-0.545593,0.007019,0.0,0.0,0.0,7276.0,-1171.0,2878.0,-168.0,27.0,-323.0,228.0,-32.0,-282.0,0.908732,-0.146297,0.390793,14612.0,-2408.0,5802.0,2.0,7.0,2.0
2883.0,2819.0,2889.0,3139.0,3003.0,0.833801,-0.083252,-0.545715,0.00708,-1.0,0.0,0.0,7277.0,-1188.0,2882.0,-168.0,12.0,-317.0,221.0,-46.0,-278.0,0.908857,-0.146559,0.390539,14494.0,-2426.0,5732.0,-2.0,11.0,9.0
2891.0,2832.0,2897.0,3151.0,2995.0,0.83374,-0.083252,-0.545776,0.00708,-1.0,0.0,0.0,7264.0,-1186.0,2878.0,-181.0,14.0,-319.0,218.0,-46.0,-291.0,0.908893,-0.146549,0.39037,14428.0,-2358.0,5750.0,0.0,4.0,4.0
2891.0,2833.0,2901.0,3143.0,2990.0,0.833618,-0.083252,-0.545959,0.007141,0.0,-1.0,0.0,7262.0,-1184.0,2876.0,-184.0,16.0,-318.0,216.0,-44.0,-293.0,0.909054,-0.146598,0.389968,14538.0,-2238.0,5714.0,16.0,-6.0,1.0
2893.0,2826.0,2881.0,3147.0,2999.0,0.833557,-0.083191,-0.546082,0.007202,0.0,-1.0,-1.0,7267.0,-1160.0,2875.0,-181.0,40.0,-317.0,219.0,-20.0,-293.0,0.909182,-0.146555,0.389744,14566.0,-2220.0,5726.0,7.0,-4.0,-2.0
2887.0,2815.0,2896.0,3151.0,2991.0,0.833435,-0.083191,-0.546326,0.007202,-1.0,-1.0,0.0,7262.0,-1161.0,2862.0,-188.0,39.0,-326.0,224.0,-23.0,-303.0,0.909456,-0.146538,0.389273,14484.0,-2320.0,5722.0,0.0,-6.0,8.0
2891.0,2823.0,2896.0,3143.0,2983.0,0.833313,-0.083252,-0.546448,0.007202,0.0,-1.0,0.0,7266.0,-1158.0,2866.0,-184.0,43.0,-320.0,221.0,-18.0,-298.0,0.909525,-0.146621,0.388926,14600.0,-2312.0,5798.0,2.0,-12.0,5.0
2887.0,2829.0,2891.0,3149.0,2997.0,0.833252,-0.083191,-0.54657,0.007263,0.0,0.0,-1.0,7289.0,-1156.0,2857.0,-162.0,44.0,-327.0,236.0,-16.0,-280.0,0.909652,-0.146578,0.388702,14470.0,-2278.0,5600.0,8.0,19.0,-2.0
2891.0,2829.0,2881.0,3135.0,2994.0,0.833191,-0.083191,-0.54657,0.007263,0.0,0.0,-1.0,7248.0,-1138.0,2846.0,-203.0,62.0,-337.0,230.0,-3.0,-324.0,0.909586,-0.146568,0.388601,14256.0,-2134.0,5658.0,4.0,10.0,-1.0
2896.0,2831.0,2895.0,3142.0,2993.0,0.833069,-0.083191,-0.546814,0.007141,-1.0,-1.0,0.0,7245.0,-1141.0,2851.0,-208.0,58.0,-328.0,220.0,-7.0,-325.0,0.909879,-0.146417,0.388128,14618.0,-2392.0,5702.0,-8.0,-9.0,2.0
2891.0,2823.0,2899.0,3142.0,2998.0,0.833008,-0.083252,-0.546936,0.007202,0.0,0.0,-1.0,7262.0,-1147.0,2855.0,-192.0,53.0,-322.0,220.0,-9.0,-307.0,0.910005,-0.146577,0.387884,14598.0,-2318.0,5734.0,4.0,2.0,-1.0
2887.0,2823.0,2896.0,3135.0,2999.0,0.832947,-0.083069,-0.546997,0.007202,0.0,0.0,-1.0,7286.0,-1150.0,2868.0,-169.0,48.0,-308.0,216.0,-10.0,-280.0,0.910042,-0.146263,0.387746,14584.0,-2224.0,5796.0,21.0,18.0,-8.0
2893.0,2839.0,2896.0,3143.0,2989.0,0.832947,-0.082947,-0.546997,0.007202,0.0,0.0,-1.0,7282.0,-1128.0,2871.0,-173.0,68.0,-305.0,214.0,9.0,-285.0,0.910044,-0.14606,0.387766,14510.0,-2122.0,5750.0,16.0,16.0,-6.0
2887.0,2830.0,2895.0,3135.0,3005.0,0.832886,-0.082947,-0.547119,0.007202,-1.0,0.0,0.0,7282.0,-1136.0,2879.0,-174.0,60.0,-295.0,204.0,2.0,-281.0,0.910181,-0.146051,0.387531,14618.0,-2380.0,5804.0,-1.0,1.0,9.0
2890.0,2829.0,2897.0,3143.0,2991.0,0.832825,-0.082947,-0.54718,0.007263,0.0,0.0,0.0,7275.0,-1147.0,2878.0,-181.0,49.0,-295.0,200.0,-8.0,-286.0,0.910205,-0.146109,0.387363,14482.0,-2340.0,5722.0,7.0,2.0,9.0
2889.0,2831.0,2895.0,3143.0,2992.0,0.832764,-0.082886,-0.547363,0.007324,0.0,-1.0,0.0,7248.0,-1159.0,2895.0,-210.0,37.0,-275.0,169.0,-20.0,-303.0,0.910434,-0.146066,0.387072,14484.0,-2292.0,5902.0,11.0,-12.0,0.0
2890.0,2826.0,2899.0,3151.0,2993.0,0.832642,-0.082886,-0.547485,0.007385,0.0,-1.0,-1.0,7247.0,-1164.0,2898.0,-211.0,32.0,-270.0,164.0,-25.0,-301.0,0.910494,-0.146115,0.386736,14466.0,-2378.0,5802.0,7.0,-13.0,-1.0
2891.0,2832.0,2899.0,3135.0,2993.0,0.83252,-0.082764,-0.547729,0.007446,0.0,-1.0,-1.0,7249.0,-1174.0,2879.0,-211.0,21.0,-285.0,177.0,-37.0,-305.0,0.910758,-0.145962,0.386287,14578.0,-2338.0,5730.0,17.0,-13.0,-6.0
2891.0,2825.0,2895.0,3151.0,2986.0,0.832458,-0.082703,-0.547852,0.007446,0.0,-1.0,-1.0,7265.0,-1169.0,2872.0,-197.0,25.0,-290.0,188.0,-33.0,-295.0,0.910896,-0.145852,0.386061,14644.0,-2298.0,5694.0,20.0,-1.0,-9.0
2883.0,2819.0,2897.0,3138.0,2991.0,0.832397,-0.082458,-0.547974,0.007507,0.0,0.0,-1.0,7269.0,-1153.0,2847.0,-194.0,38.0,-314.0,212.0,-22.0,-303.0,0.911026,-0.145504,0.385867,14510.0,-2270.0,5618.0,21.0,15.0,-8.0
2887.0,2821.0,2891.0,3131.0,2993.0,0.832397,-0.082336,-0.547974,0.007507,0.0,0.0,-1.0,7262.0,-1149.0,2841.0,-201.0,41.0,-320.0,215.0,-21.0,-312.0,0.911027,-0.145301,0.385887,14480.0,-2296.0,5634.0,22.0,14.0,-11.0
2885.0,2827.0,2909.0,3147.0,2991.0,0.832336,-0.082092,-0.548096,0.007446,0.0,0.0,-1.0,7249.0,-1099.0,2849.0,-215.0,87.0,-310.0,204.0,23.0,-328.0,0.911177,-0.144819,0.385691,14484.0,-2004.0,5706.0,6.0,2.0,-6.0
2895.0,2831.0,2896.0,3143.0,2994.0,0.832275,-0.082092,-0.548157,0.007385,-1.0,0.0,0.0,7256.0,-1085.0,2858.0,-208.0,100.0,-300.0,198.0,38.0,-319.0,0.911222,-0.144743,0.385522,14528.0,-2148.0,5742.0,-16.0,3.0,1.0
2887.0,2827.0,2899.0,3135.0,2999.0,0.832214,-0.082275,-0.548279,0.007324,-1.0,0.0,0.0,7262.0,-1124.0,2856.0,-203.0,63.0,-300.0,198.0,2.0,-309.0,0.911366,-0.144973,0.385256,14552.0,-2420.0,5706.0,-7.0,4.0,6.0
2885.0,2825.0,2896.0,3147.0,2999.0,0.832153,-0.082275,-0.54834,0.007385,0.0,0.0,0.0,7258.0,-1139.0,2854.0,-208.0,49.0,-300.0,195.0,-11.0,-312.0,0.91139,-0.145031,0.385088,14490.0,-2292.0,5716.0,15.0,3.0,7.0
2887.0,2827.0,2895.0,3137.0,2989.0,0.832031,-0.082214,-0.548523,0.007507,0.0,-1.0,0.0,7261.0,-1118.0,2868.0,-206.0,70.0,-283.0,182.0,11.0,-306.0,0.911542,-0.145046,0.384696,14598.0,-2242.0,5808.0,3.0,-9.0,6.0
2890.0,2827.0,2897.0,3135.0,3005.0,0.83197,-0.082214,-0.548584,0.007507,-1.0,-1.0,0.0,7275.0,-1117.0,2875.0,-192.0,71.0,-275.0,180.0,14.0,-291.0,0.911577,-0.145037,0.384527,14638.0,-2186.0,5774.0,-1.0,-2.0,6.0
2890.0,2829.0,2898.0,3139.0,2993.0,0.831909,-0.082275,-0.548706,0.007507,-1.0,0.0,0.0,7273.0,-1126.0,2877.0,-195.0,62.0,-271.0,175.0,6.0,-290.0,0.911712,-0.14513,0.384282,14538.0,-2238.0,5694.0,-7.0,2.0,5.0
2887.0,2829.0,2894.0,3135.0,2995.0,0.831848,-0.082336,-0.548767,0.007507,-1.0,-1.0,0.0,7271.0,-1131.0,2875.0,-198.0,58.0,-271.0,173.0,1.0,-293.0,0.911746,-0.145222,0.384103,14550.0,-2330.0,5756.0,-7.0,-1.0,6.0
2891.0,2826.0,2887.0,3151.0,2979.0,0.831787,-0.082458,-0.548889,0.007507,-1.0,0.0,0.0,7276.0,-1145.0,2875.0,-194.0,46.0,-269.0,172.0,-9.0,-286.0,0.91188,-0.145417,0.383847,14506.0,-2304.0,5698.0,-2.0,6.0,4.0
2891.0,2827.0,2903.0,3139.0,3001.0,0.831726,-0.082458,-0.54895,0.007507,0.0,0.0,0.0,7264.0,-1143.0,2875.0,-206.0,48.0,-268.0,166.0,-8.0,-297.0,0.911914,-0.145408,0.383679,14448.0,-2256.0,5708.0,1.0,1.0,4.0
2885.0,2823.0,2898.0,3139.0,2993.0,0.831604,-0.082397,-0.549133,0.007507,0.0,-1.0,-1.0,7257.0,-1144.0,2878.0,-214.0,46.0,-261.0,157.0,-10.0,-301.0,0.912086,-0.145289,0.383285,14532.0,-2352.0,5778.0,6.0,-7.0,-4.0
2893.0,2829.0,2886.0,3143.0,3005.0,0.831543,-0.082397,-0.549194,0.007568,0.0,-1.0,0.0,7255.0,-1147.0,2878.0,-217.0,43.0,-260.0,155.0,-13.0,-303.0,0.91211,-0.145347,0.383117,14496.0,-2304.0,5760.0,13.0,-7.0,0.0
2891.0,2831.0,2885.0,3135.0,2995.0,0.831482,-0.082275,-0.549377,0.007629,0.0,-1.0,0.0,7236.0,-1131.0,2890.0,-237.0,58.0,-246.0,135.0,1.0,-318.0,0.912339,-0.145204,0.382836,14420.0,-2200.0,5792.0,9.0,-15.0,0.0
2883.0,2830.0,2897.0,3147.0,2992.0,0.83136,-0.082214,-0.549561,0.007629,-1.0,-1.0,-1.0,7239.0,-1122.0,2893.0,-236.0,66.0,-239.0,130.0,10.0,-316.0,0.912511,-0.145085,0.382441,14522.0,-2210.0,5806.0,-4.0,-21.0,-1.0
2883.0,2832.0,2898.0,3141.0,2993.0,0.831177,-0.082336,-0.549805,0.007568,-1.0,-1.0,-1.0,7267.0,-1154.0,2874.0,-210.0,35.0,-254.0,152.0,-19.0,-293.0,0.912723,-0.145194,0.381848,14564.0,-2372.0,5594.0,-9.0,-12.0,-3.0
2879.0,2827.0,2895.0,3149.0,2979.0,0.831116,-0.082336,-0.549927,0.007507,0.0,-1.0,-1.0,7269.0,-1172.0,2855.0,-209.0,16.0,-271.0,166.0,-40.0,-296.0,0.912869,-0.145119,0.381611,14562.0,-2440.0,5590.0,2.0,-6.0,-9.0
2887.0,2831.0,2899.0,3143.0,2995.0,0.830994,-0.082214,-0.550049,0.007507,0.0,0.0,-1.0,7263.0,-1158.0,2832.0,-215.0,29.0,-291.0,183.0,-30.0,-311.0,0.91294,-0.144898,0.381294,14456.0,-2194.0,5592.0,13.0,11.0,-11.0
2890.0,2827.0,2896.0,3141.0,2995.0,0.830994,-0.082214,-0.55011,0.007446,0.0,0.0,-1.0,7251.0,-1143.0,2820.0,-228.0,43.0,-303.0,190.0,-19.0,-329.0,0.913051,-0.144832,0.381226,14418.0,-2200.0,5596.0,2.0,8.0,-5.0
2891.0,2831.0,2903.0,3135.0,2999.0,0.830872,-0.082214,-0.550232,0.007385,-1.0,-1.0,0.0,7251.0,-1143.0,2825.0,-229.0,42.0,-295.0,183.0,-20.0,-327.0,0.91313,-0.144746,0.380888,14592.0,-2340.0,5658.0,-4.0,-1.0,1.0
2906.0,2823.0,2898.0,3147.0,2997.0,0.830872,-0.082214,-0.550293,0.007385,0.0,0.0,-1.0,7273.0,-1143.0,2843.0,-208.0,42.0,-276.0,174.0,-15.0,-301.0,0.913231,-0.144747,0.380821,14698.0,-2268.0,5804.0,10.0,6.0,-2.0
2895.0,2829.0,2893.0,3141.0,2992.0,0.830933,-0.082031,-0.550293,0.007385,0.0,0.0,-1.0,7270.0,-1105.0,2865.0,-211.0,78.0,-255.0,156.0,22.0,-301.0,0.913301,-0.144453,0.380952,14484.0,-2054.0,5776.0,12.0,18.0,-5.0
2891.0,2829.0,2896.0,3143.0,2993.0,0.830933,-0.08197,-0.550293,0.007385,-1.0,0.0,0.0,7257.0,-1078.0,2870.0,-224.0,104.0,-250.0,148.0,47.0,-314.0,0.913302,-0.144352,0.380962,14454.0,-2004.0,5776.0,-3.0,8.0,0.0
2887.0,2827.0,2890.0,3135.0,2991.0,0.830811,-0.082092,-0.550415,0.007263,-1.0,-1.0,0.0,7258.0,-1073.0,2878.0,-224.0,109.0,-239.0,139.0,53.0,-311.0,0.913389,-0.144402,0.380603,14522.0,-2196.0,5722.0,-22.0,-9.0,6.0
2891.0,2821.0,2897.0,3149.0,2985.0,0.83075,-0.082153,-0.550476,0.007202,-1.0,-1.0,0.0,7271.0,-1095.0,2875.0,-211.0,88.0,-241.0,144.0,34.0,-297.0,0.913432,-0.144427,0.380424,14630.0,-2310.0,5716.0,-12.0,-7.0,1.0
2887.0,2831.0,2895.0,3143.0,2995.0,0.830627,-0.082153,-0.550659,0.007263,0.0,-1.0,0.0,7281.0,-1104.0,2865.0,-203.0,79.0,-248.0,153.0,25.0,-291.0,0.913592,-0.144477,0.38002,14588.0,-2182.0,5716.0,15.0,-6.0,2.0
2891.0,2827.0,2893.0,3147.0,2993.0,0.830566,-0.082031,-0.550781,0.007263,0.0,-1.0,0.0,7293.0,-1088.0,2868.0,-192.0,93.0,-243.0,154.0,40.0,-281.0,0.913729,-0.144266,0.379804,14650.0,-2060.0,5728.0,14.0,-3.0,4.0
2891.0,2823.0,2895.0,3139.0,2995.0,0.830505,-0.08197,-0.550842,0.007324,-1.0,0.0,0.0,7295.0,-1076.0,2872.0,-190.0,105.0,-238.0,151.0,53.0,-279.0,0.913754,-0.144222,0.379646,14618.0,-2158.0,5742.0,-2.0,4.0,9.0
2893.0,2829.0,2898.0,3135.0,2991.0,0.830505,-0.082031,-0.550903,0.007324,-1.0,0.0,0.0,7282.0,-1100.0,2864.0,-204.0,82.0,-245.0,150.0,28.0,-291.0,0.913855,-0.144325,0.379569,14466.0,-2406.0,5686.0,-1.0,10.0,5.0
2887.0,2821.0,2891.0,3133.0,2993.0,0.830444,-0.08197,-0.550964,0.007507,1.0,0.0,0.0,7253.0,-1113.0,2857.0,-233.0,70.0,-251.0,143.0,13.0,-318.0,0.91386,-0.144416,0.379413,14438.0,-2102.0,5764.0,23.0,1.0,7.0
2887.0,2831.0,2897.0,3143.0,2991.0,0.830444,-0.081909,-0.551025,0.007507,0.0,-1.0,0.0,7256.0,-1100.0,2866.0,-231.0,82.0,-241.0,136.0,26.0,-314.0,0.913962,-0.144315,0.379356,14556.0,-2158.0,5808.0,9.0,-1.0,10.0
2881.0,2827.0,2896.0,3143.0,2995.0,0.830383,-0.08197,-0.551086,0.00769,0.0,-1.0,0.0,7251.0,-1122.0,2867.0,-236.0,62.0,-239.0,131.0,6.0,-315.0,0.913965,-0.14461,0.37918,14494.0,-2322.0,5700.0,4.0,-1.0,18.0
2890.0,2826.0,2887.0,3139.0,2994.0,0.830322,-0.082031,-0.551147,0.007812,0.0,-1.0,0.0,7260.0,-1128.0,2869.0,-227.0,58.0,-235.0,130.0,3.0,-304.0,0.913978,-0.144836,0.379003,14586.0,-2282.0,5750.0,9.0,0.0,16.0
2882.0,2823.0,2883.0,3135.0,2994.0,0.830322,-0.082031,-0.551147,0.007874,0.0,0.0,0.0,7283.0,-1149.0,2874.0,-204.0,38.0,-230.0,133.0,-12.0,-279.0,0.913968,-0.144904,0.379004,14582.0,-2372.0,5780.0,2.0,16.0,3.0
2887.0,2831.0,2895.0,3139.0,2963.0,0.830322,-0.082031,-0.551147,0.007874,0.0,0.0,0.0,7274.0,-1162.0,2869.0,-213.0,25.0,-235.0,133.0,-27.0,-287.0,0.913968,-0.144904,0.379004,14496.0,-2422.0,5704.0,2.0,18.0,0.0
2889.0,2827.0,2894.0,3135.0,2993.0,0.830322,-0.082031,-0.551147,0.007935,0.0,0.0,-1.0,7260.0,-1190.0,2877.0,-227.0,-2.0,-227.0,118.0,-54.0,-293.0,0.913958,-0.144971,0.379005,14488.0,-2414.0,5768.0,16.0,8.0,-6.0
2887.0,2826.0,2897.0,3147.0,2990.0,0.830322,-0.081909,-0.551147,0.007996,1.0,0.0,-1.0,7247.0,-1210.0,2877.0,-240.0,-23.0,-227.0,112.0,-76.0,-302.0,0.91395,-0.144836,0.379026,14412.0,-2584.0,5766.0,26.0,1.0,-11.0
2887.0,2827.0,2890.0,3135.0,3019.0,0.830261,-0.081482,-0.551331,0.008179,2.0,-1.0,-1.0,7241.0,-1210.0,2889.0,-247.0,-27.0,-214.0,97.0,-79.0,-302.0,0.914164,-0.144321,0.378796,14474.0,-2242.0,5844.0,61.0,-10.0,-16.0
2887.0,2823.0,2895.0,3147.0,2991.0,0.830261,-0.081177,-0.551392,0.008301,2.0,-1.0,-1.0,7254.0,-1157.0,2908.0,-235.0,22.0,-194.0,87.0,-26.0,-291.0,0.91425,-0.14395,0.37878,14662.0,-1950.0,5944.0,54.0,-13.0,-11.0
2891.0,2831.0,2896.0,3135.0,2994.0,0.8302,-0.080811,-0.551453,0.008301,0.0,0.0,-1.0,7274.0,-1104.0,2922.0,-215.0,70.0,-180.0,86.0,24.0,-274.0,0.914291,-0.143333,0.378671,14456.0,-2216.0,5796.0,12.0,5.0,-8.0
2887.0,2827.0,2893.0,3143.0,2992.0,0.8302,-0.080688,-0.551514,0.008301,0.0,-1.0,-1.0,7260.0,-1100.0,2910.0,-230.0,72.0,-191.0,90.0,23.0,-292.0,0.914394,-0.143131,0.378623,14450.0,-2164.0,5748.0,14.0,-1.0,-7.0
2887.0,2822.0,2893.0,3135.0,2993.0,0.830139,-0.080566,-0.551697,0.00824,-1.0,-1.0,0.0,7262.0,-1066.0,2888.0,-230.0,104.0,-211.0,111.0,52.0,-305.0,0.914643,-0.142854,0.378339,14524.0,-2054.0,5678.0,-5.0,-10.0,1.0
2891.0,2827.0,2896.0,3141.0,2993.0,0.830017,-0.080627,-0.551758,0.00824,-1.0,-1.0,0.0,7261.0,-1083.0,2879.0,-231.0,87.0,-218.0,116.0,34.0,-306.0,0.914608,-0.142937,0.378059,14496.0,-2312.0,5714.0,-13.0,-8.0,14.0
2891.0,2823.0,2895.0,3139.0,2995.0,0.829895,-0.080688,-0.551941,0.008484,1.0,-1.0,0.0,7244.0,-1125.0,2859.0,-249.0,48.0,-234.0,121.0,-7.0,-323.0,0.914737,-0.143291,0.377648,14478.0,-2314.0,5708.0,25.0,-9.0,17.0
2887.0,2826.0,2893.0,3139.0,2993.0,0.829895,-0.080627,-0.552002,0.008728,1.0,-1.0,1.0,7263.0,-1116.0,2859.0,-231.0,59.0,-234.0,128.0,5.0,-308.0,0.9148,-0.14346,0.377595,14576.0,-2008.0,5752.0,43.0,-3.0,29.0
2887.0,2825.0,2895.0,3141.0,2991.0,0.829895,-0.080444,-0.552002,0.008911,0.0,0.0,0.0,7254.0,-1057.0,2868.0,-239.0,117.0,-225.0,121.0,62.0,-320.0,0.914774,-0.143359,0.377628,14456.0,-2090.0,5750.0,5.0,3.0,17.0
2891.0,2810.0,2897.0,3147.0,2993.0,0.829834,-0.080505,-0.552063,0.008972,-1.0,-1.0,0.0,7267.0,-1051.0,2874.0,-227.0,124.0,-218.0,120.0,71.0,-307.0,0.914797,-0.143519,0.37745,14654.0,-2048.0,5832.0,-10.0,-4.0,22.0
2887.0,2831.0,2926.0,3151.0,2995.0,0.829773,-0.08075,-0.552124,0.00885,-2.0,0.0,0.0,7289.0,-1039.0,2880.0,-205.0,138.0,-210.0,123.0,88.0,-286.0,0.914846,-0.14378,0.37724,14638.0,-2110.0,5784.0,-35.0,8.0,10.0
2887.0,2831.0,2895.0,3139.0,2992.0,0.829773,-0.080933,-0.552124,0.008789,-3.0,0.0,0.0,7290.0,-1061.0,2882.0,-204.0,118.0,-208.0,120.0,69.0,-282.0,0.914852,-0.144017,0.377209,14564.0,-2288.0,5752.0,-46.0,13.0,12.0
2883.0,2823.0,2896.0,3139.0,2995.0,0.829712,-0.081421,-0.552124,0.008728,-2.0,-1.0,0.0,7249.0,-1148.0,2856.0,-244.0,37.0,-232.0,120.0,-18.0,-316.0,0.914786,-0.14475,0.377028,14356.0,-2564.0,5640.0,-24.0,-1.0,18.0
2887.0,2827.0,2897.0,3143.0,2957.0,0.829651,-0.081543,-0.552185,0.008789,-1.0,-1.0,0.0,7247.0,-1184.0,2854.0,-247.0,3.0,-233.0,117.0,-52.0,-314.0,0.914808,-0.145011,0.37684,14508.0,-2558.0,5700.0,-1.0,-13.0,15.0
2887.0,2829.0,2897.0,3139.0,2993.0,0.829529,-0.081543,-0.552368,0.009033,0.0,-1.0,0.0,7290.0,-1164.0,2887.0,-205.0,26.0,-196.0,101.0,-20.0,-265.0,0.914937,-0.145264,0.37644,14662.0,-2194.0,5838.0,6.0,-4.0,10.0
2891.0,2827.0,2893.0,3135.0,2992.0,0.829529,-0.081604,-0.552368,0.009033,-1.0,0.0,0.0,7286.0,-1155.0,2886.0,-209.0,35.0,-197.0,102.0,-12.0,-270.0,0.914936,-0.145365,0.37643,14498.0,-2286.0,5732.0,-8.0,3.0,11.0
2887.0,2828.0,2895.0,3139.0,3024.0,0.829468,-0.081726,-0.55249,0.009033,-1.0,-1.0,0.0,7246.0,-1176.0,2870.0,-250.0,16.0,-211.0,97.0,-37.0,-310.0,0.915069,-0.14556,0.376174,14380.0,-2492.0,5648.0,-4.0,-8.0,1.0
2891.0,2827.0,2895.0,3139.0,2993.0,0.829346,-0.081787,-0.552612,0.009094,0.0,-1.0,-1.0,7249.0,-1186.0,2857.0,-247.0,7.0,-221.0,107.0,-46.0,-310.0,0.915126,-0.145711,0.375828,14518.0,-2410.0,5672.0,4.0,-8.0,-2.0
2887.0,2825.0,2897.0,3135.0,2995.0,0.829346,-0.081665,-0.552673,0.009094,0.0,0.0,-1.0,7250.0,-1165.0,2845.0,-247.0,27.0,-233.0,119.0,-28.0,-317.0,0.915229,-0.145509,0.37578,14480.0,-2154.0,5652.0,9.0,15.0,-7.0
2886.0,2827.0,2894.0,3139.0,2992.0,0.829346,-0.081665,-0.552612,0.009033,-1.0,0.0,-1.0,7248.0,-1140.0,2851.0,-248.0,51.0,-227.0,115.0,-4.0,-319.0,0.915138,-0.145441,0.375846,14474.0,-2142.0,5764.0,-10.0,19.0,-5.0
2886.0,2827.0,2896.0,3139.0,2991.0,0.829407,-0.081787,-0.552551,0.00885,-2.0,0.0,-1.0,7240.0,-1125.0,2858.0,-256.0,66.0,-222.0,109.0,10.0,-327.0,0.915132,-0.14545,0.375992,14426.0,-2248.0,5756.0,-23.0,20.0,-1.0
2889.0,2831.0,2909.0,3143.0,2991.0,0.829407,-0.081848,-0.55249,0.008789,-1.0,0.0,-1.0,7238.0,-1140.0,2873.0,-258.0,51.0,-207.0,93.0,-2.0,-321.0,0.91504,-0.145483,0.376048,14488.0,-2360.0,5858.0,-13.0,11.0,-2.0
2893.0,2831.0,2895.0,3135.0,2992.0,0.829468,-0.081848,-0.552429,0.008789,0.0,0.0,-1.0,7248.0,-1129.0,2907.0,-247.0,62.0,-174.0,68.0,13.0,-300.0,0.915006,-0.145491,0.376217,14512.0,-2218.0,5896.0,6.0,7.0,-1.0
2887.0,2827.0,2896.0,3143.0,2995.0,0.829468,-0.081787,-0.552429,0.008789,0.0,0.0,0.0,7250.0,-1123.0,2918.0,-245.0,68.0,-164.0,60.0,20.0,-295.0,0.915007,-0.14539,0.376227,14504.0,-2216.0,5926.0,11.0,2.0,0.0
2889.0,2827.0,2891.0,3135.0,2992.0,0.829468,-0.081604,-0.55249,0.008789,0.0,-1.0,0.0,7252.0,-1091.0,2940.0,-244.0,97.0,-141.0,41.0,52.0,-290.0,0.915111,-0.145088,0.376189,14540.0,-2058.0,5926.0,8.0,-9.0,0.0
2895.0,2829.0,2893.0,3143.0,2993.0,0.829407,-0.081604,-0.552612,0.008789,-1.0,-1.0,0.0,7255.0,-1078.0,2946.0,-242.0,110.0,-133.0,36.0,66.0,-287.0,0.915246,-0.14508,0.375953,14524.0,-2094.0,5928.0,-1.0,-17.0,6.0
2891.0,2829.0,2895.0,3141.0,2995.0,0.829285,-0.081665,-0.552795,0.008789,-1.0,-1.0,0.0,7271.0,-1070.0,2937.0,-228.0,119.0,-139.0,48.0,76.0,-278.0,0.915414,-0.145164,0.375538,14550.0,-2248.0,5796.0,-15.0,-13.0,10.0
2891.0,2827.0,2895.0,3143.0,2993.0,0.829224,-0.081726,-0.552856,0.00885,-1.0,-1.0,0.0,7267.0,-1104.0,2912.0,-232.0,86.0,-162.0,65.0,40.0,-285.0,0.915437,-0.145324,0.375361,14512.0,-2414.0,5638.0,-5.0,-13.0,11.0
2889.0,2823.0,2891.0,3141.0,2991.0,0.829041,-0.081726,-0.553101,0.008972,0.0,-1.0,0.0,7249.0,-1126.0,2869.0,-251.0,65.0,-201.0,92.0,12.0,-314.0,0.915619,-0.145433,0.374789,14466.0,-2310.0,5600.0,10.0,-20.0,2.0
2887.0,2831.0,2899.0,3141.0,2992.0,0.828918,-0.081665,-0.553284,0.009033,0.0,-1.0,0.0,7249.0,-1143.0,2847.0,-253.0,47.0,-220.0,107.0,-7.0,-320.0,0.915779,-0.145383,0.374395,14526.0,-2368.0,5592.0,11.0,-22.0,4.0
2890.0,2831.0,2899.0,3143.0,2993.0,0.828735,-0.081665,-0.553528,0.009094,0.0,-1.0,0.0,7255.0,-1156.0,2833.0,-248.0,35.0,-229.0,117.0,-20.0,-317.0,0.915971,-0.145425,0.373823,14564.0,-2472.0,5644.0,1.0,-15.0,1.0
2891.0,2827.0,2895.0,3135.0,2993.0,0.828674,-0.081665,-0.553589,0.009155,0.0,-1.0,0.0,7258.0,-1182.0,2829.0,-245.0,9.0,-231.0,118.0,-45.0,-312.0,0.915994,-0.145484,0.373655,14502.0,-2484.0,5650.0,13.0,-5.0,1.0
2885.0,2827.0,2896.0,3142.0,2993.0,0.828613,-0.081482,-0.553711,0.009216,1.0,-1.0,-1.0,7246.0,-1156.0,2863.0,-258.0,33.0,-196.0,82.0,-19.0,-314.0,0.916123,-0.14524,0.37345,14560.0,-2076.0,5920.0,24.0,-10.0,-11.0
2887.0,2830.0,2891.0,3143.0,2990.0,0.828613,-0.08136,-0.553772,0.009216,0.0,-1.0,-1.0,7273.0,-1139.0,2891.0,-232.0,49.0,-167.0,67.0,3.0,-282.0,0.916226,-0.145039,0.373402,14708.0,-2134.0,5950.0,14.0,-6.0,-11.0
2887.0,2830.0,2896.0,3145.0,2992.0,0.828674,-0.081238,-0.553772,0.009094,-1.0,0.0,-1.0,7278.0,-1097.0,2921.0,-228.0,88.0,-138.0,45.0,45.0,-273.0,0.916316,-0.144712,0.373521,14514.0,-2154.0,5996.0,-12.0,7.0,-2.0
2891.0,2827.0,2891.0,3139.0,2997.0,0.828674,-0.081299,-0.553772,0.009033,-1.0,-1.0,-1.0,7251.0,-1108.0,2912.0,-255.0,77.0,-147.0,42.0,30.0,-299.0,0.916324,-0.144745,0.37351,14360.0,-2328.0,5798.0,-15.0,-1.0,-4.0
2887.0,2831.0,2894.0,3135.0,2991.0,0.828552,-0.08136,-0.553894,0.008972,0.0,-1.0,-1.0,7256.0,-1145.0,2910.0,-251.0,40.0,-146.0,40.0,-5.0,-290.0,0.9164,-0.144761,0.373161,14592.0,-2398.0,5842.0,3.0,-15.0,-4.0
2887.0,2823.0,2898.0,3135.0,2997.0,0.828491,-0.081299,-0.553955,0.009033,0.0,-1.0,-1.0,7263.0,-1160.0,2906.0,-244.0,25.0,-149.0,44.0,-19.0,-282.0,0.916425,-0.144719,0.373004,14542.0,-2374.0,5752.0,17.0,-7.0,-5.0
2895.0,2831.0,2899.0,3135.0,2991.0,0.82843,-0.081055,-0.554138,0.009033,0.0,-1.0,-1.0,7256.0,-1108.0,2876.0,-253.0,74.0,-177.0,70.0,24.0,-308.0,0.916665,-0.144308,0.372739,14524.0,-2084.0,5648.0,3.0,-10.0,-10.0
2886.0,2819.0,2891.0,3139.0,2995.0,0.828369,-0.081055,-0.55426,0.008972,-1.0,-1.0,-1.0,7261.0,-1106.0,2861.0,-249.0,75.0,-190.0,84.0,24.0,-309.0,0.91681,-0.144232,0.372502,14566.0,-2258.0,5638.0,-16.0,-15.0,-9.0
2887.0,2830.0,2899.0,3135.0,2995.0,0.828247,-0.081177,-0.554382,0.00885,-1.0,-1.0,-1.0,7264.0,-1149.0,2838.0,-247.0,32.0,-210.0,100.0,-20.0,-309.0,0.916894,-0.144282,0.372142,14454.0,-2362.0,5616.0,-3.0,-3.0,-6.0
2889.0,2832.0,2903.0,3143.0,2995.0,0.828186,-0.081177,-0.554443,0.008789,0.0,-1.0,-1.0,7263.0,-1145.0,2848.0,-248.0,36.0,-199.0,90.0,-15.0,-306.0,0.916938,-0.144205,0.371972,14554.0,-2258.0,5788.0,3.0,-4.0,-10.0
2887.0,2831.0,2915.0,3139.0,3007.0,0.828186,-0.081055,-0.554504,0.008789,0.0,0.0,-1.0,7255.0,-1139.0,2868.0,-257.0,40.0,-178.0,67.0,-9.0,-307.0,0.917041,-0.144004,0.371924,14466.0,-2166.0,5856.0,11.0,1.0,-8.0
2890.0,2826.0,2887.0,3131.0,2993.0,0.828186,-0.080994,-0.554504,0.008728,0.0,-1.0,-1.0,7254.0,-1112.0,2890.0,-258.0,66.0,-156.0,49.0,18.0,-304.0,0.917052,-0.143835,0.371933,14514.0,-2082.0,5898.0,6.0,-1.0,-9.0
2901.0,2835.0,2897.0,3142.0,2995.0,0.828186,-0.080872,-0.554504,0.008606,0.0,0.0,-1.0,7267.0,-1110.0,2912.0,-245.0,65.0,-135.0,34.0,21.0,-284.0,0.917074,-0.143498,0.371951,14498.0,-2228.0,5880.0,1.0,9.0,-6.0
2895.0,2829.0,2887.0,3152.0,3007.0,0.828186,-0.080872,-0.554443,0.008606,0.0,0.0,-1.0,7248.0,-1103.0,2912.0,-263.0,72.0,-135.0,28.0,26.0,-301.0,0.916973,-0.143496,0.372018,14398.0,-2156.0,5822.0,1.0,6.0,-4.0
2894.0,2822.0,2875.0,3143.0,2975.0,0.828186,-0.080872,-0.554504,0.008545,-1.0,-1.0,0.0,7238.0,-1095.0,2901.0,-274.0,79.0,-146.0,34.0,31.0,-316.0,0.917084,-0.14343,0.37195,14460.0,-2198.0,5772.0,-13.0,-8.0,3.0
2896.0,2826.0,2893.0,3141.0,2991.0,0.828125,-0.080994,-0.554626,0.008545,-1.0,-1.0,0.0,7240.0,-1108.0,2887.0,-273.0,68.0,-157.0,44.0,19.0,-318.0,0.917216,-0.143624,0.371694,14508.0,-2292.0,5700.0,-19.0,-14.0,6.0
2882.0,2827.0,2895.0,3151.0,2999.0,0.827942,-0.081177,-0.55481,0.008545,-1.0,-1.0,0.0,7253.0,-1136.0,2849.0,-261.0,42.0,-191.0,78.0,-9.0,-316.0,0.917313,-0.143901,0.371158,14570.0,-2318.0,5596.0,-4.0,-15.0,4.0
2871.0,2835.0,2890.0,3141.0,3003.0,0.827881,-0.081116,-0.554932,0.008545,0.0,-1.0,-1.0,7257.0,-1151.0,2835.0,-258.0,26.0,-203.0,89.0,-26.0,-315.0,0.917448,-0.143792,0.370931,14526.0,-2392.0,5598.0,9.0,-14.0,-3.0
2883.0,2821.0,2893.0,3135.0,2991.0,0.827759,-0.080933,-0.555176,0.008606,0.0,-1.0,-1.0,7271.0,-1093.0,2832.0,-246.0,82.0,-203.0,98.0,30.0,-312.0,0.91771,-0.143541,0.370488,14650.0,-1882.0,5744.0,9.0,-13.0,-7.0
2874.0,2834.0,2865.0,3135.0,2997.0,0.827698,-0.080933,-0.555237,0.008484,-1.0,-1.0,-1.0,7281.0,-1062.0,2831.0,-237.0,112.0,-202.0,103.0,60.0,-308.0,0.917763,-0.143397,0.370318,14562.0,-1984.0,5618.0,-15.0,-2.0,-1.0
2895.0,2815.0,2895.0,3147.0,2995.0,0.827637,-0.081116,-0.555298,0.008423,-1.0,-1.0,0.0,7267.0,-1070.0,2844.0,-251.0,106.0,-188.0,84.0,54.0,-315.0,0.917803,-0.143623,0.370118,14512.0,-2194.0,5782.0,-14.0,-7.0,15.0
2887.0,2842.0,2891.0,3151.0,2961.0,0.827576,-0.081116,-0.555359,0.008484,0.0,-1.0,0.0,7269.0,-1067.0,2859.0,-249.0,110.0,-171.0,70.0,61.0,-307.0,0.917827,-0.143682,0.36995,14576.0,-2104.0,5830.0,3.0,-10.0,13.0
2879.0,2833.0,2885.0,3139.0,2967.0,0.827515,-0.080994,-0.55542,0.008606,0.0,-1.0,0.0,7295.0,-1048.0,2875.0,-223.0,128.0,-154.0,66.0,83.0,-280.0,0.917842,-0.143607,0.369803,14682.0,-2032.0,5768.0,18.0,-4.0,12.0
2887.0,2837.0,2901.0,3119.0,2991.0,0.827515,-0.080933,-0.555481,0.008728,0.0,-1.0,0.0,7297.0,-1035.0,2871.0,-222.0,141.0,-157.0,70.0,96.0,-282.0,0.917925,-0.143642,0.369747,14602.0,-1980.0,5722.0,16.0,-1.0,16.0
2887.0,2832.0,2910.0,3125.0,2992.0,0.827454,-0.080933,-0.555542,0.008789,-1.0,-1.0,0.0,7286.0,-1048.0,2868.0,-233.0,129.0,-159.0,67.0,83.0,-291.0,0.917948,-0.143701,0.36958,14514.0,-2296.0,5700.0,-7.0,-8.0,16.0
2895.0,2832.0,2886.0,3167.0,2981.0,0.827454,-0.080994,-0.555603,0.008911,0.0,-1.0,0.0,7270.0,-1089.0,2858.0,-250.0,90.0,-168.0,65.0,41.0,-304.0,0.918028,-0.143939,0.369504,14420.0,-2388.0,5628.0,8.0,-11.0,19.0
2887.0,2815.0,2919.0,3133.0,2987.0,0.827332,-0.080933,-0.555786,0.009094,0.0,-1.0,0.0,7258.0,-1093.0,2862.0,-263.0,86.0,-161.0,54.0,37.0,-313.0,0.918167,-0.144025,0.369112,14522.0,-2188.0,5728.0,9.0,-13.0,9.0
2878.0,2833.0,2897.0,3135.0,2990.0,0.827271,-0.080933,-0.555847,0.009155,-1.0,-1.0,0.0,7256.0,-1099.0,2863.0,-265.0,81.0,-159.0,51.0,32.0,-313.0,0.91819,-0.144084,0.368944,14498.0,-2270.0,5724.0,-3.0,-12.0,13.0
2898.0,2833.0,2903.0,3127.0,3015.0,0.827209,-0.081116,-0.555969,0.009216,-1.0,-1.0,0.0,7262.0,-1142.0,2865.0,-260.0,41.0,-155.0,46.0,-6.0,-301.0,0.918311,-0.144447,0.368679,14550.0,-2394.0,5696.0,-4.0,-7.0,11.0
2875.0,2815.0,2899.0,3151.0,2989.0,0.827148,-0.081177,-0.555969,0.009277,0.0,-1.0,0.0,7267.0,-1151.0,2867.0,-255.0,33.0,-152.0,45.0,-13.0,-294.0,0.918232,-0.144606,0.368569,14544.0,-2342.0,5748.0,2.0,-4.0,7.0
2895.0,2823.0,2873.0,3134.0,3007.0,0.827148,-0.081177,-0.55603,0.009338,-1.0,-1.0,0.0,7264.0,-1156.0,2891.0,-258.0,29.0,-127.0,20.0,-14.0,-287.0,0.918323,-0.144675,0.368502,14544.0,-2326.0,5888.0,-2.0,-2.0,1.0
2879.0,2831.0,2895.0,3123.0,2997.0,0.827148,-0.081177,-0.555969,0.009338,-1.0,-1.0,0.0,7254.0,-1158.0,2896.0,-268.0,27.0,-123.0,13.0,-16.0,-295.0,0.918222,-0.144674,0.36857,14444.0,-2326.0,5746.0,-3.0,-3.0,2.0
2901.0,2833.0,2887.0,3143.0,2991.0,0.827087,-0.081238,-0.556091,0.009277,-1.0,-1.0,-1.0,7247.0,-1158.0,2908.0,-276.0,27.0,-109.0,-2.0,-16.0,-297.0,0.918365,-0.1447,0.368322,14490.0,-2368.0,5818.0,-12.0,-19.0,-7.0
2887.0,2831.0,2903.0,3143.0,2975.0,0.827026,-0.081299,-0.556213,0.009216,-1.0,-1.0,-1.0,7255.0,-1179.0,2906.0,-269.0,6.0,-109.0,-1.0,-36.0,-288.0,0.918508,-0.144725,0.368075,14530.0,-2514.0,5748.0,-12.0,-22.0,-9.0
2865.0,2802.0,2881.0,3120.0,2995.0,0.826843,-0.081299,-0.556458,0.009216,0.0,-2.0,-1.0,7256.0,-1195.0,2876.0,-270.0,-9.0,-134.0,20.0,-54.0,-295.0,0.918708,-0.1447,0.3675,14516.0,-2320.0,5656.0,12.0,-27.0,-15.0
2891.0,2819.0,2871.0,3137.0,2983.0,0.826721,-0.081177,-0.556641,0.009155,0.0,-2.0,-1.0,7258.0,-1174.0,2872.0,-269.0,9.0,-135.0,22.0,-36.0,-298.0,0.918887,-0.144413,0.367113,14528.0,-2188.0,5698.0,8.0,-27.0,-20.0
2895.0,2823.0,2887.0,3153.0,2991.0,0.826538,-0.081116,-0.556946,0.008911,-1.0,-2.0,-1.0,7284.0,-1128.0,2851.0,-246.0,51.0,-151.0,49.0,5.0,-288.0,0.919228,-0.144017,0.366476,14642.0,-2136.0,5622.0,-16.0,-23.0,-15.0
2895.0,2830.0,2885.0,3153.0,2995.0,0.826477,-0.081116,-0.557007,0.008789,-1.0,-1.0,-1.0,7290.0,-1124.0,2835.0,-240.0,54.0,-165.0,65.0,7.0,-288.0,0.919281,-0.143872,0.366305,14576.0,-2242.0,5522.0,-18.0,-11.0,-15.0
2883.0,2826.0,2887.0,3143.0,2997.0,0.826355,-0.081177,-0.55719,0.008667,-1.0,-1.0,-1.0,7300.0,-1127.0,2816.0,-232.0,51.0,-181.0,82.0,3.0,-286.0,0.919466,-0.14382,0.365887,14672.0,-2212.0,5666.0,-3.0,-8.0,-9.0
2882.0,2831.0,2885.0,3127.0,3007.0,0.826294,-0.081116,-0.557251,0.008606,-1.0,0.0,-1.0,7290.0,-1108.0,2802.0,-242.0,68.0,-194.0,92.0,17.0,-303.0,0.91951,-0.143642,0.365727,14498.0,-2120.0,5440.0,-1.0,1.0,-10.0
2897.0,2830.0,2905.0,3131.0,2999.0,0.826233,-0.081116,-0.557373,0.008484,-1.0,-1.0,0.0,7276.0,-1077.0,2799.0,-257.0,98.0,-195.0,90.0,45.0,-321.0,0.919664,-0.143498,0.365488,14562.0,-2048.0,5626.0,-15.0,-10.0,1.0
2895.0,2831.0,2879.0,3137.0,2986.0,0.826172,-0.081177,-0.557495,0.008423,-1.0,-1.0,0.0,7267.0,-1067.0,2786.0,-268.0,108.0,-206.0,96.0,52.0,-337.0,0.919806,-0.143523,0.36524,14442.0,-2098.0,5404.0,-22.0,-10.0,4.0
2896.0,2819.0,2896.0,3139.0,2991.0,0.82605,-0.081299,-0.557678,0.008362,-1.0,-1.0,0.0,7283.0,-1082.0,2781.0,-253.0,94.0,-207.0,102.0,40.0,-321.0,0.91998,-0.14364,0.364814,14688.0,-2142.0,5592.0,-4.0,-5.0,5.0
2881.0,2823.0,2899.0,3149.0,2995.0,0.825989,-0.081299,-0.557678,0.008362,0.0,0.0,0.0,7297.0,-1073.0,2784.0,-238.0,103.0,-203.0,105.0,51.0,-307.0,0.919912,-0.14363,0.364713,14656.0,-2090.0,5586.0,5.0,13.0,4.0
2882.0,2830.0,2903.0,3135.0,3003.0,0.826111,-0.081238,-0.557556,0.008423,0.0,1.0,0.0,7283.0,-1050.0,2768.0,-252.0,126.0,-222.0,119.0,70.0,-330.0,0.919838,-0.143615,0.365062,14478.0,-1988.0,5482.0,9.0,29.0,16.0
2881.0,2819.0,2891.0,3135.0,2992.0,0.826172,-0.081238,-0.557495,0.008484,0.0,1.0,0.0,7277.0,-1049.0,2766.0,-257.0,128.0,-225.0,120.0,71.0,-336.0,0.919795,-0.143692,0.365232,14548.0,-2118.0,5514.0,9.0,30.0,19.0
2890.0,2829.0,2879.0,3163.0,2995.0,0.826294,-0.081238,-0.557251,0.008789,0.0,1.0,1.0,7256.0,-1067.0,2782.0,-276.0,113.0,-213.0,100.0,55.0,-347.0,0.919478,-0.144048,0.365711,14444.0,-2164.0,5656.0,20.0,31.0,28.0
2887.0,2832.0,2887.0,3135.0,2999.0,0.826416,-0.081177,-0.557129,0.008911,1.0,1.0,1.0,7249.0,-1069.0,2805.0,-282.0,111.0,-193.0,79.0,55.0,-345.0,0.919394,-0.144101,0.366061,14436.0,-2148.0,5712.0,23.0,29.0,25.0
2891.0,2829.0,2896.0,3135.0,2993.0,0.826538,-0.081116,-0.556946,0.009216,0.0,0.0,1.0,7263.0,-1070.0,2841.0,-266.0,112.0,-161.0,55.0,62.0,-319.0,0.919179,-0.144356,0.366482,14624.0,-2154.0,5770.0,14.0,16.0,27.0
2885.0,2827.0,2899.0,3147.0,2991.0,0.826599,-0.081116,-0.556885,0.009338,0.0,0.0,1.0,7288.0,-1067.0,2866.0,-241.0,116.0,-137.0,43.0,72.0,-288.0,0.919126,-0.144501,0.366653,14710.0,-2108.0,5894.0,4.0,19.0,30.0
2887.0,2818.0,2896.0,3152.0,2989.0,0.826721,-0.081299,-0.556641,0.009521,0.0,1.0,1.0,7287.0,-1111.0,2875.0,-240.0,77.0,-132.0,36.0,34.0,-280.0,0.918825,-0.145023,0.3671,14466.0,-2434.0,5650.0,1.0,28.0,24.0
6.0,-3.0,-15.0,,,,,,,,,,,,,,,,,,,,,,,,,,,
2879.0,2827.0,2891.0,3143.0,2991.0,0.855774,-0.005493,-0.513672,0.060974,0.0,-1.0,-1.0,6913.0,-537.0,3766.0,-283.0,53.0,-102.0,-47.0,26.0,-300.0,0.878504,-0.072043,0.472178,13874.0,-878.0,7480.0,15.0,-2.0,-10.0
2881.0,2829.0,2895.0,3139.0,2991.0,0.855774,-0.005371,-0.513733,0.060913,-1.0,-1.0,0.0,6912.0,-499.0,3774.0,-285.0,89.0,-93.0,-59.0,62.0,-300.0,0.878624,-0.071779,0.472109,13866.0,-998.0,7632.0,-9.0,-19.0,9.0
2879.0,2827.0,2896.0,3135.0,2991.0,0.855713,-0.005432,-0.513794,0.060974,-1.0,-1.0,0.0,6925.0,-500.0,3767.0,-272.0,89.0,-99.0,-48.0,63.0,-292.0,0.878658,-0.071953,0.471949,13934.0,-1002.0,7448.0,-10.0,-20.0,17.0
2879.0,2822.0,2896.0,3141.0,2989.0,0.855591,-0.005554,-0.513916,0.061035,-1.0,-1.0,0.0,6947.0,-506.0,3759.0,-251.0,85.0,-104.0,-33.0,62.0,-275.0,0.878726,-0.072238,0.47162,13960.0,-1016.0,7458.0,-8.0,-15.0,14.0
2879.0,2827.0,2896.0,3135.0,2993.0,0.855591,-0.005554,-0.513977,0.061035,-1.0,-1.0,0.0,6951.0,-517.0,3744.0,-248.0,74.0,-119.0,-17.0,52.0,-279.0,0.87883,-0.072246,0.471558,13900.0,-1114.0,7380.0,-8.0,-9.0,9.0
2883.0,2831.0,2891.0,3139.0,2983.0,0.85553,-0.005615,-0.514038,0.061096,0.0,-1.0,0.0,6940.0,-560.0,3731.0,-259.0,33.0,-130.0,-9.0,11.0,-291.0,0.878864,-0.07242,0.471397,13868.0,-1240.0,7440.0,8.0,-3.0,4.0
2883.0,2831.0,2893.0,3135.0,2987.0,0.85553,-0.005554,-0.514038,0.061157,0.0,0.0,-1.0,6933.0,-576.0,3723.0,-266.0,16.0,-138.0,-3.0,-6.0,-299.0,0.87887,-0.072378,0.471405,13780.0,-1204.0,7372.0,18.0,5.0,-2.0
2877.0,2827.0,2895.0,3143.0,2983.0,0.855591,-0.005371,-0.513977,0.061157,0.0,-1.0,-1.0,6902.0,-549.0,3720.0,-297.0,41.0,-143.0,-16.0,15.0,-331.0,0.878851,-0.072058,0.471575,13758.0,-1000.0,7482.0,8.0,-3.0,-19.0
2879.0,2831.0,2894.0,3138.0,2979.0,0.855591,-0.00531,-0.514038,0.061035,-1.0,-1.0,-1.0,6896.0,-551.0,3725.0,-304.0,37.0,-137.0,-24.0,10.0,-334.0,0.878964,-0.071835,0.471498,13764.0,-1128.0,7478.0,0.0,-9.0,-17.0
2877.0,2827.0,2896.0,3143.0,2967.0,0.85553,-0.005249,-0.51416,0.060974,-1.0,-1.0,-1.0,6916.0,-554.0,3743.0,-285.0,33.0,-117.0,-32.0,7.0,-308.0,0.879119,-0.071682,0.471261,13948.0,-1160.0,7508.0,-7.0,-17.0,-1.0
2875.0,2822.0,2897.0,3135.0,2991.0,0.855469,-0.00531,-0.51416,0.060974,-1.0,-1.0,0.0,6937.0,-564.0,3742.0,-264.0,24.0,-117.0,-21.0,1.0,-288.0,0.879048,-0.071786,0.471156,13970.0,-1174.0,7388.0,-3.0,-12.0,5.0
2879.0,2829.0,2879.0,3125.0,2991.0,0.855408,-0.005249,-0.514221,0.061035,0.0,-1.0,0.0,6952.0,-556.0,3736.0,-249.0,31.0,-122.0,-11.0,9.0,-278.0,0.879097,-0.071751,0.470997,13928.0,-1036.0,7470.0,11.0,-3.0,0.0
2877.0,2831.0,2891.0,3143.0,2992.0,0.855408,-0.005188,-0.514221,0.061035,0.0,-1.0,-1.0,6948.0,-551.0,3723.0,-253.0,35.0,-135.0,-1.0,14.0,-288.0,0.879104,-0.071647,0.470997,13884.0,-1058.0,7352.0,5.0,0.0,-8.0
2879.0,2819.0,2895.0,3155.0,2991.0,0.855408,-0.005188,-0.514282,0.060913,-1.0,-1.0,-1.0,6933.0,-541.0,3714.0,-269.0,44.0,-143.0,-3.0,21.0,-306.0,0.87921,-0.071529,0.47092,13804.0,-1072.0,7430.0,-20.0,-1.0,-9.0
2881.0,2823.0,2896.0,3137.0,2991.0,0.855469,-0.00531,-0.514282,0.060791,-2.0,-1.0,-1.0,6918.0,-549.0,3704.0,-284.0,37.0,-154.0,0.0,13.0,-324.0,0.879259,-0.071613,0.471008,13760.0,-1224.0,7334.0,-31.0,-1.0,-8.0
2881.0,2818.0,2895.0,3138.0,2993.0,0.855408,-0.005554,-0.514343,0.060608,-1.0,0.0,-1.0,6916.0,-606.0,3677.0,-287.0,-17.0,-179.0,26.0,-38.0,-335.0,0.879273,-0.071849,0.470816,13864.0,-1318.0,7288.0,-7.0,2.0,-8.0
2882.0,2829.0,2895.0,3143.0,2991.0,0.855469,-0.005493,-0.514282,0.060608,0.0,0.0,-1.0,6912.0,-592.0,3668.0,-290.0,-4.0,-190.0,33.0,-25.0,-344.0,0.879239,-0.071738,0.470984,13790.0,-1054.0,7280.0,6.0,12.0,-13.0
2883.0,2832.0,2894.0,3135.0,2987.0,0.85553,-0.005371,-0.514221,0.060425,0.0,0.0,-1.0,6929.0,-556.0,3678.0,-273.0,28.0,-181.0,29.0,7.0,-327.0,0.879214,-0.071334,0.47113,13946.0,-998.0,7374.0,4.0,18.0,-15.0
2879.0,2827.0,2895.0,3143.0,2987.0,0.855591,-0.005249,-0.514099,0.060364,0.0,1.0,-1.0,6942.0,-533.0,3685.0,-259.0,49.0,-176.0,29.0,29.0,-314.0,0.879083,-0.071048,0.471354,13926.0,-934.0,7350.0,5.0,33.0,-21.0
2879.0,2823.0,2885.0,3131.0,2986.0,0.855774,-0.005005,-0.513794,0.06012,0.0,1.0,-2.0,6935.0,-523.0,3691.0,-263.0,53.0,-175.0,26.0,33.0,-317.0,0.878781,-0.070344,0.471954,13838.0,-970.0,7406.0,15.0,35.0,-30.0
2879.0,2830.0,2895.0,3135.0,2991.0,0.855896,-0.004822,-0.513611,0.059998,0.0,1.0,-1.0,6935.0,-499.0,3702.0,-262.0,73.0,-167.0,17.0,53.0,-314.0,0.878616,-0.069885,0.472338,13894.0,-876.0,7492.0,13.0,26.0,-20.0
2879.0,2827.0,2895.0,3135.0,2991.0,0.855957,-0.004639,-0.513489,0.059998,0.0,0.0,0.0,6926.0,-485.0,3722.0,-270.0,84.0,-149.0,-2.0,62.0,-313.0,0.878492,-0.069557,0.47257,13854.0,-922.0,7534.0,9.0,4.0,5.0
2879.0,2829.0,2895.0,3139.0,2991.0,0.855957,-0.004639,-0.513489,0.060059,0.0,-1.0,0.0,6935.0,-494.0,3732.0,-261.0,76.0,-139.0,-6.0,54.0,-300.0,0.878491,-0.06962,0.472577,13938.0,-1050.0,7508.0,13.0,0.0,11.0
2883.0,2827.0,2887.0,3135.0,2987.0,0.855957,-0.004395,-0.513428,0.060242,1.0,0.0,0.0,6952.0,-495.0,3734.0,-243.0,73.0,-138.0,1.0,53.0,-283.0,0.878415,-0.069383,0.472664,13882.0,-958.0,7470.0,31.0,7.0,5.0
2879.0,2831.0,2894.0,3143.0,2991.0,0.856018,-0.004211,-0.513428,0.060303,1.0,0.0,0.0,6947.0,-489.0,3742.0,-249.0,77.0,-130.0,-9.0,56.0,-285.0,0.878499,-0.069132,0.472778,13846.0,-922.0,7522.0,32.0,4.0,0.0
2871.0,2827.0,2894.0,3135.0,2975.0,0.856018,-0.004028,-0.513367,0.060364,1.0,0.0,-1.0,6953.0,-467.0,3752.0,-242.0,97.0,-121.0,-15.0,76.0,-276.0,0.878416,-0.068874,0.472849,13974.0,-798.0,7542.0,27.0,3.0,-3.0
2877.0,2819.0,2896.0,3151.0,2981.0,0.856079,-0.003723,-0.513306,0.060425,1.0,0.0,0.0,6935.0,-474.0,3724.0,-260.0,86.0,-151.0,3.0,65.0,-305.0,0.878411,-0.068407,0.473026,13720.0,-1038.0,7332.0,35.0,7.0,0.0
2879.0,2835.0,2879.0,3155.0,2987.0,0.856079,-0.003479,-0.513245,0.060608,2.0,0.0,0.0,6914.0,-473.0,3706.0,-281.0,85.0,-169.0,9.0,63.0,-332.0,0.878334,-0.06817,0.473113,13688.0,-890.0,7278.0,54.0,4.0,6.0
2875.0,2832.0,2894.0,3138.0,2989.0,0.856079,-0.00293,-0.513245,0.061035,3.0,0.0,1.0,6879.0,-446.0,3679.0,-316.0,108.0,-197.0,15.0,84.0,-378.0,0.878398,-0.067668,0.473168,13716.0,-776.0,7272.0,71.0,2.0,25.0
2869.0,2815.0,2885.0,3139.0,2999.0,0.856079,-0.002625,-0.513184,0.06134,3.0,0.0,1.0,6873.0,-421.0,3678.0,-322.0,131.0,-199.0,11.0,106.0,-385.0,0.87833,-0.067451,0.47327,13696.0,-686.0,7330.0,70.0,14.0,28.0
2879.0,2830.0,2893.0,3135.0,2975.0,0.856201,-0.002319,-0.512878,0.061951,1.0,1.0,2.0,6865.0,-391.0,3680.0,-327.0,162.0,-201.0,7.0,137.0,-393.0,0.877967,-0.067518,0.473869,13756.0,-708.0,7380.0,27.0,28.0,62.0
2887.0,2832.0,2891.0,3142.0,2992.0,0.856262,-0.002441,-0.512756,0.062256,-1.0,1.0,3.0,6876.0,-406.0,3679.0,-314.0,151.0,-205.0,17.0,127.0,-383.0,0.877804,-0.068025,0.474136,13826.0,-964.0,7328.0,-3.0,31.0,77.0
2877.0,2831.0,2886.0,3139.0,2989.0,0.856384,-0.003052,-0.512512,0.062866,-1.0,2.0,3.0,6927.0,-465.0,3697.0,-260.0,105.0,-191.0,35.0,86.0,-326.0,0.877431,-0.069666,0.474668,13958.0,-1000.0,7510.0,-20.0,49.0,78.0
2883.0,2819.0,2887.0,3131.0,2993.0,0.856506,-0.003357,-0.512268,0.06311,-2.0,2.0,3.0,6934.0,-490.0,3690.0,-251.0,86.0,-202.0,51.0,69.0,-322.0,0.877098,-0.070409,0.475156,13894.0,-1154.0,7346.0,-34.0,57.0,73.0
2878.0,2827.0,2893.0,3127.0,2995.0,0.85675,-0.004089,-0.51178,0.06366,0.0,2.0,2.0,6951.0,-599.0,3721.0,-228.0,-7.0,-179.0,51.0,-22.0,-284.0,0.876415,-0.072167,0.476139,13890.0,-1454.0,7530.0,1.0,64.0,61.0
2875.0,2829.0,2898.0,3141.0,2995.0,0.856873,-0.004211,-0.511475,0.063965,1.0,2.0,2.0,6942.0,-614.0,3737.0,-234.0,-18.0,-168.0,39.0,-34.0,-283.0,0.875998,-0.07265,0.476698,13840.0,-1276.0,7622.0,24.0,58.0,49.0
2879.0,2832.0,2897.0,3135.0,2989.0,0.857178,-0.004272,-0.510986,0.064514,1.0,2.0,1.0,6943.0,-612.0,3800.0,-228.0,-11.0,-114.0,-5.0,-30.0,-253.0,0.875461,-0.073256,0.47779,13868.0,-1184.0,7830.0,24.0,52.0,39.0
2881.0,2831.0,2891.0,3155.0,2983.0,0.8573,-0.004272,-0.510681,0.064758,0.0,2.0,1.0,6934.0,-616.0,3826.0,-234.0,-14.0,-92.0,-27.0,-35.0,-247.0,0.87506,-0.073467,0.478343,13824.0,-1264.0,7794.0,22.0,55.0,29.0
2879.0,2828.0,2887.0,3131.0,2975.0,0.857666,-0.00415,-0.510071,0.065002,1.0,2.0,0.0,6889.0,-613.0,3860.0,-274.0,-11.0,-69.0,-67.0,-38.0,-271.0,0.874401,-0.073431,0.479627,13578.0,-1172.0,7820.0,25.0,47.0,0.0
2883.0,2826.0,2896.0,3147.0,2989.0,0.857788,-0.004089,-0.509827,0.065063,1.0,1.0,-1.0,6869.0,-600.0,3872.0,-291.0,0.0,-60.0,-84.0,-30.0,-283.0,0.874114,-0.073358,0.480094,13660.0,-1084.0,7820.0,23.0,31.0,-7.0
2879.0,2832.0,2899.0,3159.0,2992.0,0.858032,-0.003845,-0.50946,0.065002,0.0,1.0,-1.0,6880.0,-548.0,3873.0,-277.0,48.0,-66.0,-78.0,19.0,-277.0,0.873767,-0.072831,0.48088,13750.0,-912.0,7676.0,7.0,31.0,-12.0
2877.0,2826.0,2891.0,3133.0,2963.0,0.858093,-0.003784,-0.509338,0.06488,-1.0,1.0,-1.0,6876.0,-525.0,3872.0,-280.0,69.0,-69.0,-79.0,40.0,-282.0,0.873629,-0.072586,0.481094,13758.0,-932.0,7752.0,-3.0,24.0,-10.0
2878.0,2823.0,2896.0,3141.0,2993.0,0.858215,-0.003784,-0.509155,0.064819,-1.0,0.0,0.0,6896.0,-529.0,3878.0,-259.0,64.0,-66.0,-71.0,37.0,-262.0,0.873439,-0.072501,0.481482,13828.0,-1114.0,7804.0,-3.0,16.0,3.0
2875.0,2827.0,2893.0,3135.0,2991.0,0.858276,-0.003784,-0.509033,0.064819,0.0,0.0,0.0,6897.0,-525.0,3893.0,-257.0,68.0,-53.0,-82.0,40.0,-254.0,0.873292,-0.072486,0.481711,13778.0,-1000.0,7868.0,3.0,12.0,6.0
2881.0,2829.0,2891.0,3135.0,2991.0,0.858337,-0.003784,-0.508911,0.064819,-1.0,-1.0,0.0,6885.0,-525.0,3937.0,-267.0,68.0,-11.0,-124.0,37.0,-243.0,0.873144,-0.072471,0.48194,13780.0,-1086.0,8022.0,-2.0,-5.0,3.0
2878.0,2831.0,2895.0,3135.0,2993.0,0.858398,-0.003784,-0.50885,0.06488,0.0,-1.0,0.0,6880.0,-527.0,3956.0,-272.0,67.0,6.0,-141.0,34.0,-239.0,0.873101,-0.072525,0.482115,13700.0,-1042.0,8008.0,3.0,-10.0,8.0
2879.0,2823.0,2891.0,3143.0,2992.0,0.858337,-0.003784,-0.50885,0.064941,-1.0,-2.0,0.0,6879.0,-505.0,3971.0,-272.0,89.0,22.0,-157.0,55.0,-233.0,0.873039,-0.072587,0.482018,13814.0,-944.0,7918.0,-4.0,-24.0,15.0
2881.0,2832.0,2895.0,3135.0,2991.0,0.858337,-0.003784,-0.508911,0.065002,-1.0,-1.0,0.0,6874.0,-510.0,3957.0,-278.0,85.0,8.0,-147.0,51.0,-245.0,0.873143,-0.072657,0.481964,13688.0,-1072.0,7826.0,-4.0,-20.0,8.0
2877.0,2865.0,2898.0,3151.0,2995.0,0.858215,-0.003784,-0.509155,0.064941,-1.0,-2.0,-1.0,6857.0,-509.0,3906.0,-298.0,85.0,-38.0,-116.0,52.0,-284.0,0.873438,-0.072626,0.481498,13826.0,-950.0,7684.0,-6.0,-39.0,-5.0
2879.0,2823.0,2886.0,3133.0,2989.0,0.858154,-0.003723,-0.509277,0.064819,-1.0,-2.0,-1.0,6897.0,-504.0,3888.0,-259.0,89.0,-54.0,-84.0,61.0,-258.0,0.873594,-0.072412,0.481253,14014.0,-1024.0,7654.0,-11.0,-29.0,-12.0
2883.0,2819.0,2890.0,3139.0,2993.0,0.858093,-0.003723,-0.509338,0.064819,0.0,1.0,0.0,6936.0,-525.0,3822.0,-220.0,68.0,-119.0,-7.0,49.0,-254.0,0.873637,-0.07242,0.481086,13688.0,-968.0,7386.0,5.0,28.0,14.0
2882.0,2832.0,2887.0,3139.0,2990.0,0.858154,-0.003723,-0.509216,0.06488,0.0,0.0,0.0,6855.0,-487.0,3788.0,-300.0,106.0,-154.0,-18.0,79.0,-343.0,0.873489,-0.072466,0.481323,13188.0,-754.0,7446.0,3.0,20.0,20.0
2879.0,2833.0,2897.0,3135.0,2991.0,0.858032,-0.003845,-0.509399,0.064941,-1.0,-3.0,0.0,6781.0,-511.0,3750.0,-376.0,85.0,-189.0,-21.0,52.0,-425.0,0.873663,-0.072761,0.480934,13658.0,-1206.0,7500.0,-8.0,-47.0,20.0
2877.0,2831.0,2891.0,3135.0,2981.0,0.85791,-0.003845,-0.509583,0.065063,0.0,-2.0,1.0,6816.0,-538.0,3760.0,-342.0,59.0,-176.0,-13.0,29.0,-387.0,0.873852,-0.072908,0.480554,13856.0,-1210.0,7572.0,9.0,-41.0,26.0
2879.0,2825.0,2887.0,3143.0,2991.0,0.857727,-0.003784,-0.509827,0.06543,0.0,-2.0,1.0,6834.0,-549.0,3776.0,-326.0,50.0,-156.0,-22.0,21.0,-363.0,0.874089,-0.073207,0.480039,13694.0,-1112.0,7594.0,21.0,-30.0,23.0
2878.0,2827.0,2895.0,3135.0,2995.0,0.857666,-0.003723,-0.51001,0.065552,0.0,-2.0,0.0,6849.0,-557.0,3782.0,-313.0,43.0,-148.0,-22.0,15.0,-347.0,0.874348,-0.073251,0.479764,13834.0,-1174.0,7632.0,19.0,-35.0,21.0
2879.0,2833.0,2895.0,3147.0,2992.0,0.857483,-0.003662,-0.510193,0.065857,0.0,-1.0,0.0,6921.0,-569.0,3791.0,-242.0,32.0,-135.0,0.0,11.0,-278.0,0.874481,-0.07348,0.479304,14006.0,-1152.0,7596.0,14.0,-9.0,16.0
2879.0,2823.0,2891.0,3139.0,2995.0,0.857483,-0.003662,-0.510254,0.065918,0.0,-1.0,0.0,6911.0,-571.0,3784.0,-253.0,31.0,-142.0,1.0,9.0,-291.0,0.874585,-0.07355,0.47925,13700.0,-1144.0,7498.0,8.0,-3.0,17.0
2883.0,2821.0,2887.0,3127.0,2997.0,0.857361,-0.003784,-0.510376,0.066162,-1.0,-2.0,1.0,6886.0,-576.0,3765.0,-279.0,30.0,-158.0,3.0,6.0,-321.0,0.874652,-0.074024,0.478947,13756.0,-1162.0,7494.0,-1.0,-25.0,27.0
2879.0,2833.0,2895.0,3133.0,2991.0,0.8573,-0.003845,-0.510498,0.066284,-1.0,-2.0,1.0,6889.0,-587.0,3758.0,-277.0,21.0,-163.0,10.0,-1.0,-321.0,0.87479,-0.074269,0.478733,13812.0,-1270.0,7480.0,-2.0,-26.0,30.0
2887.0,2831.0,2897.0,3143.0,2991.0,0.857117,-0.004089,-0.510742,0.06665,0.0,-1.0,1.0,6905.0,-617.0,3731.0,-262.0,-1.0,-186.0,40.0,-20.0,-318.0,0.874986,-0.075092,0.478217,13832.0,-1342.0,7320.0,2.0,-11.0,36.0
2879.0,2819.0,2896.0,3142.0,2993.0,0.857056,-0.004211,-0.510803,0.066833,0.0,-1.0,1.0,6915.0,-631.0,3731.0,-253.0,-12.0,-185.0,44.0,-30.0,-308.0,0.875011,-0.075496,0.478073,13898.0,-1318.0,7500.0,5.0,-7.0,38.0
2883.0,2807.0,2895.0,3135.0,2991.0,0.857056,-0.004395,-0.510803,0.067261,0.0,0.0,1.0,6907.0,-642.0,3732.0,-260.0,-17.0,-184.0,41.0,-36.0,-314.0,0.874982,-0.076247,0.478129,13730.0,-1316.0,7492.0,8.0,7.0,35.0
2879.0,2831.0,2895.0,3143.0,2993.0,0.857056,-0.004456,-0.510803,0.067444,0.0,0.0,1.0,6881.0,-659.0,3738.0,-286.0,-31.0,-179.0,26.0,-54.0,-333.0,0.874973,-0.076538,0.478153,13588.0,-1418.0,7498.0,19.0,2.0,32.0
2883.0,2835.0,2889.0,3151.0,2991.0,0.856995,-0.004395,-0.510864,0.067871,1.0,-1.0,1.0,6895.0,-630.0,3777.0,-273.0,0.0,-139.0,-6.0,-24.0,-305.0,0.875019,-0.076878,0.478045,13964.0,-1132.0,7668.0,23.0,-13.0,25.0
2883.0,2823.0,2896.0,3141.0,2991.0,0.856934,-0.004395,-0.510864,0.067993,0.0,-1.0,1.0,6910.0,-619.0,3792.0,-257.0,11.0,-123.0,-13.0,-12.0,-284.0,0.874956,-0.077002,0.477957,13892.0,-1214.0,7702.0,9.0,-10.0,24.0
2887.0,2838.0,2887.0,3135.0,2981.0,0.856873,-0.004395,-0.510925,0.068298,1.0,-1.0,0.0,6920.0,-633.0,3832.0,-247.0,0.0,-82.0,-43.0,-24.0,-255.0,0.874995,-0.077322,0.477831,13896.0,-1304.0,7796.0,23.0,-11.0,14.0
2886.0,2832.0,2882.0,3135.0,2991.0,0.856873,-0.004272,-0.510925,0.06842,1.0,-1.0,0.0,6916.0,-633.0,3841.0,-252.0,0.0,-73.0,-54.0,-26.0,-255.0,0.875011,-0.077237,0.477849,13784.0,-1222.0,7728.0,35.0,-8.0,4.0
2879.0,2829.0,2896.0,3147.0,2999.0,0.856812,-0.003906,-0.510986,0.068604,1.0,-2.0,0.0,6902.0,-599.0,3853.0,-266.0,30.0,-60.0,-75.0,1.0,-263.0,0.875102,-0.076805,0.47771,13830.0,-1030.0,7770.0,33.0,-28.0,0.0
2883.0,2831.0,2891.0,3135.0,2991.0,0.85675,-0.003723,-0.511108,0.068665,0.0,-2.0,0.0,6911.0,-574.0,3853.0,-259.0,53.0,-58.0,-76.0,24.0,-258.0,0.875273,-0.07657,0.477491,13864.0,-1000.0,7702.0,17.0,-30.0,6.0
2885.0,2829.0,2893.0,3143.0,2991.0,0.856628,-0.003723,-0.511292,0.068787,-1.0,-2.0,0.0,6915.0,-574.0,3826.0,-256.0,54.0,-82.0,-54.0,27.0,-267.0,0.875461,-0.076719,0.477111,13810.0,-1206.0,7582.0,-1.0,-26.0,14.0
2881.0,2833.0,2899.0,3131.0,2991.0,0.856567,-0.003723,-0.511414,0.068848,0.0,-2.0,0.0,6906.0,-585.0,3811.0,-266.0,44.0,-95.0,-46.0,17.0,-281.0,0.875608,-0.076798,0.47689,13748.0,-1230.0,7538.0,8.0,-23.0,10.0
2871.0,2833.0,2903.0,3131.0,2967.0,0.856445,-0.003662,-0.511597,0.06897,0.0,-2.0,0.0,6883.0,-590.0,3769.0,-291.0,39.0,-134.0,-22.0,11.0,-321.0,0.875804,-0.076842,0.476511,13730.0,-1216.0,7474.0,10.0,-26.0,3.0
2882.0,2827.0,2895.0,3151.0,2991.0,0.856384,-0.003601,-0.511719,0.06897,0.0,-1.0,0.0,6875.0,-594.0,3754.0,-300.0,34.0,-147.0,-15.0,6.0,-335.0,0.875959,-0.076754,0.476282,13718.0,-1196.0,7412.0,11.0,-22.0,8.0
2879.0,2835.0,2884.0,3135.0,2991.0,0.856201,-0.003479,-0.511963,0.069092,0.0,-1.0,0.0,6895.0,-586.0,3726.0,-282.0,42.0,-171.0,13.0,18.0,-331.0,0.876206,-0.076702,0.475736,13884.0,-1186.0,7416.0,9.0,-16.0,8.0
2874.0,2830.0,2879.0,3127.0,2987.0,0.856201,-0.003479,-0.512024,0.069153,0.0,-1.0,0.0,6908.0,-582.0,3710.0,-270.0,46.0,-186.0,32.0,24.0,-328.0,0.87631,-0.076773,0.475682,13878.0,-1142.0,7352.0,5.0,-8.0,9.0
2885.0,2829.0,2881.0,3139.0,3003.0,0.856079,-0.00354,-0.512146,0.069275,-1.0,-1.0,0.0,6920.0,-597.0,3706.0,-259.0,33.0,-188.0,40.0,13.0,-318.0,0.876384,-0.077019,0.475364,13862.0,-1264.0,7380.0,-2.0,-10.0,11.0
2877.0,2831.0,2891.0,3175.0,2991.0,0.856079,-0.00354,-0.512207,0.069275,-1.0,-1.0,0.0,6917.0,-589.0,3715.0,-263.0,42.0,-178.0,28.0,21.0,-318.0,0.876489,-0.077027,0.475302,13796.0,-1124.0,7488.0,-1.0,-9.0,7.0
2870.0,2839.0,2896.0,3135.0,2975.0,0.856018,-0.00354,-0.512268,0.069275,0.0,-1.0,0.0,6924.0,-590.0,3732.0,-256.0,41.0,-160.0,16.0,19.0,-303.0,0.876531,-0.077035,0.475135,13938.0,-1182.0,7512.0,8.0,-10.0,0.0
2885.0,2831.0,2883.0,3121.0,2986.0,0.856018,-0.003479,-0.512268,0.069336,0.0,-1.0,0.0,6930.0,-565.0,3750.0,-250.0,65.0,-142.0,0.0,43.0,-291.0,0.876539,-0.076993,0.475144,13878.0,-950.0,7574.0,8.0,-2.0,5.0
2895.0,2810.0,2899.0,3135.0,3006.0,0.855957,-0.003418,-0.512329,0.069336,-1.0,-1.0,0.0,6931.0,-535.0,3766.0,-250.0,94.0,-125.0,-17.0,70.0,-285.0,0.876589,-0.076897,0.474977,13926.0,-1070.0,7538.0,-9.0,-9.0,8.0
2875.0,2834.0,2889.0,3149.0,2985.0,0.855957,-0.003418,-0.512329,0.069336,-1.0,-1.0,0.0,6934.0,-532.0,3769.0,-247.0,97.0,-122.0,-19.0,73.0,-281.0,0.876589,-0.076897,0.474977,13876.0,-1036.0,7560.0,-4.0,-4.0,8.0
2879.0,2832.0,2879.0,3147.0,2991.0,0.855957,-0.003479,-0.512329,0.069336,-1.0,0.0,0.0,6926.0,-551.0,3748.0,-254.0,79.0,-143.0,-1.0,56.0,-296.0,0.876581,-0.077001,0.474977,13826.0,-1188.0,7432.0,-4.0,1.0,9.0
2896.0,2825.0,2894.0,3149.0,2993.0,0.855957,-0.00354,-0.512329,0.069397,-1.0,0.0,0.0,6932.0,-560.0,3749.0,-248.0,72.0,-142.0,0.0,50.0,-290.0,0.876572,-0.077168,0.474985,13926.0,-1186.0,7502.0,-1.0,1.0,12.0
2895.0,2834.0,2890.0,3143.0,2991.0,0.855957,-0.003601,-0.512329,0.069397,-1.0,0.0,0.0,6924.0,-578.0,3732.0,-256.0,55.0,-159.0,14.0,33.0,-304.0,0.876564,-0.077273,0.474984,13750.0,-1240.0,7348.0,-10.0,10.0,7.0
2886.0,2831.0,2895.0,3139.0,2951.0,0.855957,-0.003662,-0.512268,0.069397,-1.0,0.0,0.0,6913.0,-593.0,3727.0,-266.0,40.0,-164.0,15.0,17.0,-314.0,0.876451,-0.077369,0.475046,13786.0,-1278.0,7468.0,-12.0,9.0,1.0
2886.0,2830.0,2883.0,3147.0,2987.0,0.856018,-0.003784,-0.512207,0.069336,-1.0,0.0,-1.0,6883.0,-621.0,3742.0,-296.0,13.0,-150.0,-7.0,-13.0,-331.0,0.876392,-0.077507,0.475204,13690.0,-1308.0,7564.0,0.0,1.0,-3.0
2879.0,2826.0,2894.0,3123.0,2994.0,0.856018,-0.003723,-0.512207,0.069397,0.0,-1.0,-1.0,6877.0,-621.0,3750.0,-302.0,13.0,-142.0,-17.0,-14.0,-333.0,0.8764,-0.077465,0.475213,13730.0,-1246.0,7562.0,2.0,-4.0,-1.0
2863.0,2839.0,2901.0,3139.0,2983.0,0.856018,-0.003784,-0.512268,0.069397,-1.0,-1.0,0.0,6889.0,-622.0,3777.0,-291.0,13.0,-115.0,-36.0,-15.0,-310.0,0.876496,-0.077578,0.47515,13844.0,-1274.0,7658.0,0.0,-12.0,1.0
2864.0,2826.0,2899.0,3149.0,2967.0,0.855957,-0.003723,-0.512329,0.069397,0.0,-1.0,-1.0,6902.0,-631.0,3782.0,-278.0,3.0,-109.0,-34.0,-24.0,-295.0,0.876547,-0.077482,0.474983,13880.0,-1324.0,7568.0,5.0,-11.0,-3.0
2874.0,2843.0,2910.0,3131.0,2993.0,0.855957,-0.003662,-0.512329,0.069458,0.0,-1.0,-1.0,6917.0,-636.0,3778.0,-263.0,-1.0,-113.0,-23.0,-25.0,-284.0,0.876555,-0.07744,0.474992,13856.0,-1212.0,7508.0,11.0,-5.0,-5.0
2883.0,2829.0,2894.0,3141.0,2959.0,0.855957,-0.003601,-0.51239,0.069397,0.0,-1.0,-1.0,6915.0,-628.0,3773.0,-266.0,5.0,-117.0,-21.0,-20.0,-289.0,0.876668,-0.077281,0.474922,13794.0,-1224.0,7522.0,2.0,-8.0,-7.0
2881.0,2832.0,2915.0,3149.0,2983.0,0.855896,-0.003662,-0.512451,0.069397,-1.0,-1.0,0.0,6915.0,-633.0,3766.0,-266.0,1.0,-123.0,-15.0,-23.0,-291.0,0.876702,-0.077394,0.474754,13802.0,-1286.0,7520.0,-6.0,-8.0,0.0
2869.0,2823.0,2899.0,3119.0,2975.0,0.855896,-0.003662,-0.512451,0.069397,-1.0,-1.0,-1.0,6914.0,-645.0,3758.0,-267.0,-10.0,-131.0,-8.0,-34.0,-295.0,0.876702,-0.077394,0.474754,13850.0,-1378.0,7484.0,-7.0,-5.0,-2.0
2866.0,2838.0,2901.0,3131.0,2991.0,0.855896,-0.003784,-0.512451,0.069336,-1.0,0.0,-1.0,6909.0,-663.0,3750.0,-272.0,-27.0,-139.0,-1.0,-51.0,-302.0,0.876685,-0.07754,0.474745,13830.0,-1402.0,7480.0,-9.0,1.0,-5.0
2894.0,2831.0,2879.0,3155.0,3015.0,0.855896,-0.003845,-0.512451,0.069336,-1.0,0.0,-1.0,6907.0,-676.0,3743.0,-274.0,-39.0,-146.0,5.0,-62.0,-306.0,0.876677,-0.077645,0.474744,13790.0,-1420.0,7428.0,-2.0,2.0,-9.0
2879.0,2839.0,2875.0,3133.0,3025.0,0.855896,-0.003784,-0.512451,0.069214,-1.0,0.0,-1.0,6910.0,-631.0,3737.0,-271.0,3.0,-151.0,6.0,-20.0,-309.0,0.876686,-0.077415,0.474728,13836.0,-1086.0,7454.0,-7.0,6.0,-12.0
2879.0,2842.0,2903.0,3131.0,2989.0,0.855896,-0.003784,-0.512451,0.069092,-1.0,0.0,-1.0,6913.0,-613.0,3721.0,-268.0,20.0,-167.0,19.0,-2.0,-315.0,0.876687,-0.07729,0.474711,13820.0,-1140.0,7318.0,-21.0,6.0,-12.0
2891.0,2831.0,2907.0,3155.0,2993.0,0.855896,-0.003906,-0.512451,0.068909,-1.0,0.0,-1.0,6923.0,-605.0,3684.0,-258.0,28.0,-204.0,55.0,9.0,-325.0,0.876671,-0.077311,0.474685,13898.0,-1140.0,7344.0,-13.0,9.0,-14.0
2894.0,2829.0,2903.0,3123.0,3013.0,0.855957,-0.003845,-0.512451,0.068787,-1.0,0.0,-1.0,6931.0,-574.0,3692.0,-251.0,57.0,-197.0,49.0,38.0,-317.0,0.876743,-0.077082,0.474773,13882.0,-948.0,7438.0,-9.0,14.0,-18.0
2870.0,2822.0,2883.0,3149.0,2965.0,0.856018,-0.003784,-0.512329,0.068481,-1.0,0.0,-1.0,6951.0,-519.0,3717.0,-230.0,108.0,-173.0,32.0,90.0,-292.0,0.876608,-0.076649,0.474961,13948.0,-922.0,7548.0,-20.0,22.0,-14.0
2893.0,2838.0,2893.0,3141.0,2995.0,0.85614,-0.003845,-0.512207,0.068298,-1.0,0.0,-1.0,6949.0,-501.0,3744.0,-231.0,126.0,-149.0,8.0,106.0,-282.0,0.876517,-0.07655,0.47527,13878.0,-860.0,7682.0,-22.0,22.0,-12.0
2877.0,2831.0,2895.0,3130.0,3013.0,0.856262,-0.003906,-0.512024,0.067993,-2.0,0.0,0.0,6929.0,-441.0,3808.0,-249.0,184.0,-88.0,-59.0,157.0,-274.0,0.876322,-0.076318,0.475624,13796.0,-728.0,7782.0,-38.0,11.0,2.0
2861.0,2823.0,2883.0,3125.0,2995.0,0.856323,-0.004028,-0.511963,0.067871,-2.0,0.0,0.0,6916.0,-437.0,3826.0,-262.0,188.0,-71.0,-81.0,159.0,-277.0,0.876265,-0.076394,0.475774,13720.0,-878.0,7742.0,-39.0,8.0,7.0
2871.0,2834.0,2879.0,3137.0,3019.0,0.856384,-0.00415,-0.511841,0.06781,-1.0,0.0,0.0,6885.0,-467.0,3833.0,-292.0,159.0,-66.0,-96.0,126.0,-299.0,0.876102,-0.076525,0.475994,13664.0,-1018.0,7686.0,-3.0,1.0,9.0
2877.0,2832.0,2903.0,3147.0,2983.0,0.856384,-0.004089,-0.51178,0.06781,0.0,-1.0,0.0,6876.0,-475.0,3834.0,-300.0,150.0,-65.0,-99.0,116.0,-305.0,0.876006,-0.076412,0.476057,13716.0,-978.0,7678.0,13.0,-6.0,9.0
2891.0,2830.0,2903.0,3165.0,2975.0,0.856384,-0.003906,-0.51178,0.067993,0.0,-1.0,0.0,6871.0,-516.0,3812.0,-305.0,108.0,-88.0,-77.0,75.0,-317.0,0.876029,-0.076286,0.476083,13706.0,-1214.0,7554.0,21.0,-5.0,11.0
2883.0,2829.0,2896.0,3123.0,2989.0,0.856384,-0.003845,-0.51178,0.068115,1.0,-1.0,0.0,6869.0,-541.0,3795.0,-307.0,84.0,-105.0,-60.0,52.0,-325.0,0.876036,-0.076306,0.4761,13746.0,-1184.0,7488.0,24.0,-4.0,13.0
2879.0,2827.0,2903.0,3152.0,2988.0,0.856323,-0.003784,-0.511841,0.068237,-1.0,-1.0,0.0,6890.0,-573.0,3758.0,-286.0,52.0,-140.0,-16.0,25.0,-321.0,0.876086,-0.076334,0.47595,13828.0,-1316.0,7414.0,-5.0,-1.0,4.0
2894.0,2835.0,2897.0,3135.0,2991.0,0.856323,-0.003906,-0.511841,0.068237,-1.0,-1.0,0.0,6900.0,-603.0,3737.0,-276.0,24.0,-161.0,9.0,0.0,-320.0,0.876069,-0.076543,0.47595,13872.0,-1362.0,7358.0,-12.0,0.0,12.0
2883.0,2829.0,2910.0,3143.0,2995.0,0.856323,-0.004211,-0.511841,0.068359,-1.0,0.0,0.0,6922.0,-644.0,3729.0,-254.0,-11.0,-170.0,31.0,-31.0,-302.0,0.876027,-0.077191,0.475964,13860.0,-1416.0,7450.0,-17.0,16.0,15.0
2879.0,2822.0,2895.0,3135.0,2979.0,0.856384,-0.004395,-0.51178,0.068359,-1.0,0.0,0.0,6925.0,-662.0,3732.0,-250.0,-27.0,-168.0,33.0,-46.0,-296.0,0.87596,-0.077497,0.476129,13916.0,-1408.0,7500.0,-21.0,16.0,17.0
2873.0,2815.0,2890.0,3126.0,2989.0,0.856506,-0.004761,-0.511597,0.068359,-2.0,0.0,0.0,6910.0,-693.0,3764.0,-263.0,-53.0,-139.0,4.0,-75.0,-292.0,0.875721,-0.0781,0.476522,13674.0,-1532.0,7638.0,-28.0,22.0,6.0
2887.0,2835.0,2891.0,3135.0,3007.0,0.856506,-0.004944,-0.511475,0.068359,-1.0,0.0,0.0,6888.0,-708.0,3784.0,-283.0,-65.0,-120.0,-19.0,-91.0,-299.0,0.875487,-0.078397,0.476645,13670.0,-1466.0,7716.0,-20.0,9.0,0.0
2886.0,2830.0,2887.0,3158.0,2971.0,0.856567,-0.005066,-0.511414,0.068298,0.0,0.0,-1.0,6905.0,-716.0,3825.0,-266.0,-72.0,-80.0,-46.0,-98.0,-265.0,0.875428,-0.078536,0.476803,13874.0,-1402.0,7722.0,1.0,5.0,-16.0
2879.0,2834.0,2883.0,3139.0,2983.0,0.856628,-0.005005,-0.511353,0.068237,0.0,0.0,-1.0,6908.0,-692.0,3834.0,-263.0,-50.0,-73.0,-53.0,-77.0,-261.0,0.875395,-0.078361,0.476962,13778.0,-1224.0,7696.0,4.0,8.0,-17.0
2871.0,2823.0,2899.0,3143.0,2995.0,0.856689,-0.004944,-0.511292,0.068054,-1.0,-1.0,-1.0,6892.0,-638.0,3814.0,-278.0,1.0,-94.0,-47.0,-27.0,-288.0,0.875363,-0.078062,0.477105,13736.0,-1172.0,7530.0,-9.0,-3.0,-14.0
2877.0,2831.0,2895.0,3151.0,2987.0,0.856689,-0.004944,-0.511292,0.067932,-1.0,-1.0,-1.0,6898.0,-622.0,3798.0,-272.0,16.0,-110.0,-32.0,-10.0,-291.0,0.875364,-0.077937,0.477088,13876.0,-1148.0,7510.0,-8.0,-12.0,-13.0
2879.0,2818.0,2879.0,3135.0,2997.0,0.856628,-0.004822,-0.511414,0.06781,-1.0,-1.0,-1.0,6915.0,-570.0,3760.0,-257.0,65.0,-146.0,0.0,42.0,-299.0,0.875529,-0.077619,0.476843,13910.0,-916.0,7390.0,-1.0,-4.0,-9.0
2875.0,2827.0,2887.0,3135.0,2983.0,0.856628,-0.004761,-0.511475,0.067688,-1.0,-1.0,-1.0,6919.0,-536.0,3739.0,-254.0,98.0,-166.0,15.0,76.0,-309.0,0.875643,-0.077398,0.476765,13886.0,-880.0,7392.0,-6.0,-3.0,-7.0
2871.0,2822.0,2891.0,3135.0,2999.0,0.856628,-0.0047,-0.511475,0.067566,-1.0,0.0,0.0,6931.0,-486.0,3719.0,-242.0,146.0,-186.0,33.0,126.0,-311.0,0.875652,-0.077168,0.476749,13838.0,-840.0,7366.0,-12.0,7.0,1.0
2879.0,2825.0,2879.0,3143.0,2967.0,0.856628,-0.0047,-0.511475,0.067505,-1.0,0.0,0.0,6922.0,-477.0,3726.0,-251.0,154.0,-179.0,22.0,133.0,-316.0,0.875653,-0.077106,0.476741,13784.0,-924.0,7492.0,-14.0,7.0,4.0
2879.0,2833.0,2901.0,3131.0,2991.0,0.856628,-0.004639,-0.511414,0.067444,0.0,0.0,0.0,6914.0,-508.0,3737.0,-258.0,122.0,-168.0,13.0,100.0,-315.0,0.875557,-0.076931,0.476796,13846.0,-1142.0,7598.0,10.0,3.0,3.0
2886.0,2830.0,2871.0,3151.0,2987.0,0.856628,-0.004517,-0.511414,0.067505,1.0,0.0,0.0,6916.0,-525.0,3748.0,-256.0,104.0,-157.0,6.0,81.0,-306.0,0.875573,-0.076784,0.476805,13870.0,-1138.0,7594.0,27.0,3.0,4.0
2877.0,2823.0,2894.0,3135.0,2989.0,0.85675,-0.004211,-0.51123,0.067749,1.0,0.0,0.0,6914.0,-485.0,3778.0,-257.0,141.0,-131.0,-21.0,116.0,-298.0,0.875423,-0.076487,0.477237,13784.0,-692.0,7624.0,28.0,15.0,13.0
2853.0,2828.0,2870.0,3151.0,2991.0,0.85675,-0.00415,-0.511169,0.067749,-1.0,0.0,0.0,6898.0,-448.0,3791.0,-272.0,177.0,-119.0,-42.0,150.0,-308.0,0.875327,-0.076374,0.4773,13730.0,-726.0,7654.0,-9.0,9.0,21.0
2885.0,2815.0,2897.0,3153.0,2983.0,0.856812,-0.004517,-0.511169,0.06781,-2.0,0.0,1.0,6903.0,-525.0,3776.0,-267.0,106.0,-134.0,-19.0,81.0,-305.0,0.875339,-0.077065,0.47741,13832.0,-1442.0,7386.0,-29.0,7.0,32.0
2879.0,2829.0,2887.0,3143.0,2975.0,0.856812,-0.0047,-0.511108,0.067993,0.0,0.0,1.0,6902.0,-577.0,3773.0,-267.0,58.0,-138.0,-10.0,33.0,-304.0,0.875208,-0.077557,0.477495,13768.0,-1424.0,7546.0,2.0,16.0,26.0
2886.0,2813.0,2894.0,3151.0,2991.0,0.856934,-0.0047,-0.510864,0.068237,0.0,0.0,0.0,6872.0,-576.0,3771.0,-295.0,61.0,-144.0,-18.0,33.0,-331.0,0.874912,-0.077775,0.477987,13642.0,-1100.0,7538.0,6.0,22.0,16.0
2867.0,2831.0,2887.0,3135.0,2973.0,0.856995,-0.004761,-0.510742,0.068237,-1.0,0.0,0.0,6857.0,-586.0,3772.0,-309.0,51.0,-145.0,-23.0,21.0,-343.0,0.874757,-0.077863,0.478216,13616.0,-1276.0,7534.0,-15.0,19.0,17.0
2881.0,2837.0,2881.0,3151.0,2995.0,0.857056,-0.005127,-0.51062,0.068359,-1.0,0.0,0.0,6850.0,-659.0,3772.0,-314.0,-15.0,-147.0,-16.0,-44.0,-343.0,0.874559,-0.0786,0.478458,13734.0,-1558.0,7586.0,-14.0,11.0,15.0
2887.0,2835.0,2899.0,3163.0,2975.0,0.857056,-0.005249,-0.510559,0.06842,0.0,0.0,0.0,6858.0,-697.0,3776.0,-305.0,-50.0,-144.0,-11.0,-78.0,-331.0,0.874437,-0.078863,0.478528,13800.0,-1648.0,7578.0,2.0,13.0,7.0
2863.0,2815.0,2890.0,3135.0,2983.0,0.857178,-0.005249,-0.510376,0.068542,0.0,1.0,-1.0,6886.0,-693.0,3793.0,-275.0,-46.0,-130.0,-10.0,-71.0,-299.0,0.874246,-0.078964,0.478941,13828.0,-1308.0,7634.0,5.0,24.0,-7.0
2884.0,2827.0,2899.0,3135.0,2990.0,0.857239,-0.00531,-0.510254,0.068481,-1.0,0.0,-1.0,6899.0,-670.0,3808.0,-261.0,-22.0,-117.0,-17.0,-46.0,-282.0,0.874092,-0.07899,0.479161,13890.0,-1198.0,7724.0,-14.0,22.0,-4.0
2885.0,2823.0,2909.0,3157.0,2991.0,0.857422,-0.005493,-0.51001,0.068298,-2.0,0.0,-1.0,6900.0,-674.0,3821.0,-258.0,-26.0,-108.0,-23.0,-50.0,-275.0,0.873837,-0.079086,0.479697,13730.0,-1434.0,7622.0,-24.0,22.0,-7.0
2863.0,2819.0,2923.0,3125.0,2999.0,0.857422,-0.005615,-0.509949,0.068237,-1.0,0.0,-1.0,6881.0,-674.0,3814.0,-276.0,-24.0,-116.0,-25.0,-50.0,-294.0,0.873716,-0.079224,0.479749,13668.0,-1322.0,7630.0,-11.0,5.0,-10.0
2893.0,2823.0,2894.0,3151.0,2999.0,0.857422,-0.005554,-0.51001,0.068115,0.0,-1.0,-1.0,6898.0,-637.0,3827.0,-260.0,10.0,-102.0,-34.0,-15.0,-276.0,0.87383,-0.079003,0.479671,13804.0,-1094.0,7632.0,1.0,-9.0,-12.0
2895.0,2835.0,2891.0,3147.0,2999.0,0.857422,-0.005432,-0.510071,0.068054,-1.0,-1.0,-1.0,6895.0,-610.0,3821.0,-264.0,35.0,-107.0,-34.0,8.0,-284.0,0.873952,-0.07874,0.479602,13786.0,-1062.0,7628.0,-4.0,-16.0,-15.0
2883.0,2843.0,2885.0,3151.0,2995.0,0.8573,-0.005432,-0.510254,0.06781,-1.0,-1.0,-1.0,6912.0,-580.0,3819.0,-248.0,63.0,-106.0,-30.0,38.0,-272.0,0.874144,-0.078515,0.479173,13916.0,-1144.0,7650.0,-19.0,-22.0,-10.0
2883.0,2834.0,2911.0,3151.0,2995.0,0.8573,-0.005493,-0.510315,0.067749,-1.0,-1.0,-1.0,6918.0,-595.0,3812.0,-243.0,48.0,-112.0,-21.0,24.0,-269.0,0.874241,-0.078565,0.479101,13840.0,-1302.0,7560.0,-15.0,-16.0,-6.0
2887.0,2823.0,2899.0,3123.0,2975.0,0.857178,-0.005432,-0.510498,0.067627,-1.0,-2.0,-1.0,6899.0,-580.0,3790.0,-264.0,61.0,-131.0,-15.0,36.0,-298.0,0.87444,-0.078359,0.478689,13824.0,-1086.0,7582.0,0.0,-24.0,-9.0
2879.0,2831.0,2867.0,3135.0,2987.0,0.857117,-0.005371,-0.51062,0.067566,-1.0,-1.0,-1.0,6902.0,-572.0,3791.0,-262.0,68.0,-128.0,-18.0,43.0,-295.0,0.874596,-0.078208,0.478452,13796.0,-1086.0,7552.0,0.0,-21.0,-7.0
2879.0,2832.0,2895.0,3143.0,2992.0,0.856995,-0.005249,-0.510864,0.067505,-1.0,-2.0,-1.0,6897.0,-539.0,3775.0,-270.0,99.0,-140.0,-14.0,73.0,-310.0,0.874907,-0.077968,0.477987,13838.0,-1016.0,7498.0,-11.0,-30.0,-3.0
2877.0,2835.0,2897.0,3141.0,2998.0,0.856873,-0.00531,-0.510986,0.067444,-1.0,-2.0,0.0,6909.0,-554.0,3779.0,-258.0,85.0,-133.0,-13.0,60.0,-295.0,0.874984,-0.078026,0.477644,13898.0,-1232.0,7546.0,-13.0,-28.0,1.0
2883.0,2826.0,2897.0,3151.0,2987.0,0.856812,-0.005249,-0.511169,0.067444,0.0,-1.0,0.0,6933.0,-577.0,3763.0,-236.0,61.0,-147.0,11.0,40.0,-281.0,0.875244,-0.077945,0.477353,13850.0,-1212.0,7484.0,12.0,-4.0,0.0
2879.0,2831.0,2897.0,3151.0,3003.0,0.856812,-0.005188,-0.511169,0.067505,0.0,0.0,0.0,6917.0,-580.0,3760.0,-253.0,58.0,-150.0,6.0,35.0,-297.0,0.875251,-0.077903,0.477362,13720.0,-1176.0,7538.0,15.0,1.0,2.0
2887.0,2832.0,2896.0,3135.0,2987.0,0.856812,-0.005066,-0.511169,0.067566,0.0,-1.0,0.0,6875.0,-582.0,3764.0,-295.0,54.0,-146.0,-16.0,26.0,-332.0,0.875267,-0.077756,0.477371,13640.0,-1290.0,7544.0,1.0,-3.0,2.0
2869.0,2832.0,2887.0,3153.0,2992.0,0.856812,-0.005127,-0.511169,0.067566,-1.0,-1.0,0.0,6860.0,-611.0,3767.0,-310.0,26.0,-143.0,-22.0,-3.0,-341.0,0.875259,-0.077861,0.477371,13658.0,-1382.0,7552.0,-3.0,-11.0,11.0
2897.0,2827.0,2894.0,3131.0,2995.0,0.85675,-0.005249,-0.511292,0.067749,-1.0,-1.0,0.0,6847.0,-641.0,3769.0,-324.0,0.0,-139.0,-29.0,-30.0,-349.0,0.875387,-0.078273,0.477165,13702.0,-1370.0,7554.0,-3.0,-16.0,5.0
2879.0,2833.0,2907.0,3139.0,2983.0,0.856689,-0.00531,-0.511292,0.067749,-1.0,-1.0,0.0,6876.0,-649.0,3779.0,-294.0,-6.0,-129.0,-23.0,-33.0,-318.0,0.875317,-0.078377,0.47706,13924.0,-1340.0,7626.0,-9.0,-9.0,3.0
2887.0,2832.0,2900.0,3120.0,2997.0,0.856689,-0.005493,-0.511292,0.067688,-1.0,0.0,-1.0,6909.0,-659.0,3777.0,-261.0,-14.0,-130.0,-6.0,-37.0,-289.0,0.875292,-0.078628,0.477049,13912.0,-1412.0,7534.0,-16.0,6.0,-2.0
2880.0,2831.0,2887.0,3123.0,2983.0,0.856689,-0.005554,-0.511292,0.067627,-1.0,0.0,-1.0,6918.0,-677.0,3783.0,-252.0,-32.0,-124.0,-5.0,-54.0,-277.0,0.875285,-0.078671,0.47704,13880.0,-1476.0,7630.0,-10.0,13.0,-3.0
2874.0,2827.0,2879.0,3135.0,2995.0,0.856812,-0.005676,-0.511108,0.067627,-1.0,0.0,-1.0,6884.0,-665.0,3789.0,-284.0,-19.0,-122.0,-23.0,-46.0,-305.0,0.875079,-0.078856,0.477435,13674.0,-1296.0,7658.0,-10.0,17.0,-1.0
2875.0,2831.0,2882.0,3135.0,2992.0,0.856873,-0.005737,-0.510986,0.067627,-1.0,0.0,0.0,6869.0,-672.0,3790.0,-298.0,-25.0,-123.0,-29.0,-53.0,-317.0,0.874924,-0.078945,0.477664,13618.0,-1402.0,7586.0,-17.0,13.0,3.0
2877.0,2831.0,2891.0,3143.0,2983.0,0.856934,-0.006042,-0.510986,0.067505,-2.0,-1.0,-1.0,6857.0,-651.0,3786.0,-310.0,-1.0,-127.0,-33.0,-31.0,-331.0,0.874947,-0.079344,0.477749,13770.0,-1282.0,7618.0,-32.0,-2.0,-7.0
2882.0,2823.0,2897.0,3135.0,2983.0,0.856934,-0.006165,-0.510986,0.067383,-2.0,0.0,-1.0,6866.0,-679.0,3776.0,-301.0,-28.0,-137.0,-17.0,-56.0,-326.0,0.874932,-0.079429,0.477731,13802.0,-1546.0,7514.0,-34.0,1.0,-12.0
2869.0,2823.0,2895.0,3143.0,2975.0,0.856995,-0.006348,-0.510925,0.067139,-1.0,0.0,-2.0,6893.0,-707.0,3754.0,-273.0,-55.0,-160.0,18.0,-78.0,-310.0,0.874868,-0.079486,0.477862,13910.0,-1450.0,7460.0,-11.0,20.0,-25.0
2882.0,2829.0,2896.0,3143.0,2992.0,0.857056,-0.006348,-0.510803,0.067017,-1.0,1.0,-2.0,6902.0,-686.0,3729.0,-263.0,-36.0,-187.0,44.0,-56.0,-316.0,0.874723,-0.079345,0.478075,13836.0,-1178.0,7310.0,-3.0,41.0,-28.0
2879.0,2830.0,2895.0,3147.0,2993.0,0.857361,-0.006348,-0.510376,0.066589,-2.0,2.0,-1.0,6892.0,-593.0,3686.0,-270.0,52.0,-237.0,75.0,32.0,-353.0,0.874307,-0.078856,0.478978,13694.0,-986.0,7176.0,-35.0,61.0,-22.0
2878.0,2829.0,2886.0,3183.0,2991.0,0.857483,-0.00647,-0.510132,0.066406,-3.0,2.0,-1.0,6890.0,-564.0,3657.0,-269.0,81.0,-270.0,101.0,63.0,-370.0,0.873999,-0.078847,0.47941,13770.0,-978.0,7142.0,-48.0,63.0,-5.0
2879.0,2825.0,2896.0,3135.0,2992.0,0.857788,-0.006897,-0.509705,0.066162,-2.0,3.0,0.0,6908.0,-561.0,3623.0,-247.0,88.0,-311.0,146.0,74.0,-372.0,0.873524,-0.079279,0.480331,13858.0,-1142.0,7108.0,-39.0,81.0,17.0
2878.0,2832.0,2894.0,3143.0,2991.0,0.857971,-0.00708,-0.509399,0.066162,-2.0,3.0,0.0,6916.0,-556.0,3614.0,-236.0,95.0,-325.0,162.0,83.0,-369.0,0.873163,-0.079555,0.480954,13914.0,-1112.0,7192.0,-25.0,85.0,20.0
2896.0,2829.0,2895.0,3143.0,2991.0,0.858337,-0.007263,-0.508667,0.066223,0.0,4.0,0.0,6931.0,-539.0,3635.0,-214.0,115.0,-316.0,162.0,105.0,-348.0,0.872254,-0.07984,0.482334,13820.0,-964.0,7380.0,6.0,97.0,15.0
2881.0,2823.0,2884.0,3135.0,2983.0,0.858582,-0.007202,-0.508301,0.066223,0.0,3.0,0.0,6930.0,-512.0,3668.0,-212.0,140.0,-289.0,137.0,128.0,-335.0,0.871881,-0.07969,0.483126,13884.0,-882.0,7586.0,6.0,88.0,8.0
2879.0,2830.0,2895.0,3135.0,2983.0,0.859009,-0.00708,-0.507629,0.066284,0.0,2.0,0.0,6934.0,-493.0,3766.0,-202.0,157.0,-203.0,64.0,142.0,-286.0,0.871178,-0.079459,0.484552,13846.0,-924.0,7852.0,13.0,65.0,11.0
2879.0,2831.0,2896.0,3143.0,2991.0,0.859192,-0.006958,-0.507324,0.066345,0.0,2.0,0.0,6934.0,-476.0,3847.0,-200.0,173.0,-127.0,-2.0,154.0,-249.0,0.870854,-0.079274,0.485186,13878.0,-848.0,8230.0,19.0,51.0,9.0
2879.0,2827.0,2896.0,3143.0,2991.0,0.859497,-0.006714,-0.506714,0.066406,0.0,1.0,0.0,6924.0,-474.0,4013.0,-204.0,171.0,28.0,-140.0,143.0,-177.0,0.870147,-0.078839,0.486341,13702.0,-948.0,8462.0,20.0,35.0,3.0
2881.0,2827.0,2891.0,3135.0,2991.0,0.85968,-0.006531,-0.50647,0.066406,0.0,0.0,-1.0,6892.0,-481.0,4091.0,-234.0,162.0,102.0,-218.0,126.0,-166.0,0.869937,-0.078494,0.486906,13604.0,-1016.0,8654.0,21.0,13.0,-9.0
2879.0,2831.0,2877.0,3135.0,2983.0,0.859863,-0.006104,-0.506104,0.066406,1.0,-1.0,-1.0,6824.0,-485.0,4183.0,-299.0,151.0,188.0,-323.0,102.0,-180.0,0.869549,-0.077713,0.487597,13494.0,-906.0,8532.0,35.0,-15.0,-8.0
2871.0,2830.0,2899.0,3141.0,2991.0,0.859924,-0.00592,-0.506042,0.066467,1.0,-2.0,0.0,6782.0,-461.0,4185.0,-341.0,173.0,189.0,-346.0,119.0,-217.0,0.869529,-0.077453,0.487774,13288.0,-780.0,8370.0,26.0,-26.0,4.0
2879.0,2829.0,2899.0,3143.0,2991.0,0.859802,-0.00592,-0.506165,0.06665,-1.0,-2.0,1.0,6750.0,-526.0,4114.0,-373.0,110.0,120.0,-295.0,57.0,-274.0,0.869614,-0.077653,0.487465,13460.0,-1370.0,7892.0,-5.0,-43.0,34.0
2877.0,2830.0,2895.0,3141.0,2991.0,0.859741,-0.006042,-0.506287,0.066833,-1.0,-2.0,1.0,6741.0,-581.0,4053.0,-383.0,58.0,61.0,-242.0,7.0,-307.0,0.869743,-0.078064,0.487259,13418.0,-1514.0,7774.0,-7.0,-37.0,31.0
2879.0,2831.0,2896.0,3139.0,2987.0,0.859558,-0.006287,-0.506531,0.067078,-1.0,-2.0,0.0,6747.0,-691.0,3914.0,-379.0,-45.0,-73.0,-112.0,-86.0,-361.0,0.869942,-0.078761,0.486727,13582.0,-1626.0,7438.0,-1.0,-23.0,12.0
2885.0,2832.0,2895.0,3139.0,2987.0,0.859497,-0.006409,-0.506653,0.067139,-1.0,-1.0,0.0,6762.0,-705.0,3845.0,-365.0,-57.0,-140.0,-46.0,-92.0,-381.0,0.870073,-0.079048,0.486505,13634.0,-1470.0,7276.0,-11.0,-17.0,5.0
2883.0,2832.0,2894.0,3147.0,2973.0,0.859314,-0.006836,-0.506958,0.067017,-2.0,-1.0,0.0,6817.0,-732.0,3752.0,-312.0,-79.0,-228.0,58.0,-103.0,-376.0,0.870356,-0.079698,0.485859,13832.0,-1560.0,7280.0,-37.0,-14.0,2.0
2886.0,2823.0,2893.0,3141.0,2991.0,0.859253,-0.007019,-0.50708,0.066956,-2.0,-1.0,0.0,6868.0,-739.0,3727.0,-262.0,-83.0,-251.0,103.0,-100.0,-343.0,0.87048,-0.079966,0.485619,14068.0,-1510.0,7358.0,-33.0,-5.0,0.0
2879.0,2827.0,2895.0,3142.0,2991.0,0.859253,-0.007324,-0.50708,0.066711,-2.0,1.0,-1.0,6940.0,-707.0,3721.0,-190.0,-49.0,-256.0,137.0,-57.0,-285.0,0.870443,-0.080243,0.485582,14006.0,-1334.0,7500.0,-33.0,32.0,-15.0
2879.0,2831.0,2902.0,3139.0,2991.0,0.859314,-0.007446,-0.507019,0.066589,-2.0,1.0,-1.0,6942.0,-695.0,3737.0,-188.0,-37.0,-242.0,125.0,-46.0,-278.0,0.870385,-0.080322,0.485731,13860.0,-1312.0,7558.0,-33.0,40.0,-13.0
2878.0,2832.0,2896.0,3143.0,2979.0,0.859497,-0.007629,-0.506775,0.066345,-1.0,1.0,-1.0,6901.0,-677.0,3779.0,-227.0,-18.0,-204.0,71.0,-34.0,-295.0,0.870131,-0.080359,0.486258,13602.0,-1302.0,7698.0,-15.0,24.0,-11.0
2869.0,2823.0,2889.0,3135.0,2989.0,0.859558,-0.007629,-0.506653,0.066284,0.0,0.0,-1.0,6877.0,-660.0,3809.0,-249.0,-2.0,-176.0,34.0,-22.0,-302.0,0.869984,-0.080282,0.486478,13622.0,-1188.0,7784.0,2.0,11.0,-9.0
2881.0,2826.0,2891.0,3139.0,2991.0,0.859619,-0.007446,-0.506592,0.066162,-1.0,-1.0,-1.0,6876.0,-574.0,3869.0,-250.0,80.0,-117.0,-25.0,55.0,-280.0,0.869967,-0.079836,0.486632,13776.0,-880.0,7916.0,-8.0,0.0,-20.0
2883.0,2831.0,2896.0,3141.0,2993.0,0.859619,-0.007385,-0.506592,0.065918,-2.0,-1.0,-1.0,6888.0,-561.0,3883.0,-238.0,90.0,-103.0,-33.0,66.0,-264.0,0.869978,-0.079484,0.4866,13856.0,-1164.0,7836.0,-24.0,0.0,-22.0
2879.0,2832.0,2896.0,3141.0,2991.0,0.85968,-0.007385,-0.50647,0.065674,-1.0,0.0,-1.0,6873.0,-564.0,3874.0,-252.0,84.0,-113.0,-30.0,59.0,-280.0,0.869834,-0.079222,0.486797,13604.0,-1048.0,7704.0,-3.0,12.0,-16.0
2882.0,2830.0,2895.0,3135.0,2987.0,0.859741,-0.007324,-0.506409,0.065613,0.0,0.0,-1.0,6862.0,-553.0,3871.0,-263.0,94.0,-118.0,-32.0,67.0,-293.0,0.8698,-0.079048,0.486957,13672.0,-1022.0,7718.0,1.0,8.0,-10.0
2875.0,2827.0,2898.0,3135.0,2989.0,0.859802,-0.007263,-0.506348,0.065491,-1.0,0.0,0.0,6820.0,-533.0,3856.0,-305.0,112.0,-134.0,-40.0,81.0,-339.0,0.869766,-0.078812,0.487108,13472.0,-1012.0,7614.0,-8.0,1.0,3.0
2879.0,2831.0,2895.0,3147.0,2991.0,0.859802,-0.007324,-0.506348,0.065491,-1.0,-1.0,0.0,6810.0,-537.0,3849.0,-315.0,109.0,-141.0,-39.0,77.0,-351.0,0.869758,-0.078917,0.487107,13630.0,-1154.0,7680.0,-15.0,-13.0,5.0
2881.0,2831.0,2899.0,3143.0,2991.0,0.85968,-0.007446,-0.506531,0.065491,-1.0,-1.0,0.0,6833.0,-560.0,3836.0,-293.0,88.0,-151.0,-17.0,60.0,-335.0,0.869934,-0.079149,0.48671,13754.0,-1168.0,7592.0,-6.0,-15.0,10.0
2879.0,2831.0,2891.0,3135.0,2991.0,0.859619,-0.007446,-0.506592,0.065552,-1.0,-1.0,0.0,6872.0,-576.0,3840.0,-254.0,72.0,-145.0,-2.0,48.0,-297.0,0.869976,-0.079218,0.486551,14002.0,-1276.0,7746.0,0.0,-6.0,9.0
2879.0,2827.0,2891.0,3139.0,2993.0,0.85968,-0.007385,-0.506531,0.065674,0.0,0.0,0.0,6904.0,-586.0,3838.0,-222.0,63.0,-149.0,17.0,43.0,-270.0,0.869939,-0.07923,0.486735,13826.0,-1150.0,7678.0,12.0,13.0,11.0
2882.0,2831.0,2896.0,3135.0,2991.0,0.85968,-0.007385,-0.50647,0.065674,-1.0,0.0,0.0,6902.0,-575.0,3847.0,-223.0,73.0,-140.0,7.0,53.0,-267.0,0.869834,-0.079222,0.486797,13784.0,-1096.0,7798.0,-1.0,9.0,8.0
2879.0,2831.0,2895.0,3149.0,2992.0,0.859741,-0.007446,-0.506409,0.065674,-1.0,0.0,0.0,6892.0,-593.0,3863.0,-233.0,56.0,-126.0,-7.0,34.0,-268.0,0.869783,-0.079319,0.486963,13672.0,-1222.0,7788.0,-6.0,2.0,1.0
2883.0,2832.0,2859.0,3135.0,2991.0,0.859741,-0.007446,-0.506409,0.065674,-1.0,-1.0,0.0,6874.0,-598.0,3875.0,-251.0,51.0,-114.0,-26.0,26.0,-277.0,0.869783,-0.079319,0.486963,13640.0,-1228.0,7814.0,-4.0,-7.0,0.0
2879.0,2829.0,2894.0,3139.0,2989.0,0.85968,-0.007507,-0.506531,0.065674,-1.0,-2.0,0.0,6838.0,-582.0,3899.0,-288.0,68.0,-88.0,-68.0,37.0,-298.0,0.869923,-0.079439,0.486733,13606.0,-1028.0,7892.0,-11.0,-27.0,11.0
2883.0,2831.0,2894.0,3135.0,2987.0,0.859619,-0.007568,-0.506592,0.065613,-1.0,-2.0,0.0,6844.0,-578.0,3910.0,-282.0,73.0,-75.0,-77.0,42.0,-287.0,0.869959,-0.07949,0.486558,13784.0,-1186.0,7906.0,-21.0,-34.0,7.0
2883.0,2831.0,2893.0,3135.0,2989.0,0.859497,-0.007629,-0.506775,0.065613,0.0,-1.0,-1.0,6859.0,-601.0,3882.0,-269.0,51.0,-100.0,-46.0,23.0,-286.0,0.870142,-0.079617,0.486161,13730.0,-1172.0,7656.0,3.0,-11.0,-2.0
2883.0,2831.0,2893.0,3139.0,2987.0,0.859497,-0.007568,-0.506836,0.065613,0.0,-1.0,-1.0,6843.0,-585.0,3861.0,-286.0,66.0,-121.0,-37.0,37.0,-312.0,0.870255,-0.07952,0.4861,13590.0,-1052.0,7602.0,7.0,-9.0,-5.0
2879.0,2829.0,2895.0,3139.0,2987.0,0.859436,-0.007507,-0.506958,0.065552,-1.0,-1.0,0.0,6864.0,-586.0,3833.0,-266.0,64.0,-147.0,-5.0,39.0,-308.0,0.870412,-0.079368,0.485865,13868.0,-1212.0,7568.0,-1.0,-7.0,1.0
2879.0,2827.0,2895.0,3143.0,2991.0,0.859436,-0.007507,-0.506958,0.065552,-1.0,0.0,0.0,6876.0,-587.0,3816.0,-254.0,63.0,-164.0,15.0,40.0,-305.0,0.870412,-0.079368,0.485865,13802.0,-1170.0,7548.0,-3.0,5.0,2.0
2877.0,2831.0,2891.0,3137.0,2987.0,0.859497,-0.007629,-0.506897,0.065491,-1.0,1.0,-1.0,6863.0,-626.0,3768.0,-266.0,25.0,-213.0,56.0,4.0,-337.0,0.870354,-0.079509,0.486021,13602.0,-1410.0,7374.0,-11.0,23.0,-1.0
2882.0,2832.0,2889.0,3135.0,2991.0,0.859497,-0.00769,-0.506836,0.06543,-1.0,0.0,-1.0,6848.0,-649.0,3759.0,-281.0,2.0,-222.0,59.0,-20.0,-352.0,0.870242,-0.079544,0.486074,13666.0,-1454.0,7504.0,-9.0,17.0,-5.0
2879.0,2830.0,2891.0,3141.0,2992.0,0.859619,-0.007751,-0.506653,0.065369,-1.0,1.0,-1.0,6865.0,-648.0,3795.0,-262.0,3.0,-190.0,40.0,-18.0,-320.0,0.870044,-0.079565,0.486461,13786.0,-1216.0,7758.0,-11.0,26.0,-10.0
2879.0,2827.0,2885.0,3139.0,2983.0,0.85968,-0.007812,-0.506531,0.065247,-2.0,1.0,-1.0,6860.0,-641.0,3819.0,-266.0,10.0,-167.0,17.0,-13.0,-313.0,0.869889,-0.079531,0.486673,13704.0,-1308.0,7808.0,-26.0,28.0,-12.0
2883.0,2831.0,2893.0,3143.0,2983.0,0.859863,-0.008057,-0.506226,0.065063,-1.0,0.0,-1.0,6848.0,-672.0,3874.0,-275.0,-18.0,-117.0,-27.0,-44.0,-294.0,0.869521,-0.079729,0.487269,13698.0,-1378.0,7886.0,-12.0,22.0,-10.0
2878.0,2831.0,2897.0,3143.0,2993.0,0.859985,-0.008057,-0.506104,0.065002,0.0,1.0,-1.0,6853.0,-662.0,3895.0,-269.0,-9.0,-99.0,-41.0,-36.0,-281.0,0.869436,-0.079653,0.487594,13702.0,-1226.0,7894.0,1.0,23.0,-12.0
2881.0,2827.0,2893.0,3139.0,2992.0,0.860107,-0.007996,-0.505859,0.064941,-1.0,0.0,-1.0,6852.0,-597.0,3929.0,-268.0,53.0,-69.0,-73.0,24.0,-270.0,0.869148,-0.079457,0.488045,13686.0,-976.0,8014.0,-7.0,15.0,-9.0
2863.0,2827.0,2893.0,3135.0,2986.0,0.860168,-0.007996,-0.505798,0.064819,-1.0,0.0,-1.0,6850.0,-576.0,3929.0,-269.0,73.0,-70.0,-75.0,43.0,-273.0,0.869107,-0.079326,0.488195,13710.0,-1052.0,7850.0,-18.0,2.0,-7.0
2879.0,2823.0,2896.0,3147.0,2983.0,0.860168,-0.008057,-0.505859,0.064636,-1.0,-1.0,-1.0,6846.0,-573.0,3906.0,-274.0,76.0,-92.0,-59.0,47.0,-289.0,0.869207,-0.079254,0.488109,13680.0,-1154.0,7750.0,-15.0,-15.0,-2.0
2879.0,2826.0,2887.0,3135.0,2983.0,0.860107,-0.008057,-0.50592,0.064636,-1.0,-1.0,-1.0,6851.0,-582.0,3892.0,-269.0,67.0,-105.0,-44.0,39.0,-290.0,0.86925,-0.079261,0.487942,13752.0,-1220.0,7714.0,-4.0,-21.0,-2.0
2859.0,2823.0,2886.0,3138.0,2994.0,0.859985,-0.007935,-0.506104,0.064575,-1.0,-1.0,-1.0,6881.0,-558.0,3860.0,-241.0,89.0,-133.0,-8.0,66.0,-281.0,0.869458,-0.079011,0.487541,13874.0,-1024.0,7690.0,-3.0,-9.0,-4.0
2879.0,2832.0,2891.0,3150.0,2975.0,0.859985,-0.007996,-0.506104,0.064514,-1.0,0.0,0.0,6881.0,-556.0,3843.0,-241.0,91.0,-150.0,5.0,69.0,-289.0,0.869452,-0.079054,0.487532,13720.0,-1116.0,7568.0,-20.0,1.0,0.0
2879.0,2831.0,2875.0,3143.0,2983.0,0.859985,-0.00824,-0.506165,0.064453,-1.0,-1.0,0.0,6852.0,-608.0,3798.0,-271.0,42.0,-195.0,35.0,19.0,-334.0,0.869526,-0.07942,0.487459,13664.0,-1306.0,7472.0,-11.0,-2.0,7.0
2879.0,2825.0,2895.0,3143.0,2994.0,0.859924,-0.00824,-0.506226,0.064453,-1.0,-1.0,-1.0,6859.0,-601.0,3792.0,-264.0,49.0,-199.0,41.0,27.0,-330.0,0.869569,-0.079427,0.487292,13812.0,-1162.0,7610.0,-1.0,-1.0,-1.0
2879.0,2827.0,2894.0,3137.0,2987.0,0.859985,-0.008301,-0.506165,0.064392,-1.0,0.0,0.0,6854.0,-603.0,3808.0,-269.0,47.0,-185.0,27.0,23.0,-327.0,0.869519,-0.079463,0.48745,13628.0,-1202.0,7702.0,-10.0,9.0,2.0
2855.0,2832.0,2898.0,3143.0,2981.0,0.859985,-0.008301,-0.506165,0.064392,-1.0,0.0,0.0,6852.0,-612.0,3821.0,-271.0,38.0,-172.0,16.0,14.0,-322.0,0.869519,-0.079463,0.48745,13740.0,-1278.0,7760.0,-10.0,2.0,4.0
2879.0,2817.0,2887.0,3139.0,2995.0,0.860046,-0.008362,-0.506104,0.064392,0.0,0.0,0.0,6846.0,-605.0,3855.0,-276.0,46.0,-139.0,-15.0,19.0,-311.0,0.869468,-0.079561,0.487615,13616.0,-1130.0,7832.0,4.0,5.0,4.0
2878.0,2823.0,2887.0,3131.0,2992.0,0.860046,-0.008301,-0.506042,0.064392,-1.0,0.0,-1.0,6858.0,-602.0,3882.0,-263.0,48.0,-113.0,-32.0,22.0,-287.0,0.869371,-0.079448,0.487678,13860.0,-1230.0,7948.0,0.0,5.0,-1.0
2883.0,2831.0,2891.0,3143.0,2995.0,0.860168,-0.008301,-0.505859,0.064331,-1.0,0.0,-1.0,6858.0,-599.0,3897.0,-262.0,51.0,-101.0,-42.0,24.0,-281.0,0.869181,-0.079365,0.488066,13626.0,-1172.0,7816.0,-2.0,16.0,-3.0
2876.0,2828.0,2894.0,3138.0,2987.0,0.860229,-0.008301,-0.505798,0.064331,-1.0,0.0,-1.0,6846.0,-603.0,3908.0,-273.0,47.0,-91.0,-56.0,18.0,-285.0,0.869137,-0.079358,0.488232,13630.0,-1252.0,7898.0,-4.0,9.0,-8.0
2879.0,2829.0,2893.0,3135.0,2990.0,0.860291,-0.008301,-0.505676,0.06427,-1.0,0.0,-1.0,6831.0,-600.0,3917.0,-287.0,49.0,-84.0,-69.0,18.0,-294.0,0.86899,-0.079282,0.488453,13622.0,-1094.0,7854.0,-1.0,2.0,-3.0
2881.0,2831.0,2894.0,3141.0,2992.0,0.860291,-0.008301,-0.505615,0.064209,-1.0,-1.0,-1.0,6816.0,-586.0,3919.0,-301.0,62.0,-82.0,-79.0,29.0,-306.0,0.868886,-0.079212,0.488507,13540.0,-1118.0,7844.0,-17.0,-6.0,-1.0
2883.0,2831.0,2887.0,3139.0,2987.0,0.860229,-0.008545,-0.505798,0.064087,-2.0,-2.0,0.0,6826.0,-618.0,3906.0,-293.0,33.0,-93.0,-63.0,2.0,-302.0,0.86911,-0.079531,0.488197,13854.0,-1420.0,7762.0,-27.0,-23.0,4.0
2878.0,2831.0,2891.0,3135.0,2983.0,0.860168,-0.008606,-0.505859,0.064026,-1.0,-1.0,-1.0,6849.0,-645.0,3891.0,-271.0,6.0,-106.0,-38.0,-20.0,-287.0,0.869147,-0.079581,0.488021,13826.0,-1420.0,7656.0,-10.0,-11.0,-6.0
2880.0,2831.0,2882.0,3110.0,2991.0,0.860168,-0.008484,-0.50592,0.064026,0.0,-1.0,-1.0,6867.0,-640.0,3857.0,-254.0,10.0,-140.0,0.0,-13.0,-289.0,0.869267,-0.079379,0.487962,13746.0,-1114.0,7578.0,16.0,-2.0,-16.0
2879.0,2831.0,2895.0,3139.0,2987.0,0.860168,-0.008362,-0.50592,0.063904,0.0,-1.0,-1.0,6880.0,-610.0,3859.0,-241.0,37.0,-138.0,0.0,15.0,-279.0,0.869285,-0.079046,0.487948,13838.0,-1042.0,7740.0,11.0,0.0,-18.0
2879.0,2827.0,2897.0,3141.0,2991.0,0.860168,-0.00824,-0.505859,0.063721,-1.0,0.0,-1.0,6869.0,-573.0,3843.0,-251.0,71.0,-154.0,6.0,48.0,-298.0,0.869198,-0.078643,0.487989,13642.0,-1082.0,7610.0,-8.0,10.0,-12.0
2879.0,2827.0,2879.0,3151.0,2979.0,0.860229,-0.00824,-0.505859,0.06366,-1.0,0.0,-1.0,6853.0,-567.0,3837.0,-267.0,76.0,-161.0,4.0,51.0,-316.0,0.869261,-0.078582,0.488086,13608.0,-1104.0,7644.0,-11.0,6.0,-8.0
2871.0,2823.0,2879.0,3135.0,2991.0,0.860229,-0.00824,-0.505798,0.063538,-1.0,0.0,-1.0,6857.0,-590.0,3834.0,-263.0,52.0,-164.0,11.0,28.0,-312.0,0.869158,-0.078451,0.488132,13684.0,-1230.0,7688.0,-1.0,8.0,-4.0
2875.0,2831.0,2887.0,3145.0,3011.0,0.860229,-0.00824,-0.505798,0.063538,0.0,0.0,0.0,6837.0,-592.0,3833.0,-283.0,50.0,-165.0,2.0,24.0,-330.0,0.869158,-0.078451,0.488132,13520.0,-1192.0,7664.0,3.0,3.0,1.0
2879.0,2829.0,2886.0,3139.0,2991.0,0.860229,-0.008118,-0.505798,0.06366,0.0,-1.0,0.0,6864.0,-579.0,3854.0,-256.0,62.0,-144.0,-3.0,38.0,-297.0,0.869172,-0.078364,0.488149,13966.0,-1004.0,7778.0,13.0,-5.0,5.0
2881.0,2831.0,2891.0,3139.0,2994.0,0.860291,-0.008057,-0.505798,0.063599,0.0,0.0,-1.0,6887.0,-555.0,3865.0,-233.0,85.0,-134.0,-3.0,63.0,-274.0,0.869242,-0.078198,0.488248,13820.0,-996.0,7782.0,2.0,18.0,-7.0
2881.0,2823.0,2891.0,3139.0,2991.0,0.860413,-0.008118,-0.505554,0.063477,-1.0,0.0,0.0,6841.0,-582.0,3876.0,-277.0,58.0,-127.0,-28.0,31.0,-307.0,0.86894,-0.078151,0.488688,13526.0,-1308.0,7790.0,-12.0,9.0,5.0
2881.0,2831.0,2901.0,3135.0,2987.0,0.860413,-0.008179,-0.505554,0.063538,-1.0,-1.0,0.0,6842.0,-605.0,3886.0,-276.0,36.0,-117.0,-34.0,9.0,-299.0,0.868931,-0.078318,0.488695,13734.0,-1334.0,7844.0,0.0,-6.0,4.0
