flex_1,flex_2,flex_3,flex_4,flex_5,Qw,Qx,Qy,Qz,GYRx,GYRy,GYRz,ACCx,ACCy,ACCz,ACCx_real,ACCy_real,ACCz_real,ACCx_world,ACCy_world,ACCz_world,GRAx,GRAy,GRAz,ACCx_raw,ACCy_raw,ACCz_raw,GYRx_raw,GYRy_raw,GYRz_raw
2887.0,2815.0,2887.0,3142.0,2979.0,1.0,0.0,0.0,0.0,0.0,0.0,0.0,0.0,0.0,0.0,0.0,0.0,0.0,0.0,0.0,0.0,0.0,0.0,0.0,0.0,0.0,0.0,0.0,0.0,0.0
2891.0,2815.0,2895.0,3127.0,2987.0,0.684448,-0.480774,-0.313599,-0.449524,282.0,148.0,-103.0,4633.0,2704.0,1306.0,-2424.0,5785.0,-1487.0,4332.0,135.0,-4771.0,0.861523,-0.37619,0.341053,10824.0,11032.0,4096.0,6460.0,3403.0,-2356.0
2887.0,2815.0,2881.0,3135.0,2983.0,0.718079,-0.399109,-0.335327,-0.461121,329.0,161.0,-81.0,5178.0,4085.0,1766.0,-1782.0,6247.0,-1973.0,5409.0,562.0,-4063.0,0.849657,-0.263931,0.456537,12016.0,11456.0,4570.0,7540.0,3694.0,-1854.0
2890.0,2811.0,2891.0,3127.0,2987.0,0.75531,-0.303101,-0.357788,-0.457886,405.0,168.0,-52.0,5608.0,5654.0,1987.0,-1093.0,6720.0,-2602.0,6434.0,1142.0,-3227.0,0.818053,-0.130218,0.56027,12238.0,17672.0,4408.0,9291.0,3865.0,-1184.0
2887.0,2815.0,2891.0,3139.0,2993.0,0.78949,-0.190674,-0.383911,-0.43927,457.0,158.0,-35.0,5524.0,8942.0,1994.0,-814.0,8645.0,-3187.0,8399.0,3091.0,-2332.0,0.773702,0.036211,0.632508,10268.0,29222.0,3836.0,10475.0,3624.0,-781.0
2891.0,2819.0,2895.0,3134.0,2990.0,0.802185,-0.130859,-0.398071,-0.425354,466.0,146.0,-29.0,5584.0,10793.0,2025.0,-559.0,9738.0,-3290.0,9215.0,4399.0,-1300.0,0.749977,0.128696,0.648842,11942.0,32767.0,4502.0,10689.0,3351.0,-659.0
2889.0,2822.0,2897.0,3135.0,2991.0,0.81897,-0.013855,-0.423645,-0.386841,453.0,136.0,9.0,6500.0,13365.0,2387.0,727.0,10865.0,-2861.0,9214.0,6154.0,1993.0,0.704624,0.305073,0.64069,16128.0,32767.0,5648.0,10394.0,3116.0,227.0
2887.0,2823.0,2893.0,3131.0,2991.0,0.827881,0.086243,-0.44104,-0.335693,392.0,115.0,65.0,7103.0,14754.0,2479.0,1595.0,11158.0,-2404.0,7862.0,7101.0,4536.0,0.672355,0.438906,0.596123,16250.0,32767.0,5348.0,9001.0,2657.0,1506.0
2887.0,2819.0,2877.0,3135.0,2987.0,0.8302,0.127197,-0.447815,-0.30658,359.0,106.0,95.0,7564.0,15186.0,2626.0,2111.0,11206.0,-2014.0,6949.0,7293.0,5707.0,0.66556,0.48578,0.566506,17750.0,32767.0,5992.0,8226.0,2441.0,2193.0
2887.0,2818.0,2879.0,3131.0,2983.0,0.833069,0.192139,-0.456177,-0.246948,279.0,91.0,126.0,7614.0,15737.0,3180.0,2165.0,11268.0,-997.0,4513.0,7885.0,7077.0,0.665157,0.545434,0.509973,13878.0,32767.0,8438.0,6403.0,2085.0,2901.0
2891.0,2822.0,2896.0,3139.0,2993.0,0.833862,0.215515,-0.458557,-0.218994,233.0,76.0,140.0,7516.0,15908.0,3688.0,2024.0,11318.0,-297.0,3130.0,8088.0,7553.0,0.670354,0.560263,0.486563,14740.0,32767.0,10432.0,5350.0,1754.0,3208.0
2887.0,2823.0,2890.0,3139.0,2991.0,0.83728,0.243408,-0.460571,-0.165955,144.0,75.0,168.0,8034.0,16127.0,4970.0,2377.0,11535.0,1224.0,813.0,8026.0,8665.0,0.690465,0.56047,0.457206,17072.0,32767.0,13362.0,3312.0,1736.0,3867.0
2891.0,2831.0,2897.0,3147.0,2991.0,0.845032,0.252319,-0.457153,-0.115112,84.0,77.0,190.0,7281.0,14873.0,5307.0,1427.0,10517.0,1582.0,-901.0,7784.0,7330.0,0.714528,0.531684,0.454675,10696.0,24048.0,10884.0,1928.0,1786.0,4353.0
2887.0,2815.0,2885.0,3133.0,2991.0,0.848877,0.252258,-0.455444,-0.090759,67.0,67.0,190.0,6474.0,13681.0,5207.0,514.0,9495.0,1456.0,-1618.0,7428.0,5891.0,0.727443,0.510944,0.457766,7884.0,19752.0,9542.0,1550.0,1552.0,4368.0
2883.0,2814.0,2885.0,3131.0,2991.0,0.854004,0.246521,-0.45575,-0.045593,44.0,34.0,184.0,5070.0,10792.0,4765.0,-1122.0,7002.0,972.0,-2457.0,6091.0,2841.0,0.755944,0.462618,0.462921,6352.0,12668.0,7652.0,1015.0,801.0,4222.0
2882.0,2814.0,2881.0,3131.0,2987.0,1.4375,-1.717712,-1.857178,0.829163,178.0,-16205.0,8754.0,-31348.0,-24641.0,8203.0,13783.0,-24492.0,-27468.0,8088.0,23759.0,3174.0,2.49086,-8.018228,-3.645728,6542.0,6054.0,5720.0,734.0,307.0,3750.0
2890.0,2828.0,2896.0,3139.0,2991.0,0.855225,0.231323,-0.463562,0.012024,32.0,10.0,150.0,4001.0,6182.0,3676.0,-2540.0,3032.0,-118.0,-2067.0,3247.0,-916.0,0.798462,0.384519,0.463154,6720.0,3324.0,4842.0,743.0,234.0,3441.0
2891.0,2823.0,2893.0,3143.0,2991.0,0.853821,0.222656,-0.468384,0.044861,32.0,12.0,127.0,3548.0,3855.0,2709.0,-3167.0,1084.0,-1076.0,-1234.0,1844.0,-2726.0,0.819809,0.338193,0.462063,5570.0,2290.0,2532.0,742.0,284.0,2922.0
2891.0,2815.0,2885.0,3135.0,2983.0,0.853027,0.218445,-0.470215,0.059265,23.0,12.0,119.0,3218.0,3231.0,2289.0,-3565.0,634.0,-1498.0,-994.0,1582.0,-3443.0,0.828105,0.316944,0.462348,4296.0,3260.0,2104.0,527.0,291.0,2726.0
2887.0,2815.0,2884.0,3131.0,2983.0,0.852051,0.206482,-0.47406,0.081543,-19.0,4.0,101.0,2426.0,2535.0,1517.0,-4467.0,285.0,-2294.0,-719.0,1495.0,-4748.0,0.841521,0.274554,0.465272,2828.0,2738.0,778.0,-421.0,96.0,2314.0
2887.0,2823.0,2899.0,3135.0,2989.0,0.851807,0.19812,-0.476624,0.08905,-36.0,0.0,87.0,2211.0,1940.0,1146.0,-4729.0,-129.0,-2680.0,-379.0,1190.0,-5291.0,0.847268,0.252633,0.467083,3432.0,-196.0,238.0,-809.0,12.0,2013.0
2887.0,2825.0,2895.0,3139.0,2991.0,0.851562,0.181702,-0.481567,0.099365,-34.0,0.0,53.0,1993.0,217.0,310.0,-5021.0,-1534.0,-3541.0,711.0,61.0,-6291.0,0.856279,0.213759,0.47011,3552.0,-5112.0,-1814.0,-773.0,12.0,1230.0
2887.0,2819.0,2893.0,3131.0,2987.0,0.851135,0.175781,-0.483704,0.103027,-20.0,0.0,37.0,1991.0,-609.0,-7.0,-5050.0,-2243.0,-3858.0,1232.0,-544.0,-6602.0,0.859615,0.199558,0.470178,4126.0,-5788.0,-1700.0,-453.0,4.0,868.0
2886.0,2818.0,2886.0,3135.0,2989.0,0.850464,0.171692,-0.485352,0.107971,7.0,7.0,4.0,2007.0,-1191.0,-332.0,-5059.0,-2724.0,-4181.0,1693.0,-926.0,-6838.0,0.862624,0.187228,0.469902,3510.0,-2464.0,-1406.0,169.0,167.0,107.0
2887.0,2818.0,2887.0,3135.0,2989.0,0.850647,0.173889,-0.484497,0.107056,2.0,5.0,-20.0,1840.0,-681.0,-359.0,-5217.0,-2254.0,-4209.0,1454.0,-455.0,-6906.0,0.861504,0.1921,0.470086,3410.0,736.0,-458.0,57.0,133.0,-445.0
2893.0,2823.0,2896.0,3139.0,2991.0,0.851196,0.174988,-0.483765,0.104004,-9.0,5.0,-30.0,1823.0,-327.0,-294.0,-5221.0,-1943.0,-4149.0,1274.0,-168.0,-6826.0,0.859956,0.197271,0.470703,3614.0,1452.0,-162.0,-188.0,127.0,-670.0
2895.0,2823.0,2894.0,3139.0,2991.0,0.853577,0.175415,-0.48175,0.092407,-33.0,8.0,-52.0,1980.0,138.0,-68.0,-5022.0,-1585.0,-3953.0,1035.0,131.0,-6501.0,0.854841,0.210426,0.474278,4768.0,1256.0,712.0,-742.0,185.0,-1180.0
2885.0,2815.0,2891.0,3135.0,2990.0,0.85553,0.174866,-0.480042,0.083862,-43.0,11.0,-66.0,2177.0,263.0,116.0,-4792.0,-1528.0,-3799.0,968.0,146.0,-6226.0,0.850709,0.218691,0.477946,5654.0,1166.0,1438.0,-969.0,273.0,-1495.0
2887.0,2821.0,2895.0,3135.0,2991.0,0.861145,0.174316,-0.473572,0.061096,-50.0,26.0,-102.0,2546.0,114.0,537.0,-4310.0,-1871.0,-3482.0,927.0,-238.0,-5769.0,0.836928,0.242357,0.490647,5420.0,-696.0,2276.0,-1124.0,598.0,-2325.0
2886.0,2823.0,2895.0,3135.0,2991.0,0.864502,0.175354,-0.468689,0.04718,-47.0,27.0,-119.0,2364.0,5.0,705.0,-4410.0,-2116.0,-3384.0,753.0,-435.0,-5883.0,0.826912,0.258962,0.499171,3164.0,-476.0,2372.0,-1059.0,630.0,-2711.0
2887.0,2819.0,2895.0,3137.0,2991.0,0.869507,0.180908,-0.45929,0.014709,-43.0,9.0,-143.0,1912.0,379.0,1205.0,-4674.0,-2087.0,-2994.0,75.0,-309.0,-5921.0,0.804033,0.30109,0.512584,3586.0,2906.0,4932.0,-976.0,210.0,-3264.0
2887.0,2815.0,2891.0,3123.0,2987.0,0.871277,0.184937,-0.45459,-0.003967,-45.0,6.0,-157.0,1918.0,835.0,1496.0,-4559.0,-1834.0,-2749.0,-197.0,-34.0,-5627.0,0.79068,0.325869,0.518286,2852.0,5230.0,2822.0,-1029.0,141.0,-3581.0
2883.0,2815.0,2890.0,3135.0,2987.0,0.873169,0.195129,-0.44397,-0.048767,-53.0,10.0,-199.0,2515.0,2020.0,2463.0,-3680.0,-1126.0,-1875.0,-623.0,473.0,-4208.0,0.756289,0.384064,0.529618,6818.0,7366.0,6148.0,-1211.0,237.0,-4536.0
2885.0,2822.0,2891.0,3131.0,2987.0,0.873657,0.210266,-0.426025,-0.10498,-56.0,33.0,-266.0,3665.0,3304.0,3398.0,-2071.0,-438.0,-1096.0,-411.0,665.0,-2251.0,0.700253,0.45685,0.548588,10652.0,10632.0,10088.0,-1268.0,778.0,-6080.0
2887.0,2827.0,2895.0,3143.0,2991.0,0.87323,0.220825,-0.411865,-0.137878,-52.0,52.0,-297.0,3421.0,3986.0,3911.0,-1972.0,-103.0,-702.0,-686.0,935.0,-1745.0,0.658412,0.499237,0.563144,3382.0,11864.0,10294.0,-1188.0,1192.0,-6800.0
2887.0,2823.0,2896.0,3139.0,2973.0,0.865417,0.241333,-0.387756,-0.206055,-70.0,-36.0,-260.0,557.0,7172.0,3851.0,-4126.0,2441.0,-923.0,-1409.0,4431.0,-1487.0,0.571687,0.577506,0.582809,-6042.0,28610.0,8742.0,-1583.0,-816.0,-5950.0
2886.0,2826.0,2896.0,3139.0,2991.0,0.847839,0.239075,-0.384521,-0.275879,-171.0,-132.0,-212.0,716.0,11410.0,5026.0,-3544.0,6350.0,193.0,-304.0,6929.0,2192.0,0.520114,0.617557,0.589927,6538.0,32767.0,14462.0,-3903.0,-3006.0,-4841.0
2885.0,2817.0,2887.0,3125.0,2987.0,0.839233,0.224182,-0.38446,-0.3125,-240.0,-139.0,-202.0,1944.0,12729.0,5647.0,-2194.0,7678.0,699.0,1037.0,6840.0,4047.0,0.50519,0.61657,0.603901,11564.0,32767.0,14438.0,-5487.0,-3163.0,-4622.0
2886.0,2818.0,2893.0,3133.0,2991.0,0.822266,0.177307,-0.376038,-0.388611,-324.0,-113.0,-204.0,4569.0,14410.0,5889.0,631.0,9627.0,528.0,4731.0,5626.0,6269.0,0.480599,0.583852,0.654297,17558.0,32767.0,11858.0,-7415.0,-2570.0,-4652.0
2887.0,2815.0,2890.0,3135.0,2993.0,0.803589,0.12793,-0.354309,-0.460815,-320.0,-49.0,-203.0,6382.0,14251.0,6197.0,2683.0,9891.0,329.0,7072.0,3176.0,6710.0,0.451534,0.532148,0.716205,12944.0,24296.0,13004.0,-7319.0,-1120.0,-4635.0
2890.0,2827.0,2897.0,3141.0,2994.0,0.794189,0.105347,-0.340393,-0.492188,-296.0,-57.0,-172.0,5177.0,13278.0,5974.0,1597.0,9162.0,-137.0,7046.0,3133.0,5198.0,0.436973,0.502405,0.74602,1086.0,20852.0,10156.0,-6762.0,-1295.0,-3919.0
2891.0,2823.0,2896.0,3139.0,2991.0,0.773254,0.054138,-0.329041,-0.539368,-266.0,-169.0,-77.0,2857.0,13626.0,6652.0,-833.0,10032.0,281.0,7683.0,4937.0,4244.0,0.450463,0.438673,0.777641,2362.0,32767.0,17540.0,-6076.0,-3870.0,-1755.0
2887.0,2823.0,2897.0,3143.0,2991.0,0.748901,-0.018005,-0.328247,-0.575378,-347.0,-222.0,-28.0,3251.0,14895.0,7519.0,-946.0,12021.0,1097.0,9869.0,5301.0,4591.0,0.512369,0.350764,0.783843,9428.0,32767.0,15870.0,-7927.0,-5084.0,-640.0
2883.0,2823.0,2893.0,3131.0,2990.0,0.735352,-0.063782,-0.324646,-0.591431,-395.0,-230.0,-7.0,3876.0,15289.0,7392.0,-653.0,12911.0,993.0,11307.0,4789.0,4161.0,0.552903,0.290207,0.781069,11626.0,32767.0,13488.0,-9044.0,-5262.0,-148.0
2885.0,2819.0,2894.0,3135.0,2991.0,0.70575,-0.164001,-0.309753,-0.615723,-410.0,-225.0,34.0,4842.0,13590.0,6472.0,-394.0,12361.0,292.0,11910.0,2805.0,1822.0,0.639175,0.149956,0.754353,11586.0,16498.0,9908.0,-9391.0,-5150.0,795.0
2891.0,2822.0,2893.0,3135.0,2991.0,0.678955,-0.258118,-0.294983,-0.620789,-303.0,-224.0,69.0,5096.0,9382.0,5914.0,-810.0,9253.0,239.0,9145.0,1618.0,-272.0,0.721033,0.015743,0.692719,10466.0,7470.0,11208.0,-6924.0,-5113.0,1587.0
2891.0,2827.0,2895.0,3139.0,2989.0,0.667358,-0.297119,-0.29248,-0.617126,-242.0,-222.0,72.0,5162.0,8012.0,5828.0,-1040.0,8303.0,483.0,8200.0,1554.0,-767.0,0.757099,-0.035575,0.652388,10830.0,8810.0,11044.0,-5524.0,-5084.0,1655.0
2893.0,2827.0,2895.0,3141.0,2993.0,0.646362,-0.360962,-0.29657,-0.603333,-164.0,-212.0,72.0,5588.0,7069.0,5530.0,-1120.0,7959.0,913.0,7851.0,1477.0,-1268.0,0.818943,-0.108764,0.563547,12804.0,13644.0,9910.0,-3735.0,-4848.0,1672.0
2891.0,2821.0,2889.0,3141.0,2991.0,0.626404,-0.412476,-0.304077,-0.587402,-137.0,-186.0,68.0,5832.0,6872.0,4559.0,-1258.0,8178.0,669.0,7981.0,946.0,-2075.0,0.865528,-0.159521,0.474824,11460.0,12398.0,5092.0,-3121.0,-4258.0,1577.0
2886.0,2821.0,2890.0,3131.0,2987.0,0.617004,-0.43573,-0.307129,-0.578918,-125.0,-175.0,69.0,5722.0,6472.0,3890.0,-1515.0,7963.0,353.0,7650.0,594.0,-2636.0,0.883504,-0.182089,0.431652,10430.0,10258.0,3344.0,-2854.0,-3996.0,1602.0
2884.0,2815.0,2895.0,3135.0,2991.0,0.600037,-0.479919,-0.311584,-0.559082,-108.0,-167.0,81.0,5139.0,5354.0,2156.0,-2320.0,7217.0,-671.0,6472.0,-376.0,-3986.0,0.910553,-0.227536,0.345209,8456.0,7226.0,-826.0,-2473.0,-3804.0,1864.0
2889.0,2819.0,2895.0,3135.0,2999.0,0.584534,-0.521301,-0.314941,-0.536072,-92.0,-154.0,81.0,4856.0,4167.0,569.0,-2738.0,6393.0,-1545.0,5189.0,-1402.0,-4674.0,0.927097,-0.271774,0.258109,9578.0,4818.0,-3256.0,-2105.0,-3515.0,1875.0
2883.0,2821.0,2898.0,3135.0,2991.0,0.577393,-0.539856,-0.316101,-0.524719,-84.0,-140.0,78.0,4891.0,3589.0,-110.0,-2740.0,5978.0,-1890.0,4597.0,-1878.0,-4707.0,0.931574,-0.291689,0.217348,10028.0,3690.0,-4240.0,-1907.0,-3206.0,1797.0
2886.0,2827.0,2899.0,3135.0,2989.0,0.564453,-0.571594,-0.317139,-0.504089,-68.0,-109.0,67.0,4962.0,2559.0,-1287.0,-2691.0,5225.0,-2478.0,3544.0,-2680.0,-4575.0,0.934289,-0.325544,0.145416,10354.0,2034.0,-5666.0,-1545.0,-2474.0,1535.0
2891.0,2819.0,2891.0,3143.0,2987.0,0.554138,-0.595581,-0.31604,-0.488281,-52.0,-69.0,51.0,5135.0,1434.0,-2134.0,-2498.0,4312.0,-2878.0,2482.0,-3179.0,-4104.0,0.931882,-0.351436,0.09089,10486.0,-540.0,-6482.0,-1169.0,-1575.0,1185.0
2891.0,2815.0,2885.0,3135.0,2993.0,0.550354,-0.604431,-0.314819,-0.482422,-42.0,-51.0,43.0,4974.0,865.0,-2493.0,-2642.0,3826.0,-3076.0,1871.0,-3333.0,-4058.0,0.929706,-0.361551,0.071172,8544.0,-1708.0,-7084.0,-947.0,-1148.0,997.0
2887.0,2823.0,2894.0,3135.0,2990.0,0.545227,-0.618225,-0.312378,-0.472229,-25.0,-38.0,37.0,4047.0,66.0,-3024.0,-3526.0,3171.0,-3355.0,776.0,-3464.0,-4597.0,0.924521,-0.379118,0.040491,5350.0,-1394.0,-7118.0,-565.0,-852.0,851.0
2887.0,2822.0,2897.0,3131.0,2989.0,0.541626,-0.629517,-0.310059,-0.462952,-22.0,-28.0,35.0,3743.0,-198.0,-3072.0,-3783.0,3036.0,-3196.0,483.0,-3347.0,-4723.0,0.918743,-0.394841,0.015255,7582.0,-1006.0,-5936.0,-485.0,-620.0,820.0
2891.0,2815.0,2897.0,3135.0,2995.0,0.540283,-0.633789,-0.308228,-0.459839,-21.0,-13.0,32.0,3812.0,-305.0,-3033.0,-3691.0,2983.0,-3087.0,447.0,-3272.0,-4598.0,0.915942,-0.401381,0.006665,8026.0,-1216.0,-5836.0,-465.0,-297.0,743.0
2895.0,2821.0,2895.0,3141.0,2987.0,0.539124,-0.638672,-0.302612,-0.458191,-15.0,20.0,21.0,3854.0,-624.0,-2924.0,-3613.0,2745.0,-2933.0,223.0,-3091.0,-4425.0,0.911558,-0.411338,0.001117,7552.0,-2434.0,-5454.0,-340.0,467.0,493.0
2887.0,2823.0,2895.0,3135.0,2987.0,0.541443,-0.63739,-0.295288,-0.461975,2.0,52.0,9.0,3615.0,-1079.0,-2757.0,-3828.0,2340.0,-2864.0,-246.0,-2844.0,-4492.0,0.90868,-0.417389,0.01312,6020.0,-3754.0,-5102.0,53.0,1195.0,225.0
2887.0,2815.0,2891.0,3135.0,2991.0,0.544434,-0.634216,-0.291748,-0.465149,16.0,62.0,4.0,3392.0,-1357.0,-2675.0,-4043.0,2076.0,-2883.0,-571.0,-2714.0,-4613.0,0.907685,-0.419165,0.025424,5454.0,-4374.0,-4766.0,374.0,1443.0,107.0
2886.0,2819.0,2895.0,3135.0,2991.0,0.554321,-0.622192,-0.286682,-0.472717,50.0,79.0,-7.0,3048.0,-1648.0,-2411.0,-4374.0,1782.0,-2914.0,-918.0,-2461.0,-4888.0,0.90607,-0.41875,0.061424,5370.0,-3420.0,-3914.0,1157.0,1832.0,-149.0
2887.0,2825.0,2887.0,3123.0,2995.0,0.568054,-0.602478,-0.284973,-0.48291,76.0,98.0,-22.0,3019.0,-1254.0,-1807.0,-4400.0,2098.0,-2722.0,-464.0,-2112.0,-5147.0,0.905646,-0.409247,0.111698,6580.0,-982.0,-776.0,1759.0,2246.0,-491.0
2891.0,2823.0,2879.0,3139.0,2991.0,0.575073,-0.59021,-0.285156,-0.489563,81.0,103.0,-33.0,3145.0,-842.0,-1392.0,-4275.0,2431.0,-2544.0,20.0,-1896.0,-5202.0,0.905861,-0.399624,0.140719,8610.0,290.0,2140.0,1860.0,2369.0,-733.0
2895.0,2819.0,2883.0,3143.0,2991.0,0.589355,-0.559143,-0.2854,-0.508484,87.0,134.0,-54.0,3598.0,-428.0,-640.0,-3816.0,2593.0,-2375.0,609.0,-1554.0,-4913.0,0.905035,-0.368825,0.211801,8828.0,-270.0,1854.0,2006.0,3078.0,-1216.0
2885.0,2822.0,2899.0,3151.0,2991.0,0.605164,-0.520447,-0.285522,-0.530579,118.0,158.0,-68.0,3927.0,-883.0,76.0,-3428.0,1795.0,-2343.0,262.0,-1191.0,-4356.0,0.897851,-0.326927,0.295349,8704.0,-4946.0,2190.0,2724.0,3625.0,-1548.0
2879.0,2821.0,2896.0,3135.0,2963.0,0.615662,-0.496277,-0.287109,-0.540649,162.0,168.0,-74.0,3982.0,-1630.0,276.0,-3310.0,832.0,-2530.0,-501.0,-1135.0,-4063.0,0.890148,-0.300626,0.342619,8136.0,-8004.0,1488.0,3721.0,3865.0,-1680.0
2887.0,2827.0,2890.0,3131.0,2991.0,0.645447,-0.430542,-0.300171,-0.554932,294.0,188.0,-88.0,4214.0,-2147.0,727.0,-2874.0,-323.0,-2951.0,-1167.0,-1311.0,-3740.0,0.865331,-0.222635,0.449082,9722.0,-2144.0,3734.0,6738.0,4318.0,-2000.0
2886.0,2823.0,2902.0,3139.0,2993.0,0.679504,-0.337341,-0.326111,-0.564087,368.0,207.0,-101.0,4445.0,982.0,1896.0,-2303.0,1723.0,-2689.0,1520.0,-728.0,-3558.0,0.823767,-0.09054,0.559773,9260.0,14162.0,8316.0,8433.0,4762.0,-2294.0
2892.0,2815.0,2891.0,3143.0,2981.0,0.694641,-0.284668,-0.339905,-0.566528,375.0,209.0,-96.0,4376.0,3044.0,2699.0,-2134.0,3128.0,-2272.0,3136.0,106.0,-3107.0,0.794769,-0.010353,0.60691,7948.0,18636.0,10070.0,8595.0,4796.0,-2182.0
2879.0,2813.0,2887.0,3143.0,2983.0,0.720581,-0.177673,-0.36615,-0.561401,380.0,185.0,-56.0,3826.0,6898.0,4015.0,-2131.0,5627.0,-1463.0,5548.0,2195.0,-1655.0,0.727173,0.155058,0.668775,6142.0,25586.0,11674.0,8727.0,4255.0,-1277.0
2887.0,2814.0,2896.0,3143.0,2975.0,0.740967,-0.076782,-0.392334,-0.539612,363.0,150.0,-4.0,4123.0,10951.0,5413.0,-1318.0,8414.0,-160.0,7170.0,4303.0,1620.0,0.664278,0.30963,0.680391,10980.0,32767.0,15422.0,8333.0,3455.0,-74.0
2879.0,2819.0,2894.0,3135.0,2981.0,0.749512,-0.031311,-0.403687,-0.523743,344.0,144.0,21.0,4853.0,12391.0,6146.0,-372.0,9311.0,639.0,7133.0,4767.0,3692.0,0.637933,0.37592,0.672131,14578.0,32767.0,16732.0,7881.0,3307.0,492.0
2887.0,2818.0,2899.0,3115.0,2991.0,0.766235,0.048462,-0.419983,-0.483887,306.0,141.0,69.0,5784.0,14228.0,7051.0,895.0,10289.0,1787.0,6137.0,5315.0,6628.0,0.596711,0.480715,0.642529,12568.0,32767.0,16168.0,7024.0,3241.0,1592.0
2887.0,2823.0,2896.0,3135.0,2990.0,0.781006,0.113647,-0.432373,-0.436096,272.0,108.0,110.0,5743.0,15219.0,7601.0,1022.0,10675.0,2683.0,4395.0,6077.0,8120.0,0.576249,0.554631,0.600288,11502.0,32767.0,17138.0,6246.0,2490.0,2520.0
2893.0,2819.0,2894.0,3135.0,2992.0,0.78717,0.140625,-0.438721,-0.409973,259.0,91.0,128.0,5848.0,15472.0,7894.0,1134.0,10711.0,3179.0,3345.0,6254.0,8706.0,0.575391,0.581119,0.575464,12764.0,32072.0,17732.0,5933.0,2095.0,2948.0
2893.0,2821.0,2871.0,3135.0,2983.0,0.798584,0.183167,-0.450623,-0.354431,226.0,78.0,155.0,6573.0,15376.0,8816.0,1740.0,10362.0,4500.0,928.0,5911.0,9738.0,0.58988,0.611977,0.526747,14426.0,28678.0,19912.0,5185.0,1789.0,3557.0
2879.0,2823.0,2891.0,3125.0,2981.0,0.808228,0.216614,-0.460693,-0.296021,225.0,57.0,176.0,6202.0,13553.0,8822.0,1152.0,8450.0,4875.0,-1437.0,5017.0,8321.0,0.616446,0.622896,0.4817,10866.0,21032.0,16616.0,5157.0,1326.0,4036.0
2893.0,2819.0,2896.0,3135.0,2992.0,0.811096,0.231079,-0.468018,-0.263916,230.0,40.0,195.0,6052.0,12962.0,8701.0,831.0,7867.0,4972.0,-2363.0,4759.0,7684.0,0.637244,0.621889,0.455091,11384.0,23364.0,16864.0,5289.0,919.0,4469.0
2893.0,2826.0,2891.0,3131.0,2997.0,0.811951,0.255554,-0.485413,-0.19928,213.0,6.0,205.0,5580.0,12488.0,8189.0,-43.0,7503.0,4928.0,-3839.0,4859.0,6497.0,0.686409,0.608461,0.398043,9756.0,23588.0,14398.0,4894.0,148.0,4706.0
2890.0,2819.0,2879.0,3135.0,2989.0,0.810059,0.264343,-0.495422,-0.168457,196.0,-11.0,208.0,5545.0,12106.0,7887.0,-300.0,7230.0,4862.0,-4391.0,4698.0,5884.0,0.713581,0.595182,0.369252,11206.0,21556.0,13854.0,4491.0,-248.0,4772.0
2881.0,2815.0,2887.0,3134.0,2991.0,0.804016,0.274353,-0.516296,-0.108459,167.0,-21.0,213.0,5823.0,10719.0,7013.0,-490.0,6187.0,4421.0,-4824.0,3879.0,4443.0,0.770709,0.553163,0.316374,12862.0,17142.0,12300.0,3848.0,-460.0,4883.0
2883.0,2815.0,2887.0,3143.0,2991.0,0.796692,0.277954,-0.53418,-0.051697,134.0,-18.0,206.0,5448.0,9072.0,5398.0,-1289.0,4991.0,3146.0,-4385.0,3462.0,2290.0,0.822415,0.498118,0.274784,9604.0,12702.0,7014.0,3083.0,-409.0,4727.0
2887.0,2823.0,2893.0,3135.0,2991.0,0.792786,0.277405,-0.542114,-0.025146,121.0,-14.0,201.0,5023.0,8210.0,4658.0,-1904.0,4383.0,2542.0,-4146.0,3302.0,1093.0,0.845609,0.46711,0.2583,7076.0,11438.0,4652.0,2775.0,-306.0,4621.0
2887.0,2823.0,2893.0,3135.0,2992.0,0.784607,0.272949,-0.556274,0.021667,82.0,-15.0,180.0,4188.0,6714.0,3337.0,-3059.0,3402.0,1435.0,-3547.0,3067.0,-998.0,0.884742,0.40421,0.232135,6372.0,9086.0,3174.0,1901.0,-331.0,4125.0
2885.0,2823.0,2891.0,3135.0,2987.0,0.778198,0.263367,-0.567139,0.057373,39.0,-9.0,145.0,3505.0,5109.0,2214.0,-3973.0,2284.0,429.0,-2642.0,2580.0,-2745.0,0.912913,0.344826,0.217876,4938.0,4690.0,972.0,902.0,-190.0,3332.0
2886.0,2815.0,2891.0,3135.0,2990.0,0.775757,0.25708,-0.571838,0.071411,23.0,-8.0,130.0,3190.0,4077.0,1671.0,-4378.0,1478.0,-80.0,-2000.0,2108.0,-3593.0,0.923932,0.317192,0.213809,4494.0,1930.0,206.0,540.0,-165.0,2978.0
2885.0,2815.0,2883.0,3131.0,2999.0,0.771729,0.243835,-0.579834,0.093323,4.0,-5.0,96.0,2531.0,2212.0,839.0,-5173.0,15.0,-869.0,-872.0,1151.0,-5042.0,0.94046,0.268126,0.208611,3348.0,-900.0,-320.0,105.0,-114.0,2208.0
2890.0,2829.0,2896.0,3135.0,2979.0,0.770386,0.237732,-0.582825,0.101379,-1.0,-2.0,78.0,2291.0,1401.0,560.0,-5460.0,-631.0,-1140.0,-396.0,665.0,-5559.0,0.946202,0.248118,0.207571,3254.0,-1942.0,-430.0,-20.0,-42.0,1796.0
2895.0,2827.0,2895.0,3135.0,2993.0,0.76947,0.227478,-0.586182,0.112,-12.0,8.0,41.0,2093.0,117.0,184.0,-5714.0,-1675.0,-1530.0,393.0,-184.0,-6132.0,0.953053,0.218771,0.209273,3928.0,-3226.0,-640.0,-254.0,196.0,949.0
2883.0,2814.0,2896.0,3135.0,2989.0,0.770203,0.223267,-0.586304,0.114502,-16.0,15.0,23.0,2033.0,-470.0,111.0,-5784.0,-2187.0,-1631.0,692.0,-637.0,-6324.0,0.954274,0.209655,0.212723,3566.0,-4506.0,-108.0,-356.0,360.0,533.0
2883.0,2815.0,2889.0,3141.0,2987.0,0.773682,0.217773,-0.583557,0.115784,-13.0,24.0,-10.0,1429.0,-1490.0,-77.0,-6381.0,-3143.0,-1912.0,1128.0,-1379.0,-7146.0,0.953404,0.201842,0.224025,582.0,-5396.0,-452.0,-281.0,552.0,-212.0
2885.0,2827.0,2891.0,3131.0,2991.0,0.775757,0.217041,-0.58136,0.114441,-11.0,22.0,-24.0,962.0,-1670.0,-75.0,-6834.0,-3338.0,-1957.0,1067.0,-1505.0,-7633.0,0.951665,0.203679,0.229809,-1056.0,-3934.0,-114.0,-237.0,509.0,-543.0
2887.0,2823.0,2896.0,3135.0,2993.0,0.779785,0.218018,-0.577332,0.105408,-28.0,6.0,-51.0,348.0,-1106.0,193.0,-7404.0,-2894.0,-1759.0,403.0,-1095.0,-8057.0,0.946351,0.218303,0.238332,202.0,364.0,1744.0,-639.0,153.0,-1150.0
2887.0,2823.0,2891.0,3135.0,2993.0,0.785522,0.217834,-0.572876,0.08551,-65.0,8.0,-80.0,724.0,-205.0,757.0,-6954.0,-2205.0,-1280.0,-336.0,-598.0,-7374.0,0.937268,0.244254,0.248719,2922.0,2248.0,3112.0,-1477.0,197.0,-1811.0
2886.0,2817.0,2899.0,3135.0,2991.0,0.789612,0.216614,-0.56958,0.071533,-83.0,13.0,-95.0,1004.0,161.0,1035.0,-6618.0,-1973.0,-1072.0,-615.0,-428.0,-6947.0,0.930484,0.260594,0.257261,3770.0,2362.0,3744.0,-1889.0,299.0,-2157.0
2887.0,2819.0,2895.0,3135.0,2991.0,0.799805,0.212952,-0.559937,0.03717,-102.0,26.0,-126.0,1867.0,238.0,1590.0,-5600.0,-2211.0,-721.0,-779.0,-726.0,-5969.0,0.911511,0.299013,0.282192,6940.0,-244.0,4934.0,-2321.0,609.0,-2886.0
2885.0,2823.0,2887.0,3139.0,2991.0,0.805725,0.212036,-0.552734,0.018066,-97.0,39.0,-146.0,2299.0,101.0,1901.0,-5060.0,-2534.0,-548.0,-813.0,-1067.0,-5524.0,0.898365,0.321714,0.299045,6718.0,-588.0,5682.0,-2218.0,913.0,-3335.0
2886.0,2825.0,2891.0,3135.0,3003.0,0.8172,0.217224,-0.533264,-0.024475,-78.0,40.0,-186.0,1526.0,492.0,2409.0,-5526.0,-2630.0,-350.0,-1563.0,-762.0,-5877.0,0.860933,0.381134,0.336857,-1672.0,4258.0,6322.0,-1767.0,920.0,-4238.0
2887.0,2823.0,2899.0,3135.0,2991.0,0.821838,0.226685,-0.517029,-0.076599,-107.0,-21.0,-197.0,638.0,3403.0,3218.0,-6039.0,-298.0,247.0,-2925.0,1839.0,-4967.0,0.815101,0.451804,0.362581,938.0,20346.0,9724.0,-2450.0,-462.0,-4511.0
2896.0,2814.0,2885.0,3135.0,2994.0,0.822021,0.228271,-0.51001,-0.109619,-151.0,-29.0,-216.0,1469.0,5906.0,4390.0,-4989.0,1915.0,1313.0,-3540.0,3384.0,-2507.0,0.788432,0.487102,0.375518,8478.0,27244.0,14790.0,-3457.0,-652.0,-4934.0
2885.0,2814.0,2889.0,3139.0,2992.0,0.822998,0.215393,-0.488525,-0.193909,-297.0,-11.0,-263.0,4419.0,10427.0,5345.0,-1483.0,5970.0,1823.0,-1632.0,5451.0,2962.0,0.720578,0.543995,0.429875,20450.0,30202.0,13612.0,-6801.0,-237.0,-6023.0
2879.0,2814.0,2895.0,3135.0,2991.0,0.824524,0.186829,-0.448425,-0.290039,-326.0,59.0,-308.0,6838.0,9363.0,5349.0,1668.0,4708.0,1023.0,1312.0,2460.0,4267.0,0.6311,0.568211,0.527972,15170.0,10756.0,11962.0,-7467.0,1357.0,-7041.0
2885.0,2827.0,2903.0,3131.0,2993.0,0.822876,0.175354,-0.4245,-0.334595,-282.0,52.0,-294.0,5459.0,8229.0,5220.0,697.0,3537.0,483.0,1316.0,2037.0,2709.0,0.581276,0.57266,0.57813,-94.0,10716.0,9254.0,-6455.0,1192.0,-6732.0
2887.0,2815.0,2895.0,3135.0,2992.0,0.806946,0.151794,-0.396423,-0.410583,-243.0,-92.0,-200.0,2798.0,10439.0,7081.0,-1421.0,5765.0,1841.0,1223.0,4816.0,3734.0,0.515136,0.570509,0.639547,3152.0,32767.0,23818.0,-5554.0,-2093.0,-4569.0
2887.0,2831.0,2891.0,3135.0,2991.0,0.785156,0.097839,-0.380066,-0.479065,-380.0,-145.0,-146.0,4316.0,13174.0,9842.0,194.0,8932.0,4173.0,3222.0,5379.0,7610.0,0.503079,0.517791,0.691951,16062.0,32767.0,25052.0,-8689.0,-3306.0,-3338.0
2891.0,2831.0,2890.0,3139.0,2987.0,0.759827,0.006958,-0.350891,-0.547302,-514.0,-148.0,-115.0,6973.0,14575.0,9621.0,2667.0,11341.0,3446.0,7925.0,3602.0,8474.0,0.525617,0.394661,0.753703,21696.0,31718.0,15898.0,-11751.0,-3386.0,-2631.0
2859.0,2810.0,2871.0,3135.0,2991.0,0.743164,-0.043823,-0.332031,-0.579224,-524.0,-142.0,-117.0,8097.0,13689.0,9008.0,3638.0,11071.0,2654.0,9072.0,1766.0,7575.0,0.544274,0.319505,0.775628,22320.0,19482.0,14442.0,-11983.0,-3238.0,-2661.0
2871.0,2815.0,2883.0,3135.0,2992.0,0.70575,-0.140198,-0.294861,-0.628784,-404.0,-165.0,-82.0,7780.0,7928.0,8283.0,2926.0,6511.0,1837.0,5979.0,-203.0,4304.0,0.592504,0.172919,0.786854,12354.0,-2446.0,16432.0,-9246.0,-3773.0,-1863.0
2881.0,2815.0,2879.0,3135.0,2983.0,0.673218,-0.216797,-0.281921,-0.648376,-246.0,-196.0,-27.0,7823.0,6064.0,9468.0,2410.0,5460.0,3347.0,5105.0,747.0,4495.0,0.660721,0.073679,0.747134,16934.0,14230.0,22650.0,-5624.0,-4477.0,-615.0
2891.0,2815.0,2883.0,3134.0,2975.0,0.642944,-0.275085,-0.281921,-0.656921,-219.0,-183.0,-5.0,8059.0,7954.0,9868.0,2128.0,7817.0,4217.0,7764.0,1473.0,4579.0,0.723939,0.016671,0.689771,16000.0,20810.0,18658.0,-5005.0,-4173.0,-101.0
2895.0,2823.0,2896.0,3141.0,2991.0,0.628723,-0.302856,-0.280701,-0.658997,-216.0,-174.0,12.0,7951.0,8283.0,9455.0,1789.0,8371.0,4056.0,8500.0,1432.0,3927.0,0.752129,-0.010864,0.659054,14790.0,17418.0,15486.0,-4932.0,-3971.0,284.0
2890.0,2827.0,2891.0,3149.0,2993.0,0.604736,-0.355591,-0.276794,-0.656738,-171.0,-163.0,34.0,7078.0,7234.0,7697.0,509.0,7778.0,2831.0,8075.0,1044.0,1572.0,0.801836,-0.066514,0.593951,10480.0,9888.0,9274.0,-3916.0,-3727.0,790.0
2894.0,2819.0,2893.0,3135.0,2994.0,0.586792,-0.400391,-0.279175,-0.646118,-110.0,-164.0,46.0,6161.0,6043.0,5711.0,-761.0,6937.0,1422.0,7073.0,509.0,-655.0,0.845034,-0.109132,0.523542,10514.0,9596.0,5774.0,-2505.0,-3751.0,1067.0
2883.0,2815.0,2885.0,3135.0,2991.0,0.579651,-0.420349,-0.282288,-0.638489,-93.0,-159.0,55.0,5893.0,5807.0,4797.0,-1185.0,6846.0,805.0,6830.0,123.0,-1499.0,0.864033,-0.126837,0.487283,10128.0,10528.0,4074.0,-2127.0,-3639.0,1269.0
2879.0,2815.0,2895.0,3135.0,2993.0,0.567139,-0.457825,-0.287598,-0.621277,-86.0,-145.0,65.0,5493.0,5449.0,3080.0,-1839.0,6775.0,-322.0,6365.0,-766.0,-2876.0,0.895087,-0.161945,0.415315,10248.0,9356.0,1324.0,-1963.0,-3306.0,1500.0
2886.0,2817.0,2895.0,3135.0,2991.0,0.555725,-0.492249,-0.289062,-0.604492,-81.0,-120.0,63.0,5151.0,4333.0,1460.0,-2356.0,5952.0,-1393.0,5070.0,-1618.0,-3820.0,0.916399,-0.197638,0.348375,9006.0,4030.0,-1892.0,-1852.0,-2728.0,1465.0
2895.0,2822.0,2895.0,3135.0,2983.0,0.550964,-0.507935,-0.288574,-0.596069,-73.0,-109.0,63.0,4901.0,3493.0,738.0,-2664.0,5259.0,-1863.0,4132.0,-1905.0,-4186.0,0.923517,-0.215687,0.317588,8246.0,1900.0,-2654.0,-1654.0,-2485.0,1447.0
2891.0,2827.0,2891.0,3135.0,2989.0,0.542725,-0.535156,-0.287781,-0.579895,-54.0,-93.0,48.0,4204.0,1972.0,-469.0,-3439.0,3996.0,-2612.0,2384.0,-2263.0,-4879.0,0.93304,-0.24712,0.261618,6316.0,-540.0,-4234.0,-1233.0,-2130.0,1108.0
2887.0,2815.0,2895.0,3139.0,2991.0,0.535034,-0.55719,-0.289307,-0.565369,-36.0,-80.0,31.0,3926.0,555.0,-1349.0,-3771.0,2759.0,-3083.0,841.0,-2498.0,-4938.0,0.939613,-0.269102,0.211744,7924.0,-2672.0,-4956.0,-803.0,-1813.0,717.0
2881.0,2811.0,2889.0,3135.0,2982.0,0.531738,-0.565857,-0.290649,-0.559143,-27.0,-66.0,23.0,3987.0,18.0,-1671.0,-3728.0,2285.0,-3233.0,296.0,-2612.0,-4760.0,0.941889,-0.276746,0.190715,8358.0,-3002.0,-5256.0,-604.0,-1509.0,540.0
2881.0,2815.0,2891.0,3135.0,2991.0,0.526428,-0.577698,-0.293335,-0.550598,-14.0,-34.0,7.0,4038.0,-701.0,-2205.0,-3703.0,1635.0,-3519.0,-470.0,-2832.0,-4530.0,0.944998,-0.285213,0.160505,7844.0,-3104.0,-5742.0,-302.0,-773.0,165.0
2879.0,2811.0,2881.0,3127.0,2993.0,0.522766,-0.583435,-0.295532,-0.546875,-4.0,-10.0,-5.0,3674.0,-1195.0,-2632.0,-4084.0,1154.0,-3816.0,-1126.0,-2956.0,-4750.0,0.947121,-0.286762,0.144621,6162.0,-3834.0,-6296.0,-79.0,-221.0,-108.0
2890.0,2819.0,2891.0,3139.0,2991.0,0.521729,-0.584534,-0.29657,-0.546143,3.0,0.0,-9.0,3487.0,-1461.0,-2775.0,-4278.0,881.0,-3928.0,-1458.0,-2960.0,-4860.0,0.947935,-0.285997,0.140839,5856.0,-4562.0,-6356.0,79.0,3.0,-203.0
2891.0,2823.0,2896.0,3138.0,2991.0,0.522095,-0.583191,-0.299072,-0.545776,21.0,16.0,-14.0,3177.0,-1847.0,-2915.0,-4596.0,467.0,-4069.0,-1926.0,-2919.0,-5066.0,0.948872,-0.282509,0.140899,5744.0,-4432.0,-5974.0,496.0,372.0,-302.0
2889.0,2827.0,2895.0,3139.0,2991.0,0.525574,-0.576111,-0.302917,-0.547852,40.0,38.0,-23.0,3275.0,-1855.0,-2784.0,-4504.0,386.0,-4034.0,-1878.0,-2862.0,-4998.0,0.949657,-0.27367,0.152706,7244.0,-3198.0,-4980.0,922.0,874.0,-520.0
2887.0,2815.0,2887.0,3131.0,2987.0,0.528137,-0.570007,-0.305115,-0.550598,46.0,52.0,-30.0,3390.0,-1708.0,-2677.0,-4392.0,471.0,-4021.0,-1701.0,-2865.0,-4957.0,0.949975,-0.266093,0.164084,7496.0,-2432.0,-4636.0,1059.0,1194.0,-669.0
2885.0,2815.0,2891.0,3131.0,2991.0,0.533691,-0.553101,-0.309143,-0.56012,49.0,78.0,-44.0,3557.0,-1156.0,-2307.0,-4221.0,843.0,-3921.0,-1109.0,-2794.0,-4986.0,0.949579,-0.244056,0.197071,7576.0,-606.0,-3150.0,1137.0,1796.0,-991.0
2887.0,2815.0,2885.0,3135.0,2987.0,0.539185,-0.53125,-0.312073,-0.574158,53.0,97.0,-54.0,3569.0,-826.0,-1900.0,-4185.0,931.0,-3872.0,-784.0,-2610.0,-5093.0,0.946572,-0.214526,0.240761,7248.0,-1066.0,-2360.0,1226.0,2235.0,-1226.0
2891.0,2823.0,2896.0,3135.0,2991.0,0.542664,-0.518311,-0.313538,-0.581909,64.0,106.0,-59.0,3675.0,-843.0,-1513.0,-4054.0,776.0,-3693.0,-740.0,-2348.0,-4961.0,0.94351,-0.197636,0.26615,8382.0,-2096.0,-88.0,1474.0,2447.0,-1338.0
2891.0,2823.0,2895.0,3139.0,2991.0,0.551819,-0.486023,-0.318665,-0.598145,99.0,130.0,-72.0,3991.0,-655.0,-1013.0,-3653.0,616.0,-3671.0,-543.0,-2204.0,-4695.0,0.933114,-0.155178,0.324516,9174.0,-976.0,-1550.0,2275.0,2986.0,-1629.0
2889.0,2821.0,2896.0,3139.0,2992.0,0.56543,-0.440796,-0.328308,-0.61499,154.0,161.0,-89.0,4601.0,-322.0,-265.0,-2881.0,453.0,-3507.0,-233.0,-2060.0,-4062.0,0.913441,-0.094666,0.395836,10650.0,730.0,1404.0,3539.0,3705.0,-2024.0
2897.0,2826.0,2893.0,3139.0,2989.0,0.289673,-0.001648,0.005676,-1.21228,-19794.0,18173.0,-25237.0,8065.0,24845.0,-2573.0,8059.0,24965.0,-15299.0,6254.0,25479.0,-24128.0,0.000707,-0.014717,1.553499,8844.0,4372.0,2822.0,5277.0,4397.0,-2383.0
2889.0,2817.0,2889.0,3131.0,2989.0,0.595398,-0.337891,-0.356201,-0.635986,270.0,199.0,-107.0,4496.0,1296.0,767.0,-2499.0,880.0,-3475.0,1015.0,-1714.0,-3889.0,0.853951,0.050719,0.517928,7470.0,8044.0,3476.0,6201.0,4570.0,-2444.0
2884.0,2815.0,2891.0,3131.0,2989.0,0.618774,-0.247314,-0.386047,-0.637939,346.0,202.0,-93.0,4168.0,3500.0,1415.0,-2330.0,1972.0,-3333.0,2734.0,-1141.0,-3412.0,0.793296,0.186486,0.579651,8368.0,14108.0,5028.0,7931.0,4644.0,-2126.0
2887.0,2819.0,2890.0,3127.0,2987.0,0.644043,-0.145874,-0.420471,-0.622253,392.0,206.0,-52.0,4466.0,6979.0,2286.0,-1457.0,4231.0,-2661.0,5054.0,-128.0,-1241.0,0.723144,0.335381,0.603915,10006.0,26040.0,7300.0,8990.0,4733.0,-1174.0
2893.0,2827.0,2895.0,3139.0,2991.0,0.655762,-0.093018,-0.43689,-0.608643,398.0,209.0,-36.0,4579.0,8962.0,2674.0,-1042.0,5604.0,-2248.0,6090.0,632.0,230.0,0.68622,0.409825,0.600944,9618.0,29674.0,7448.0,9125.0,4790.0,-819.0
2885.0,2821.0,2895.0,3139.0,2992.0,0.675354,0.011414,-0.466309,-0.571289,398.0,199.0,-5.0,4512.0,12277.0,3053.0,-540.0,7786.0,-1574.0,6984.0,2310.0,3046.0,0.616806,0.54821,0.5649,8668.0,32767.0,6934.0,9120.0,4577.0,-96.0
2894.0,2823.0,2894.0,3143.0,2991.0,0.69104,0.103821,-0.489319,-0.52179,359.0,175.0,46.0,4670.0,14166.0,3975.0,17.0,8807.0,-117.0,5547.0,3764.0,5712.0,0.567933,0.654132,0.499589,10234.0,32767.0,11760.0,8229.0,4028.0,1067.0
2886.0,2819.0,2894.0,3135.0,2987.0,0.698914,0.140686,-0.497314,-0.494324,320.0,159.0,78.0,4891.0,14754.0,4664.0,335.0,9115.0,848.0,4320.0,4270.0,6855.0,0.556071,0.688323,0.465722,11056.0,32767.0,12994.0,7343.0,3654.0,1803.0
2887.0,2819.0,2895.0,3135.0,2991.0,0.716248,0.194153,-0.508972,-0.436157,254.0,129.0,137.0,5645.0,15504.0,6165.0,1059.0,9588.0,2834.0,1656.0,4816.0,8668.0,0.559738,0.722107,0.406496,13276.0,32767.0,15632.0,5840.0,2960.0,3142.0
2891.0,2818.0,2893.0,3141.0,2991.0,0.724915,0.213562,-0.513794,-0.406067,235.0,115.0,155.0,5987.0,15737.0,6678.0,1305.0,9782.0,3558.0,530.0,4991.0,9211.0,0.571472,0.726898,0.380799,14138.0,32767.0,16412.0,5394.0,2636.0,3568.0
2887.0,2823.0,2898.0,3141.0,2991.0,0.741089,0.244995,-0.523743,-0.341309,237.0,99.0,186.0,6456.0,15136.0,7246.0,1466.0,9232.0,4531.0,-1653.0,4829.0,9047.0,0.609042,0.720642,0.331375,13046.0,27686.0,15586.0,5431.0,2277.0,4269.0
2891.0,2827.0,2898.0,3143.0,2992.0,0.750793,0.273682,-0.535522,-0.273254,248.0,68.0,186.0,5970.0,14249.0,7512.0,607.0,8484.0,5245.0,-3839.0,4899.0,7818.0,0.654564,0.703624,0.276673,10286.0,25570.0,15602.0,5695.0,1575.0,4264.0
2890.0,2815.0,2883.0,3135.0,2991.0,0.752502,0.286743,-0.542297,-0.239502,247.0,52.0,188.0,5862.0,13737.0,7540.0,301.0,8073.0,5514.0,-4769.0,4669.0,7148.0,0.678809,0.691312,0.247313,11454.0,24416.0,15160.0,5663.0,1201.0,4311.0
2887.0,2821.0,2891.0,3135.0,2987.0,0.752747,0.307007,-0.556335,-0.171936,222.0,39.0,201.0,5959.0,12882.0,7213.0,-37.0,7528.0,5636.0,-5950.0,4158.0,5977.0,0.731988,0.653505,0.192427,11672.0,23748.0,12700.0,5100.0,907.0,4625.0
2885.0,2822.0,2893.0,3133.0,2987.0,0.752075,0.317932,-0.566895,-0.109253,169.0,37.0,199.0,5457.0,11956.0,6381.0,-959.0,7023.0,5110.0,-6409.0,4128.0,4269.0,0.783225,0.602087,0.155103,8214.0,20002.0,8950.0,3877.0,857.0,4580.0
2890.0,2822.0,2895.0,3139.0,2991.0,0.751526,0.318909,-0.571716,-0.081482,136.0,27.0,199.0,4948.0,11274.0,5832.0,-1665.0,6584.0,4661.0,-6396.0,4168.0,3091.0,0.807349,0.572505,0.142868,6792.0,18384.0,8718.0,3138.0,619.0,4575.0
2887.0,2826.0,2896.0,3143.0,2991.0,0.75061,0.312012,-0.581421,-0.034363,74.0,7.0,188.0,3748.0,9501.0,4831.0,-3226.0,5336.0,3772.0,-6071.0,4005.0,453.0,0.851398,0.508357,0.129195,4282.0,12858.0,6552.0,1707.0,180.0,4318.0
2887.0,2823.0,2891.0,3127.0,2989.0,0.749939,0.305237,-0.58667,-0.015381,49.0,0.0,174.0,3387.0,8290.0,4350.0,-3744.0,4391.0,3323.0,-5591.0,3536.0,-753.0,0.870544,0.475865,0.125294,4896.0,8954.0,5818.0,1127.0,6.0,3986.0
2891.0,2821.0,2887.0,3135.0,2991.0,0.748962,0.289795,-0.595642,0.015686,26.0,4.0,133.0,3051.0,5297.0,3252.0,-4332.0,1894.0,2249.0,-3940.0,1950.0,-2842.0,0.901319,0.415404,0.12242,5260.0,1370.0,3080.0,611.0,93.0,3052.0
2890.0,2823.0,2899.0,3151.0,2993.0,0.748596,0.283142,-0.598755,0.028931,25.0,9.0,114.0,2816.0,3882.0,2647.0,-4661.0,693.0,1643.0,-3021.0,1205.0,-3783.0,0.912834,0.389273,0.122556,4004.0,-314.0,1636.0,593.0,207.0,2613.0
2891.0,2829.0,2897.0,3141.0,2991.0,0.748169,0.272339,-0.602905,0.050598,14.0,11.0,83.0,2285.0,2155.0,1727.0,-5331.0,-683.0,705.0,-1768.0,438.0,-5105.0,0.92971,0.346499,0.124654,3264.0,822.0,1216.0,343.0,270.0,1923.0
2891.0,2823.0,2891.0,3131.0,2983.0,0.748718,0.267212,-0.603882,0.057922,-1.0,14.0,67.0,2142.0,1703.0,1438.0,-5519.0,-1001.0,390.0,-1387.0,267.0,-5442.0,0.93523,0.330176,0.127859,3506.0,846.0,1268.0,-10.0,338.0,1539.0
2890.0,2823.0,2893.0,3135.0,2991.0,0.752563,0.256287,-0.603088,0.064697,-32.0,24.0,30.0,1825.0,785.0,967.0,-5882.0,-1735.0,-189.0,-683.0,-159.0,-6094.0,0.940887,0.307708,0.141139,2282.0,-1228.0,574.0,-711.0,557.0,700.0
2891.0,2819.0,2894.0,3135.0,2991.0,0.755493,0.250671,-0.601807,0.064636,-42.0,24.0,15.0,1502.0,231.0,726.0,-6212.0,-2234.0,-502.0,-327.0,-437.0,-6597.0,0.941727,0.300964,0.14994,890.0,-3082.0,-42.0,-952.0,572.0,356.0
2891.0,2826.0,2893.0,3141.0,2991.0,0.760742,0.240784,-0.599609,0.061279,-39.0,16.0,-6.0,898.0,-1080.0,306.0,-6817.0,-3479.0,-1045.0,387.0,-1256.0,-7611.0,0.941806,0.292861,0.164976,654.0,-6200.0,-376.0,-884.0,384.0,-129.0
2883.0,2823.0,2897.0,3139.0,2991.0,0.764526,0.237488,-0.596619,0.056396,-15.0,14.0,-35.0,712.0,-1926.0,189.0,-6980.0,-4349.0,-1247.0,744.0,-1918.0,-8059.0,0.939048,0.295837,0.175327,900.0,-4928.0,524.0,-326.0,336.0,-798.0
2883.0,2821.0,2896.0,3133.0,2983.0,0.766052,0.239075,-0.59436,0.052368,-9.0,11.0,-51.0,647.0,-1843.0,261.0,-7017.0,-4333.0,-1206.0,626.0,-1865.0,-8098.0,0.935662,0.304036,0.179157,1024.0,-2710.0,1098.0,-195.0,255.0,-1148.0
2882.0,2815.0,2894.0,3135.0,2991.0,0.768921,0.245422,-0.58905,0.038757,-20.0,4.0,-78.0,850.0,-985.0,638.0,-6726.0,-3702.0,-881.0,34.0,-1328.0,-7612.0,0.92489,0.331761,0.185529,2546.0,1252.0,2496.0,-449.0,109.0,-1768.0
2883.0,2823.0,2895.0,3139.0,2983.0,0.770752,0.24884,-0.585815,0.028503,-34.0,3.0,-90.0,959.0,-343.0,835.0,-6554.0,-3211.0,-719.0,-328.0,-885.0,-7272.0,0.917222,0.350193,0.18977,2538.0,3372.0,2822.0,-768.0,71.0,-2052.0
2887.0,2826.0,2897.0,3141.0,2991.0,0.775208,0.253784,-0.578491,0.0,-68.0,-2.0,-115.0,1262.0,665.0,1151.0,-6085.0,-2558.0,-502.0,-810.0,-244.0,-6565.0,0.896901,0.393471,0.201888,3770.0,2904.0,3060.0,-1549.0,-27.0,-2631.0
2889.0,2835.0,2887.0,3115.0,2991.0,0.777588,0.255737,-0.574158,-0.017029,-72.0,-1.0,-129.0,1463.0,690.0,1276.0,-5780.0,-2728.0,-443.0,-837.0,-351.0,-6342.0,0.884206,0.417271,0.209874,4036.0,1216.0,3212.0,-1634.0,-9.0,-2942.0
2883.0,2823.0,2907.0,3139.0,2993.0,0.781067,0.263367,-0.563721,-0.053223,-57.0,0.0,-157.0,1927.0,935.0,1720.0,-5057.0,-2926.0,-129.0,-1071.0,-536.0,-5719.0,0.852573,0.471419,0.225755,5684.0,4054.0,5584.0,-1295.0,6.0,-3576.0
2887.0,2825.0,2896.0,3139.0,2983.0,0.783569,0.277527,-0.547607,-0.095642,-64.0,3.0,-196.0,2505.0,2712.0,2630.0,-4090.0,-1708.0,612.0,-1856.0,240.0,-4063.0,0.80509,0.539672,0.246233,6496.0,13876.0,8386.0,-1456.0,79.0,-4471.0
2887.0,2817.0,2891.0,3139.0,2991.0,0.784851,0.285645,-0.536133,-0.122192,-79.0,18.0,-226.0,3018.0,4158.0,3657.0,-3304.0,-588.0,1511.0,-2615.0,691.0,-2494.0,0.771762,0.5794,0.261891,8110.0,17126.0,11774.0,-1803.0,413.0,-5159.0
2887.0,2822.0,2893.0,3150.0,2991.0,0.786011,0.297974,-0.507629,-0.188965,-149.0,-6.0,-264.0,2321.0,7355.0,4351.0,-3293.0,1946.0,1835.0,-3042.0,2928.0,-408.0,0.685391,0.660269,0.307045,776.0,24592.0,10454.0,-3411.0,-136.0,-6046.0
2893.0,2821.0,2895.0,3143.0,2991.0,0.778015,0.294739,-0.483582,-0.271973,-217.0,-95.0,-259.0,1037.0,9923.0,4571.0,-3813.0,4011.0,1633.0,-2402.0,5101.0,1222.0,0.592146,0.721664,0.358555,-524.0,26380.0,9432.0,-4955.0,-2157.0,-5929.0
2882.0,2819.0,2896.0,3135.0,2993.0,0.769104,0.286316,-0.476318,-0.315552,-228.0,-133.0,-252.0,1298.0,10844.0,4892.0,-3223.0,4773.0,1760.0,-1711.0,5237.0,2430.0,0.551982,0.74102,0.382238,5464.0,26984.0,12092.0,-5200.0,-3025.0,-5759.0
2885.0,2821.0,2895.0,3135.0,2991.0,0.746277,0.263306,-0.464661,-0.397156,-221.0,-138.0,-231.0,3362.0,12889.0,5941.0,-606.0,6646.0,2423.0,-26.0,4076.0,5811.0,0.484384,0.762083,0.429422,13798.0,32767.0,15306.0,-5060.0,-3153.0,-5271.0
2885.0,2823.0,2891.0,3135.0,2991.0,0.724609,0.231384,-0.447327,-0.470459,-276.0,-117.0,-191.0,4910.0,14497.0,6824.0,1382.0,8302.0,2787.0,1745.0,2748.0,8246.0,0.430561,0.756224,0.492751,11764.0,32767.0,14364.0,-6317.0,-2661.0,-4367.0
2891.0,2815.0,2895.0,3131.0,2983.0,0.716003,0.205811,-0.435547,-0.505249,-337.0,-134.0,-145.0,4709.0,14997.0,6608.0,1303.0,8977.0,2218.0,3184.0,2779.0,8326.0,0.415735,0.734841,0.535878,7230.0,32767.0,11552.0,-7716.0,-3049.0,-3303.0
2883.0,2827.0,2887.0,3135.0,2975.0,0.702087,0.121216,-0.411621,-0.568298,-473.0,-227.0,-14.0,3700.0,15635.0,5276.0,93.0,10408.0,100.0,7196.0,3325.0,6744.0,0.440214,0.638055,0.631765,6854.0,32767.0,6200.0,-10812.0,-5178.0,-317.0
2885.0,2819.0,2895.0,3135.0,2991.0,0.687439,-0.002991,-0.38623,-0.615051,-540.0,-263.0,71.0,5416.0,14933.0,3826.0,1035.0,11074.0,-1922.0,10346.0,902.0,4420.0,0.534699,0.470991,0.701678,18600.0,21986.0,3272.0,-12348.0,-6002.0,1637.0
2893.0,2817.0,2885.0,3135.0,2993.0,0.679199,-0.069885,-0.370667,-0.629578,-516.0,-247.0,97.0,7027.0,12664.0,3389.0,2181.0,9618.0,-2471.0,9603.0,-1240.0,3098.0,0.591509,0.371795,0.715402,24194.0,10164.0,4828.0,-11818.0,-5647.0,2238.0
2891.0,2819.0,2895.0,3133.0,2993.0,0.665894,-0.187134,-0.336792,-0.638916,-373.0,-167.0,126.0,10165.0,6846.0,4055.0,4531.0,5362.0,-1705.0,5399.0,-3833.0,2888.0,0.687661,0.181141,0.70318,27494.0,-2688.0,11768.0,-8524.0,-3819.0,2904.0
2891.0,2823.0,2895.0,3135.0,2991.0,0.660889,-0.265259,-0.308777,-0.630493,-228.0,-118.0,130.0,10011.0,4178.0,5359.0,3927.0,3860.0,-118.0,3913.0,-2468.0,2986.0,0.742622,0.03875,0.66859,15788.0,5422.0,14478.0,-5216.0,-2695.0,2990.0
2893.0,2829.0,2886.0,3143.0,2987.0,0.65863,-0.294006,-0.299744,-0.624512,-193.0,-123.0,118.0,9012.0,4183.0,5788.0,2769.0,4288.0,483.0,4381.0,-1219.0,2367.0,0.762061,-0.012896,0.647523,11546.0,9036.0,13390.0,-4403.0,-2813.0,2708.0
2887.0,2821.0,2885.0,3135.0,2991.0,0.649292,-0.346191,-0.290344,-0.611816,-169.0,-149.0,93.0,7682.0,4547.0,6128.0,1123.0,5319.0,1280.0,5447.0,426.0,1155.0,0.800648,-0.094284,0.591751,12808.0,9768.0,12158.0,-3865.0,-3404.0,2151.0
2890.0,2815.0,2881.0,3147.0,2995.0,0.634705,-0.396545,-0.285034,-0.598938,-160.0,-148.0,73.0,7364.0,3968.0,5632.0,508.0,5294.0,1346.0,5435.0,696.0,271.0,0.836837,-0.161943,0.523084,14852.0,4168.0,9250.0,-3663.0,-3376.0,1686.0
2891.0,2827.0,2896.0,3141.0,2974.0,0.626953,-0.419678,-0.282471,-0.592468,-146.0,-136.0,66.0,7307.0,3225.0,5086.0,331.0,4793.0,1086.0,4898.0,507.0,-105.0,0.851483,-0.191527,0.48817,14150.0,1936.0,6768.0,-3326.0,-3102.0,1523.0
2883.0,2821.0,2896.0,3135.0,2983.0,0.61322,-0.45874,-0.278625,-0.57959,-107.0,-112.0,54.0,6847.0,1837.0,3831.0,-308.0,3800.0,358.0,3687.0,105.0,-1027.0,0.87348,-0.239641,0.423889,11650.0,-42.0,3718.0,-2447.0,-2559.0,1247.0
2887.0,2829.0,2895.0,3131.0,2995.0,0.602051,-0.489014,-0.277466,-0.566956,-79.0,-99.0,44.0,5818.0,1335.0,2508.0,-1461.0,3581.0,-504.0,3008.0,-288.0,-2465.0,0.888595,-0.274201,0.367782,8246.0,2234.0,1072.0,-1808.0,-2252.0,1022.0
2887.0,2815.0,2887.0,3139.0,2990.0,0.596497,-0.50238,-0.277832,-0.560913,-74.0,-96.0,39.0,5318.0,1248.0,1856.0,-2014.0,3604.0,-936.0,2764.0,-550.0,-3158.0,0.895035,-0.287657,0.340855,7788.0,1934.0,-254.0,-1679.0,-2186.0,913.0
2887.0,2815.0,2890.0,3149.0,2979.0,0.585693,-0.526733,-0.279053,-0.549255,-61.0,-83.0,33.0,4846.0,813.0,631.0,-2571.0,3356.0,-1739.0,2088.0,-1238.0,-3873.0,0.905501,-0.310466,0.2894,9064.0,6.0,-2152.0,-1390.0,-1882.0,767.0
2882.0,2815.0,2890.0,3143.0,2994.0,0.577148,-0.545776,-0.279602,-0.539368,-44.0,-56.0,28.0,4652.0,240.0,-437.0,-2814.0,2930.0,-2468.0,1325.0,-1926.0,-4139.0,0.911492,-0.328371,0.247969,8504.0,-1314.0,-3914.0,-989.0,-1261.0,642.0
2895.0,2823.0,2894.0,3129.0,2989.0,0.574097,-0.553223,-0.279175,-0.535217,-37.0,-43.0,27.0,4493.0,-25.0,-871.0,-2984.0,2730.0,-2771.0,958.0,-2181.0,-4284.0,0.912735,-0.336368,0.232051,7948.0,-1438.0,-4188.0,-828.0,-967.0,638.0
2893.0,2823.0,2899.0,3135.0,2999.0,0.569641,-0.565063,-0.276794,-0.52887,-31.0,-22.0,24.0,3964.0,-373.0,-1539.0,-3515.0,2502.0,-3245.0,363.0,-2515.0,-4763.0,0.913037,-0.35099,0.208282,6072.0,-1990.0,-4868.0,-710.0,-502.0,561.0
2879.0,2822.0,2897.0,3143.0,2983.0,0.566589,-0.573914,-0.273315,-0.524292,-21.0,-10.0,18.0,3419.0,-1088.0,-2028.0,-4048.0,1891.0,-3599.0,-552.0,-2631.0,-5068.0,0.911512,-0.363752,0.191827,5590.0,-4640.0,-5320.0,-460.0,-212.0,426.0
2880.0,2813.0,2889.0,3147.0,2991.0,0.566101,-0.576843,-0.271851,-0.5224,-9.0,-3.0,14.0,3293.0,-1468.0,-2175.0,-4165.0,1555.0,-3704.0,-961.0,-2642.0,-5057.0,0.910476,-0.369074,0.186721,5968.0,-5054.0,-5082.0,-205.0,-53.0,324.0
2879.0,2815.0,2895.0,3139.0,2983.0,0.566895,-0.577637,-0.270508,-0.521362,8.0,19.0,-2.0,3359.0,-1730.0,-2172.0,-4087.0,1324.0,-3698.0,-1163.0,-2605.0,-4897.0,0.909015,-0.372853,0.186349,7354.0,-3854.0,-3924.0,193.0,446.0,-29.0
2882.0,2815.0,2895.0,3139.0,2991.0,0.569336,-0.571655,-0.269409,-0.525879,21.0,49.0,-16.0,3644.0,-1918.0,-1990.0,-3794.0,1093.0,-3639.0,-1225.0,-2522.0,-4579.0,0.908012,-0.367575,0.201321,8104.0,-4350.0,-3264.0,502.0,1134.0,-353.0
2891.0,2821.0,2887.0,3135.0,2997.0,0.571594,-0.566223,-0.268433,-0.529785,29.0,63.0,-20.0,3688.0,-1932.0,-1865.0,-3740.0,1040.0,-3624.0,-1217.0,-2458.0,-4547.0,0.906822,-0.362877,0.214728,7408.0,-3716.0,-2936.0,665.0,1457.0,-436.0
2893.0,2831.0,2896.0,3133.0,2991.0,0.577759,-0.551575,-0.266357,-0.53949,42.0,77.0,-26.0,3381.0,-2000.0,-1493.0,-4015.0,866.0,-3538.0,-1330.0,-2113.0,-4811.0,0.902918,-0.34996,0.249673,5776.0,-4248.0,-1840.0,964.0,1782.0,-585.0
2887.0,2822.0,2889.0,3131.0,2991.0,0.584656,-0.533325,-0.265503,-0.550659,50.0,83.0,-36.0,3443.0,-1821.0,-920.0,-3911.0,892.0,-3296.0,-1073.0,-1764.0,-4763.0,0.897816,-0.33122,0.29012,7840.0,-2702.0,32.0,1150.0,1920.0,-815.0
2883.0,2815.0,2887.0,3135.0,2992.0,0.58783,-0.522583,-0.265625,-0.557495,52.0,90.0,-44.0,3659.0,-1548.0,-584.0,-3672.0,1058.0,-3145.0,-734.0,-1653.0,-4606.0,0.894959,-0.31821,0.312695,8706.0,-1156.0,988.0,1214.0,2082.0,-998.0
2883.0,2818.0,2896.0,3135.0,2993.0,0.592285,-0.496765,-0.266907,-0.5755,55.0,109.0,-70.0,4107.0,-834.0,90.0,-3167.0,1469.0,-2891.0,34.0,-1499.0,-4277.0,0.887947,-0.281243,0.363988,9718.0,-8.0,2164.0,1275.0,2510.0,-1584.0
2887.0,2818.0,2891.0,3135.0,2991.0,0.596497,-0.464417,-0.268799,-0.596863,78.0,130.0,-78.0,4538.0,-809.0,727.0,-2630.0,1101.0,-2747.0,40.0,-1345.0,-3723.0,0.875061,-0.233174,0.424118,9884.0,-2430.0,3678.0,1805.0,2986.0,-1777.0
2891.0,2827.0,2895.0,3139.0,2987.0,0.601318,-0.445374,-0.27002,-0.605957,105.0,133.0,-65.0,4475.0,-1105.0,1047.0,-2606.0,602.0,-2700.0,-309.0,-1136.0,-3613.0,0.86449,-0.208382,0.4575,8176.0,-4074.0,3928.0,2416.0,3064.0,-1470.0
2887.0,2823.0,2891.0,3135.0,2991.0,0.619263,-0.401917,-0.27832,-0.614441,184.0,114.0,-36.0,4393.0,-1277.0,2036.0,-2476.0,-1.0,-2240.0,-558.0,-550.0,-3245.0,0.838615,-0.155761,0.522025,9438.0,-1580.0,7870.0,4229.0,2632.0,-810.0
2886.0,2827.0,2897.0,3119.0,2987.0,0.640991,-0.342285,-0.30249,-0.616821,277.0,115.0,-76.0,4873.0,-236.0,3316.0,-1762.0,301.0,-1457.0,151.0,-153.0,-2296.0,0.810045,-0.065639,0.582679,11342.0,3348.0,9976.0,6360.0,2648.0,-1719.0
2887.0,2815.0,2895.0,3141.0,2983.0,0.650513,-0.303833,-0.321045,-0.617676,329.0,122.0,-104.0,5138.0,294.0,3732.0,-1358.0,283.0,-1259.0,294.0,-155.0,-1843.0,0.793028,0.001309,0.609306,11786.0,3488.0,9530.0,7539.0,2814.0,-2369.0
2887.0,2821.0,2894.0,3135.0,2987.0,0.668884,-0.206848,-0.369873,-0.610779,462.0,139.0,-120.0,5322.0,1475.0,3387.0,-801.0,40.0,-1862.0,505.0,-817.0,-1785.0,0.747481,0.175106,0.640865,11002.0,6932.0,3590.0,10603.0,3198.0,-2732.0
2883.0,2821.0,2891.0,3139.0,2991.0,0.686401,-0.082031,-0.432861,-0.578613,602.0,169.0,-91.0,6310.0,3840.0,1747.0,664.0,658.0,-3265.0,2170.0,-2274.0,-1284.0,0.689162,0.388306,0.611842,16368.0,16192.0,-2958.0,13804.0,3887.0,-2063.0
2887.0,2823.0,2897.0,3135.0,2991.0,0.693115,-0.009583,-0.465881,-0.549988,661.0,194.0,-73.0,6699.0,5309.0,154.0,1322.0,1219.0,-4480.0,3734.0,-2870.0,-1058.0,0.656359,0.499175,0.565758,15102.0,19396.0,-10124.0,15146.0,4448.0,-1668.0
2883.0,2815.0,2895.0,3131.0,2983.0,0.692932,0.150452,-0.529358,-0.465759,751.0,211.0,-45.0,6240.0,8877.0,-4127.0,1378.0,3129.0,-7356.0,7956.0,-1572.0,113.0,0.59347,0.701612,0.394231,10402.0,30030.0,-21142.0,17206.0,4849.0,-1017.0
2883.0,2807.0,2894.0,3139.0,2994.0,0.667297,0.305176,-0.579834,-0.354065,729.0,187.0,5.0,5766.0,12330.0,-7055.0,1197.0,5629.0,-8212.0,8889.0,2152.0,4111.0,0.557739,0.817884,0.141308,11524.0,32767.0,-19052.0,16716.0,4284.0,130.0
2884.0,2815.0,2879.0,3135.0,2989.0,0.649292,0.367676,-0.59668,-0.295288,660.0,169.0,38.0,5976.0,13405.0,-7174.0,1407.0,6606.0,-7317.0,7052.0,3426.0,6138.0,0.557698,0.829843,0.017563,13614.0,32767.0,-13698.0,15138.0,3878.0,884.0
2879.0,2813.0,2885.0,3135.0,2991.0,0.621216,0.450012,-0.613159,-0.18866,449.0,156.0,113.0,6911.0,14775.0,-5219.0,2061.0,8299.0,-3933.0,1393.0,4015.0,8397.0,0.59201,0.790466,-0.156974,16134.0,32767.0,-2986.0,10285.0,3578.0,2602.0
2882.0,2811.0,2885.0,3135.0,2991.0,0.615845,0.478882,-0.616577,-0.105835,225.0,143.0,174.0,7229.0,15515.0,-2466.0,1838.0,9613.0,-671.0,-3446.0,3971.0,8281.0,0.658067,0.720345,-0.219029,15136.0,32767.0,3096.0,5169.0,3298.0,3986.0
2893.0,2823.0,2895.0,3139.0,2992.0,0.620544,0.479492,-0.616028,-0.073547,148.0,143.0,186.0,7143.0,15745.0,-1562.0,1457.0,10127.0,231.0,-4915.0,4249.0,7904.0,0.694014,0.685707,-0.218918,13378.0,32767.0,1482.0,3392.0,3296.0,4264.0
2883.0,2827.0,2896.0,3141.0,2992.0,0.633789,0.470825,-0.613342,-0.019897,86.0,131.0,181.0,6505.0,15082.0,-912.0,289.0,9993.0,691.0,-5998.0,4984.0,6291.0,0.758723,0.621216,-0.195781,10466.0,23698.0,-1612.0,1990.0,3012.0,4165.0
2887.0,2822.0,2895.0,3143.0,2991.0,0.641174,0.462036,-0.611938,0.031311,106.0,110.0,166.0,5939.0,12624.0,-604.0,-726.0,8084.0,836.0,-5708.0,4470.0,3742.0,0.813652,0.554171,-0.175861,10632.0,18446.0,-386.0,2442.0,2535.0,3820.0
2883.0,2814.0,2896.0,3123.0,2991.0,0.642639,0.458923,-0.610901,0.056213,109.0,102.0,158.0,5744.0,11704.0,-362.0,-1110.0,7434.0,1011.0,-5721.0,4131.0,2775.0,0.836773,0.521163,-0.167665,10136.0,18380.0,818.0,2503.0,2351.0,3620.0
2887.0,2809.0,2891.0,3135.0,2995.0,0.644714,0.451233,-0.608948,0.099304,72.0,79.0,147.0,5040.0,10453.0,21.0,-2126.0,6677.0,1240.0,-5894.0,3850.0,1032.0,0.874813,0.460891,-0.148911,8526.0,17396.0,1496.0,1671.0,1819.0,3371.0
2881.0,2815.0,2875.0,3135.0,2992.0,0.64978,0.435669,-0.608887,0.131165,11.0,70.0,136.0,4558.0,8875.0,388.0,-2860.0,5545.0,1380.0,-5462.0,3277.0,-503.0,0.905574,0.406449,-0.121132,7276.0,11788.0,1108.0,268.0,1625.0,3120.0
2895.0,2831.0,2892.0,3143.0,2992.0,0.653687,0.424927,-0.609497,0.143494,-13.0,67.0,128.0,4266.0,7585.0,364.0,-3260.0,4466.0,1217.0,-4675.0,2857.0,-1422.0,0.918789,0.38062,-0.104153,6826.0,6944.0,432.0,-281.0,1544.0,2945.0
2887.0,2831.0,2895.0,3143.0,2992.0,0.661743,0.401428,-0.611511,0.164185,-30.0,61.0,106.0,3601.0,4492.0,36.0,-4108.0,1784.0,611.0,-2491.0,1789.0,-3319.0,0.941143,0.330483,-0.07023,4936.0,-470.0,-1210.0,-673.0,1404.0,2437.0
2893.0,2810.0,2875.0,3135.0,2991.0,0.664978,0.390564,-0.61261,0.172974,-28.0,53.0,93.0,3186.0,3074.0,-215.0,-4595.0,554.0,241.0,-1427.0,1317.0,-4207.0,0.949859,0.307502,-0.055715,3920.0,-2066.0,-1804.0,-631.0,1228.0,2142.0
2877.0,2811.0,2893.0,3139.0,2991.0,0.669006,0.372864,-0.614807,0.18811,-13.0,39.0,67.0,2815.0,635.0,-467.0,-5073.0,-1557.0,-187.0,354.0,171.0,-5295.0,0.962899,0.267593,-0.03406,5322.0,-5046.0,-1420.0,-278.0,905.0,1553.0
2882.0,2813.0,2891.0,3131.0,2991.0,0.169922,-0.006531,-0.030151,-1.21228,17837.0,7805.0,17318.0,29790.0,25209.0,3716.0,29576.0,24628.0,-8551.0,-32528.0,17258.0,-10288.0,0.026081,0.070884,1.497545,5076.0,-2496.0,-374.0,-37.0,803.0,936.0
2891.0,2827.0,2895.0,3135.0,2995.0,0.67334,0.357422,-0.61377,0.205139,-8.0,33.0,28.0,2680.0,-527.0,-300.0,-5292.0,-2407.0,-226.0,1015.0,-563.0,-5700.0,0.973193,0.229516,-0.008995,5114.0,-1124.0,196.0,-163.0,766.0,649.0
2891.0,2825.0,2894.0,3139.0,2987.0,0.679626,0.349121,-0.611023,0.207031,-38.0,31.0,6.0,2521.0,-183.0,-16.0,-5466.0,-1997.0,-93.0,561.0,-477.0,-5773.0,0.975093,0.221542,0.009519,4224.0,828.0,842.0,-860.0,718.0,145.0
2886.0,2815.0,2895.0,3142.0,2991.0,0.684021,0.344055,-0.609802,0.204529,-56.0,27.0,-2.0,2271.0,12.0,49.0,-5715.0,-1800.0,-110.0,349.0,-344.0,-5972.0,0.974973,0.221238,0.019484,2886.0,1222.0,366.0,-1275.0,630.0,-31.0
2885.0,2822.0,2885.0,3127.0,2983.0,0.693359,0.331848,-0.609741,0.193115,-84.0,11.0,-16.0,2011.0,-191.0,94.0,-5965.0,-2031.0,-202.0,426.0,-475.0,-6271.0,0.973709,0.224679,0.036133,4008.0,-3076.0,-20.0,-1909.0,262.0,-359.0
2887.0,2829.0,2903.0,3146.0,2991.0,0.697388,0.32605,-0.610352,0.186462,-75.0,7.0,-26.0,2106.0,-917.0,63.0,-5863.0,-2777.0,-283.0,947.0,-991.0,-6346.0,0.972895,0.227151,0.04228,4916.0,-6480.0,-28.0,-1706.0,177.0,-580.0
2887.0,2823.0,2895.0,3135.0,2993.0,0.703308,0.321716,-0.609131,0.175537,-29.0,5.0,-52.0,2339.0,-1801.0,236.0,-5605.0,-3756.0,-181.0,1433.0,-1813.0,-6341.0,0.96976,0.238681,0.050914,5222.0,-4222.0,1444.0,-653.0,134.0,-1191.0
2882.0,2815.0,2895.0,3127.0,2975.0,0.705688,0.323975,-0.606812,0.169678,-16.0,3.0,-67.0,2393.0,-1545.0,477.0,-5523.0,-3603.0,37.0,1114.0,-1814.0,-6240.0,0.966382,0.251325,0.053607,5012.0,-914.0,2460.0,-358.0,72.0,-1533.0
2887.0,2815.0,2893.0,3123.0,2981.0,0.711121,0.332886,-0.600159,0.152588,-25.0,-4.0,-95.0,2496.0,-120.0,1145.0,-5328.0,-2498.0,670.0,-205.0,-1295.0,-5775.0,0.955159,0.29029,0.057972,5386.0,5134.0,4594.0,-559.0,-89.0,-2162.0
2883.0,2815.0,2883.0,3131.0,2987.0,0.720154,0.341003,-0.591431,0.123535,-75.0,-8.0,-122.0,2520.0,2052.0,1778.0,-5148.0,-774.0,1222.0,-1877.0,-188.0,-5003.0,0.936094,0.345025,0.067809,5284.0,10836.0,5212.0,-1704.0,-169.0,-2775.0
2891.0,2823.0,2894.0,3142.0,2992.0,0.726501,0.342407,-0.586731,0.103149,-112.0,-10.0,-134.0,2704.0,3069.0,2005.0,-4858.0,-15.0,1374.0,-2475.0,362.0,-4384.0,0.92316,0.376477,0.076948,6842.0,11962.0,5280.0,-2544.0,-212.0,-3053.0
2887.0,2823.0,2896.0,3135.0,2993.0,0.742249,0.338623,-0.575867,0.052429,-167.0,-10.0,-162.0,3148.0,3772.0,1946.0,-4145.0,148.0,1066.0,-2315.0,806.0,-3510.0,0.89038,0.4423,0.107394,7020.0,7758.0,2716.0,-3811.0,-207.0,-3703.0
2887.0,2821.0,2891.0,3143.0,2991.0,0.757141,0.333374,-0.561707,-0.005432,-169.0,-6.0,-193.0,3480.0,3797.0,1982.0,-3458.0,-388.0,780.0,-1799.0,632.0,-3012.0,0.84696,0.510925,0.14664,6976.0,9006.0,3660.0,-3870.0,-125.0,-4409.0
2887.0,2815.0,2885.0,3135.0,2987.0,0.763428,0.331726,-0.552979,-0.037048,-174.0,-10.0,-206.0,3613.0,4503.0,2295.0,-3102.0,18.0,915.0,-1997.0,901.0,-2378.0,0.819738,0.547472,0.168367,8176.0,14230.0,6810.0,-3968.0,-215.0,-4716.0
2879.0,2815.0,2885.0,3131.0,2983.0,0.775818,0.325317,-0.529358,-0.109497,-229.0,-3.0,-238.0,4395.0,7475.0,3392.0,-1750.0,2390.0,1525.0,-2505.0,2133.0,518.0,0.750128,0.6207,0.227832,11462.0,25044.0,10602.0,-5231.0,-60.0,-5442.0
2887.0,2815.0,2883.0,3127.0,2990.0,0.788452,0.306091,-0.495972,-0.196594,-316.0,-10.0,-249.0,4228.0,10042.0,3780.0,-1193.0,4490.0,1153.0,-1525.0,3701.0,2623.0,0.661748,0.677687,0.320626,6606.0,25708.0,7514.0,-7238.0,-213.0,-5702.0
2891.0,2821.0,2894.0,3142.0,2989.0,0.79248,0.288818,-0.47937,-0.242371,-347.0,-31.0,-234.0,4069.0,10785.0,4033.0,-1008.0,5131.0,972.0,-750.0,4119.0,3279.0,0.619781,0.690136,0.373557,7336.0,25932.0,9702.0,-7948.0,-690.0,-5345.0
2890.0,2823.0,2897.0,3135.0,2991.0,0.795532,0.238342,-0.447693,-0.331482,-404.0,-65.0,-189.0,4316.0,12142.0,4780.0,-224.0,6604.0,802.0,1290.0,4502.0,4729.0,0.554296,0.676022,0.485516,10346.0,27164.0,12206.0,-9233.0,-1487.0,-4307.0
2885.0,2822.0,2895.0,3139.0,2989.0,0.792908,0.170044,-0.415955,-0.41156,-425.0,-81.0,-141.0,5142.0,12150.0,5793.0,884.0,7136.0,909.0,3199.0,3670.0,5368.0,0.519661,0.612039,0.596151,12816.0,23538.0,15054.0,-9726.0,-1842.0,-3227.0
2879.0,2817.0,2887.0,3133.0,2991.0,0.78949,0.131714,-0.399902,-0.446594,-429.0,-89.0,-117.0,5507.0,12056.0,6465.0,1298.0,7426.0,1177.0,3937.0,3329.0,5623.0,0.513792,0.565162,0.64547,13134.0,23624.0,17188.0,-9819.0,-2019.0,-2670.0
2886.0,2815.0,2892.0,3135.0,2989.0,0.778381,0.048889,-0.36676,-0.507202,-439.0,-104.0,-71.0,6204.0,11880.0,8253.0,1932.0,8208.0,2303.0,5175.0,3032.0,6358.0,0.521365,0.448152,0.726228,14516.0,22622.0,21890.0,-10047.0,-2367.0,-1625.0
2884.0,2815.0,2887.0,3131.0,2987.0,0.763062,-0.041443,-0.332458,-0.552673,-428.0,-118.0,-25.0,7037.0,10430.0,9919.0,2505.0,7937.0,3566.0,5688.0,2552.0,6565.0,0.553181,0.304235,0.775465,16308.0,14362.0,24364.0,-9785.0,-2680.0,-560.0
2886.0,2819.0,2890.0,3131.0,2987.0,0.742981,-0.126892,-0.303345,-0.583008,-354.0,-136.0,-12.0,7454.0,7973.0,11030.0,2549.0,6620.0,4609.0,5196.0,2394.0,6231.0,0.598717,0.165148,0.783799,15562.0,9640.0,24716.0,-8092.0,-3103.0,-258.0
2887.0,2819.0,2894.0,3135.0,2991.0,0.731018,-0.165161,-0.293396,-0.593567,-322.0,-151.0,-8.0,7514.0,7577.0,11289.0,2393.0,6701.0,4953.0,5606.0,2690.0,6041.0,0.625024,0.106829,0.77335,15374.0,14140.0,23686.0,-7367.0,-3450.0,-171.0
2885.0,2822.0,2895.0,3141.0,2991.0,0.701416,-0.23938,-0.28009,-0.610168,-320.0,-180.0,-5.0,7643.0,7917.0,10630.0,2031.0,7867.0,4661.0,7519.0,2800.0,4834.0,0.685044,0.005995,0.728537,15600.0,15854.0,17178.0,-7311.0,-4122.0,-103.0
2886.0,2823.0,2895.0,3135.0,2991.0,0.665649,-0.317139,-0.269165,-0.619568,-305.0,-199.0,6.0,7838.0,6557.0,8581.0,1683.0,7283.0,3224.0,7509.0,1562.0,2726.0,0.751317,-0.088674,0.653927,16756.0,6052.0,10470.0,-6986.0,-4553.0,156.0
2887.0,2815.0,2887.0,3130.0,2989.0,0.648132,-0.354431,-0.264893,-0.619812,-271.0,-197.0,16.0,8050.0,5360.0,7611.0,1637.0,6433.0,2626.0,6778.0,935.0,2035.0,0.782732,-0.131069,0.608453,17388.0,3666.0,9746.0,-6192.0,-4511.0,386.0
2881.0,2821.0,2895.0,3135.0,2983.0,0.617615,-0.41687,-0.261475,-0.613525,-190.0,-180.0,23.0,8092.0,3945.0,5800.0,1255.0,5534.0,1575.0,5835.0,83.0,785.0,0.834502,-0.194088,0.515712,15644.0,5188.0,6254.0,-4348.0,-4115.0,541.0
2886.0,2815.0,2891.0,3135.0,2989.0,0.592407,-0.464233,-0.265564,-0.602539,-126.0,-163.0,24.0,7697.0,3517.0,3999.0,536.0,5401.0,493.0,5379.0,-670.0,-562.0,0.874082,-0.230005,0.427963,13994.0,6938.0,2916.0,-2873.0,-3721.0,565.0
2887.0,2827.0,2896.0,3139.0,2991.0,0.581848,-0.483887,-0.269104,-0.595764,-107.0,-154.0,30.0,7413.0,3702.0,3164.0,124.0,5688.0,-5.0,5441.0,-1071.0,-1270.0,0.88972,-0.242452,0.386919,13002.0,8856.0,1428.0,-2445.0,-3523.0,697.0
2889.0,2823.0,2894.0,3147.0,2991.0,0.563232,-0.519287,-0.275269,-0.580872,-91.0,-137.0,42.0,6690.0,3813.0,1413.0,-792.0,5985.0,-1120.0,5161.0,-2002.0,-2656.0,0.913359,-0.265167,0.309211,11204.0,6716.0,-2426.0,-2082.0,-3124.0,984.0
2893.0,2822.0,2896.0,3139.0,2991.0,0.548767,-0.551025,-0.277893,-0.563904,-73.0,-113.0,53.0,6101.0,3048.0,-150.0,-1488.0,5434.0,-2101.0,4050.0,-2785.0,-3462.0,0.926448,-0.291359,0.238279,10336.0,3210.0,-4976.0,-1654.0,-2582.0,1221.0
2883.0,2815.0,2891.0,3133.0,2989.0,0.543213,-0.564758,-0.278442,-0.55542,-61.0,-100.0,52.0,5782.0,2520.0,-860.0,-1835.0,5012.0,-2556.0,3351.0,-3105.0,-3760.0,0.929863,-0.304263,0.207089,9658.0,1688.0,-5826.0,-1386.0,-2277.0,1192.0
2883.0,2815.0,2891.0,3127.0,2990.0,0.535339,-0.586914,-0.279236,-0.53949,-34.0,-74.0,44.0,5112.0,1277.0,-2057.0,-2524.0,3956.0,-3328.0,1807.0,-3535.0,-4163.0,0.93224,-0.327107,0.155197,8184.0,-1132.0,-7280.0,-756.0,-1694.0,1012.0
2885.0,2819.0,2895.0,3133.0,2987.0,0.531738,-0.602539,-0.280396,-0.525024,-13.0,-53.0,40.0,4437.0,252.0,-2862.0,-3188.0,3089.0,-3818.0,562.0,-3724.0,-4483.0,0.930889,-0.346357,0.116721,6864.0,-2438.0,-7694.0,-286.0,-1211.0,917.0
2887.0,2823.0,2897.0,3143.0,2993.0,0.531128,-0.608704,-0.280518,-0.518433,-7.0,-44.0,39.0,4116.0,-195.0,-3126.0,-3495.0,2719.0,-3958.0,40.0,-3736.0,-4616.0,0.929125,-0.35574,0.101659,6318.0,-2942.0,-7736.0,-154.0,-1000.0,903.0
2891.0,2823.0,2893.0,3139.0,2993.0,0.531372,-0.618286,-0.279968,-0.507019,0.0,-25.0,32.0,3668.0,-991.0,-3446.0,-3905.0,2066.0,-4091.0,-804.0,-3672.0,-4703.0,0.9245,-0.373181,0.078765,6462.0,-4324.0,-7600.0,5.0,-565.0,752.0
2891.0,2823.0,2895.0,3139.0,2991.0,0.533752,-0.622864,-0.278564,-0.499573,14.0,2.0,20.0,3536.0,-1930.0,-3604.0,-3998.0,1236.0,-4168.0,-1648.0,-3526.0,-4441.0,0.919701,-0.386584,0.068907,6714.0,-6806.0,-7536.0,343.0,66.0,467.0
2885.0,2819.0,2891.0,3135.0,2991.0,0.536499,-0.622498,-0.277954,-0.497498,27.0,18.0,13.0,3468.0,-2318.0,-3600.0,-4049.0,888.0,-4178.0,-1979.0,-3425.0,-4357.0,0.917626,-0.391376,0.070573,6450.0,-6696.0,-7094.0,629.0,415.0,316.0
2887.0,2823.0,2894.0,3133.0,2991.0,0.544739,-0.616455,-0.277222,-0.49646,46.0,40.0,4.0,3159.0,-2645.0,-3428.0,-4329.0,601.0,-4135.0,-2281.0,-3205.0,-4552.0,0.914117,-0.396355,0.086344,5218.0,-5974.0,-6108.0,1075.0,939.0,98.0
2883.0,2821.0,2891.0,3131.0,2989.0,0.556152,-0.605164,-0.277527,-0.497498,66.0,53.0,-3.0,2898.0,-2789.0,-3110.0,-4563.0,463.0,-4040.0,-2375.0,-2947.0,-4798.0,0.910829,-0.396988,0.113565,5456.0,-5728.0,-5050.0,1524.0,1222.0,-46.0
2890.0,2823.0,2893.0,3141.0,2991.0,0.562805,-0.597473,-0.278381,-0.498779,75.0,61.0,-8.0,2866.0,-2682.0,-3006.0,-4583.0,552.0,-4079.0,-2251.0,-2944.0,-4920.0,0.909363,-0.39482,0.13106,5204.0,-4168.0,-5994.0,1734.0,1399.0,-165.0
2883.0,2827.0,2896.0,3139.0,2990.0,0.57605,-0.577942,-0.281128,-0.505127,78.0,79.0,-25.0,3197.0,-2144.0,-2251.0,-4239.0,984.0,-3675.0,-1468.0,-2576.0,-4862.0,0.907755,-0.381836,0.173937,7210.0,-2448.0,-2728.0,1808.0,1829.0,-557.0
2907.0,2825.0,2893.0,3143.0,2991.0,0.587585,-0.553955,-0.283264,-0.517395,76.0,101.0,-43.0,3738.0,-1697.0,-1472.0,-3684.0,1234.0,-3322.0,-781.0,-2236.0,-4530.0,0.906111,-0.357873,0.225849,9236.0,-2694.0,-872.0,1741.0,2331.0,-983.0
2883.0,2819.0,2895.0,3135.0,2990.0,0.593262,-0.539795,-0.284058,-0.525391,82.0,114.0,-53.0,3983.0,-1726.0,-1174.0,-3424.0,1075.0,-3270.0,-734.0,-2130.0,-4300.0,0.904247,-0.341997,0.255928,9316.0,-3884.0,-642.0,1899.0,2618.0,-1192.0
2887.0,2819.0,2890.0,3131.0,2990.0,0.607361,-0.50531,-0.286682,-0.54187,121.0,131.0,-61.0,4147.0,-2162.0,-679.0,-3191.0,321.0,-3341.0,-1154.0,-1944.0,-4041.0,0.895864,-0.303122,0.324986,8250.0,-5780.0,-200.0,2775.0,3013.0,-1382.0
2887.0,2815.0,2891.0,3159.0,2992.0,0.627258,-0.459717,-0.295776,-0.554749,193.0,136.0,-70.0,4269.0,-2410.0,-247.0,-2949.0,-373.0,-3543.0,-1471.0,-1941.0,-3931.0,0.881111,-0.248559,0.402376,9164.0,-4806.0,716.0,4430.0,3117.0,-1599.0
2883.0,2815.0,2895.0,3099.0,2991.0,0.651245,-0.397217,-0.316956,-0.56366,274.0,143.0,-94.0,4715.0,-1610.0,265.0,-2335.0,-298.0,-3696.0,-805.0,-2121.0,-3749.0,0.860622,-0.160061,0.48359,11924.0,792.0,3222.0,6283.0,3287.0,-2153.0
2891.0,2825.0,2893.0,3135.0,2991.0,0.663208,-0.358826,-0.330811,-0.567444,301.0,155.0,-107.0,5204.0,-721.0,857.0,-1726.0,102.0,-3432.0,-27.0,-2022.0,-3267.0,0.846019,-0.100519,0.523646,13338.0,4194.0,5518.0,6916.0,3567.0,-2435.0
2887.0,2831.0,2899.0,3139.0,2987.0,0.685425,-0.27002,-0.359497,-0.572754,343.0,171.0,-116.0,5277.0,977.0,2128.0,-1294.0,635.0,-2752.0,1016.0,-1261.0,-2650.0,0.802126,0.041651,0.595706,8982.0,5930.0,7256.0,7873.0,3918.0,-2653.0
2885.0,2823.0,2895.0,3143.0,2989.0,0.706909,-0.170654,-0.394531,-0.561707,438.0,142.0,-79.0,4700.0,1840.0,2564.0,-1439.0,185.0,-2600.0,1040.0,-773.0,-2680.0,0.749511,0.201947,0.630457,8374.0,6170.0,5014.0,10050.0,3268.0,-1789.0
2889.0,2821.0,2885.0,3135.0,2986.0,0.717712,-0.115723,-0.418579,-0.544312,513.0,125.0,-46.0,4905.0,2557.0,2425.0,-1049.0,184.0,-2676.0,1372.0,-875.0,-2375.0,0.726817,0.289564,0.622786,11924.0,10220.0,3868.0,11753.0,2873.0,-1047.0
2885.0,2819.0,2894.0,3135.0,2989.0,0.734192,0.011047,-0.47876,-0.481262,659.0,122.0,4.0,6428.0,6334.0,1296.0,756.0,2426.0,-3138.0,3987.0,-635.0,-17.0,0.69237,0.47704,0.541318,17806.0,28110.0,-1858.0,15110.0,2798.0,96.0
2891.0,2823.0,2895.0,3134.0,2987.0,0.732178,0.151978,-0.539978,-0.386292,704.0,109.0,58.0,7563.0,10943.0,-798.0,2047.0,5702.0,-3834.0,6013.0,1496.0,3604.0,0.673304,0.639727,0.370632,19094.0,32767.0,-6914.0,16148.0,2504.0,1337.0
2891.0,2823.0,2891.0,3147.0,2992.0,0.724609,0.212891,-0.566101,-0.330261,663.0,90.0,104.0,8524.0,12386.0,-1205.0,2955.0,6795.0,-3403.0,5300.0,2347.0,5732.0,0.679785,0.682448,0.268338,23248.0,32767.0,-3858.0,15195.0,2082.0,2391.0
2883.0,2819.0,2894.0,3143.0,2991.0,0.708313,0.297546,-0.60083,-0.220947,481.0,77.0,163.0,10309.0,14225.0,416.0,4413.0,8596.0,-411.0,817.0,3340.0,9039.0,0.719667,0.687015,0.100994,24488.0,32767.0,8918.0,11024.0,1784.0,3747.0
2886.0,2823.0,2898.0,3131.0,2991.0,0.703613,0.322205,-0.608582,-0.175293,375.0,77.0,169.0,10563.0,14797.0,1805.0,4472.0,9334.0,1382.0,-1813.0,3633.0,9619.0,0.743452,0.666775,0.051612,21986.0,32767.0,11902.0,8594.0,1786.0,3880.0
2886.0,2822.0,2889.0,3135.0,2993.0,0.702209,0.345154,-0.614075,-0.103271,210.0,75.0,186.0,10464.0,15527.0,4087.0,3983.0,10516.0,4025.0,-5796.0,4079.0,9612.0,0.791129,0.611573,0.007544,20350.0,32767.0,14146.0,4814.0,1732.0,4269.0
2885.0,2823.0,2894.0,3133.0,2991.0,0.709961,0.343872,-0.612854,-0.045593,116.0,88.0,203.0,9657.0,14945.0,5103.0,2785.0,10487.0,5002.0,-7569.0,4445.0,8104.0,0.838848,0.544155,0.012285,15528.0,23522.0,11182.0,2679.0,2029.0,4662.0
2886.0,2823.0,2891.0,3143.0,2991.0,0.714661,0.338745,-0.611694,-0.017944,103.0,89.0,205.0,8847.0,13314.0,4964.0,1784.0,9167.0,4782.0,-7355.0,4061.0,6283.0,0.862151,0.506128,0.022144,12500.0,16120.0,8586.0,2361.0,2043.0,4702.0
2887.0,2826.0,2891.0,3135.0,2979.0,0.720154,0.327759,-0.610413,0.036682,103.0,73.0,191.0,6929.0,9807.0,4124.0,-470.0,6306.0,3796.0,-6221.0,3135.0,2421.0,0.903228,0.427291,0.039938,7900.0,10046.0,5350.0,2378.0,1687.0,4395.0
2882.0,2818.0,2895.0,3143.0,2989.0,0.719543,0.318054,-0.611633,0.083679,81.0,37.0,165.0,5137.0,7112.0,3121.0,-2509.0,4201.0,2715.0,-4982.0,2445.0,-714.0,0.933423,0.355346,0.049491,5782.0,6462.0,3598.0,1861.0,862.0,3792.0
2879.0,2819.0,2895.0,3131.0,2993.0,0.71759,0.312378,-0.613831,0.103088,65.0,23.0,154.0,4634.0,5899.0,2708.0,-3110.0,3263.0,2288.0,-4302.0,1973.0,-1773.0,0.945363,0.321761,0.051195,6752.0,4686.0,3040.0,1491.0,531.0,3533.0
2891.0,2825.0,2892.0,3135.0,2991.0,0.713745,0.299744,-0.618225,0.136047,45.0,24.0,124.0,4310.0,3231.0,1877.0,-3587.0,1103.0,1419.0,-2471.0,650.0,-3092.0,0.964069,0.259665,0.055892,7670.0,-1842.0,726.0,1034.0,566.0,2848.0
2887.0,2821.0,2896.0,3147.0,2983.0,0.712158,0.293823,-0.619385,0.151184,45.0,30.0,112.0,4051.0,2056.0,1379.0,-3903.0,161.0,887.0,-1526.0,168.0,-3699.0,0.971043,0.231215,0.060056,6370.0,-2450.0,-110.0,1033.0,690.0,2578.0
2894.0,2823.0,2885.0,3135.0,3039.0,0.70929,0.283752,-0.620361,0.17749,34.0,26.0,90.0,3289.0,706.0,583.0,-4745.0,-787.0,15.0,-330.0,-144.0,-4796.0,0.980758,0.182309,0.069231,4334.0,-1516.0,-636.0,796.0,610.0,2073.0
2883.0,2815.0,2887.0,3134.0,2987.0,0.708008,0.279114,-0.620911,0.187622,24.0,21.0,77.0,2963.0,302.0,357.0,-5097.0,-1027.0,-241.0,7.0,-230.0,-5199.0,0.983955,0.162236,0.073043,4080.0,-1694.0,-470.0,558.0,484.0,1786.0
2879.0,2826.0,2887.0,3127.0,2991.0,0.705994,0.270569,-0.622314,0.202454,10.0,13.0,52.0,2635.0,-508.0,153.0,-5460.0,-1573.0,-493.0,575.0,-623.0,-5639.0,0.988255,0.13006,0.078932,4900.0,-3480.0,12.0,243.0,307.0,1198.0
2887.0,2815.0,2887.0,3143.0,2993.0,0.705383,0.267151,-0.622742,0.207886,8.0,13.0,39.0,2633.0,-923.0,91.0,-5473.0,-1889.0,-577.0,870.0,-873.0,-5686.0,0.989617,0.117969,0.081605,5314.0,-4368.0,-182.0,198.0,309.0,905.0
2883.0,2815.0,2895.0,3135.0,2992.0,0.705078,0.262878,-0.621887,0.216858,17.0,16.0,16.0,2526.0,-1733.0,102.0,-5592.0,-2560.0,-621.0,1352.0,-1449.0,-5854.0,0.990973,0.100977,0.088314,4034.0,-5192.0,210.0,391.0,389.0,387.0
2887.0,2819.0,2899.0,3135.0,2983.0,0.705017,0.262634,-0.620728,0.220398,20.0,13.0,6.0,2318.0,-1813.0,162.0,-5800.0,-2605.0,-586.0,1337.0,-1526.0,-6053.0,0.991015,0.096709,0.091345,3390.0,-3718.0,838.0,468.0,300.0,152.0
2882.0,2815.0,2885.0,3135.0,2991.0,0.7052,0.264954,-0.61853,0.223328,12.0,2.0,-14.0,2176.0,-1503.0,533.0,-5939.0,-2301.0,-240.0,857.0,-1516.0,-6130.0,0.990718,0.097421,0.094402,4464.0,-1806.0,2430.0,291.0,56.0,-317.0
2887.0,2821.0,2887.0,3143.0,2992.0,0.705872,0.266724,-0.61731,0.222473,5.0,0.0,-25.0,2202.0,-1196.0,770.0,-5909.0,-2030.0,-12.0,494.0,-1442.0,-6058.0,0.99016,0.101876,0.095536,4530.0,-268.0,2996.0,125.0,13.0,-562.0
2883.0,2815.0,2877.0,3135.0,2991.0,0.709412,0.270203,-0.614685,0.214233,-24.0,-3.0,-46.0,2274.0,-354.0,1299.0,-5818.0,-1337.0,493.0,-409.0,-1173.0,-5859.0,0.987902,0.119998,0.098314,4910.0,1268.0,4192.0,-547.0,-60.0,-1047.0
2885.0,2825.0,2895.0,3139.0,2992.0,0.712219,0.271118,-0.613464,0.207092,-37.0,-4.0,-55.0,2289.0,-173.0,1522.0,-5789.0,-1255.0,700.0,-680.0,-1193.0,-5804.0,0.986135,0.132104,0.1003,4536.0,536.0,4350.0,-846.0,-81.0,-1257.0
2891.0,2827.0,2879.0,3135.0,2990.0,0.718445,0.272766,-0.611511,0.188293,-52.0,-14.0,-75.0,2168.0,77.0,1882.0,-5871.0,-1247.0,1036.0,-1114.0,-1247.0,-5856.0,0.981394,0.161648,0.10327,4056.0,1086.0,4916.0,-1170.0,-302.0,-1706.0
2883.0,2823.0,2899.0,3127.0,2997.0,0.724792,0.276367,-0.609924,0.162048,-66.0,-26.0,-102.0,2180.0,539.0,2248.0,-5796.0,-1123.0,1402.0,-1650.0,-1138.0,-5726.0,0.973707,0.202943,0.103197,4570.0,2486.0,5414.0,-1508.0,-576.0,-2317.0
2881.0,2821.0,2896.0,3143.0,2990.0,0.727966,0.278687,-0.609192,0.145691,-75.0,-31.0,-116.0,2301.0,830.0,2414.0,-5630.0,-1039.0,1575.0,-1907.0,-1034.0,-5526.0,0.968147,0.228241,0.10238,5522.0,3556.0,5884.0,-1711.0,-696.0,-2646.0
2891.0,2817.0,2895.0,3139.0,2983.0,0.735291,0.284302,-0.606018,0.106018,-92.0,-30.0,-149.0,2803.0,1280.0,2704.0,-4991.0,-1092.0,1853.0,-2205.0,-962.0,-4872.0,0.951481,0.289591,0.103807,7362.0,2566.0,6012.0,-2098.0,-685.0,-3411.0
2881.0,2833.0,2887.0,3127.0,2997.0,0.742737,0.294434,-0.598328,0.059814,-84.0,-25.0,-194.0,3372.0,1511.0,2952.0,-4197.0,-1485.0,2046.0,-2252.0,-1152.0,-4195.0,0.924023,0.365796,0.110549,9698.0,4342.0,9546.0,-1911.0,-551.0,-4432.0
2889.0,2823.0,2903.0,3135.0,2993.0,0.747437,0.30249,-0.590454,0.034912,-73.0,-4.0,-217.0,3538.0,1952.0,3211.0,-3865.0,-1414.0,2230.0,-2503.0,-1073.0,-3807.0,0.903775,0.410957,0.119744,6852.0,7558.0,6484.0,-1670.0,-84.0,-4953.0
2885.0,2826.0,2894.0,3139.0,2991.0,0.754639,0.321594,-0.571411,-0.024414,-110.0,-24.0,-239.0,2694.0,5462.0,3549.0,-4242.0,1257.0,2400.0,-3990.0,1612.0,-2610.0,0.846715,0.513276,0.140142,1712.0,25710.0,7842.0,-2509.0,-528.0,-5467.0
2890.0,2821.0,2895.0,3139.0,2986.0,0.759338,0.321716,-0.555664,-0.105591,-261.0,-81.0,-220.0,2854.0,10401.0,3844.0,-3502.0,5437.0,2406.0,-4527.0,5110.0,999.0,0.775934,0.605929,0.17548,9396.0,32767.0,8672.0,-5970.0,-1836.0,-5039.0
2851.0,2815.0,2879.0,3139.0,2989.0,0.762695,0.307678,-0.547607,-0.153992,-346.0,-84.0,-220.0,3867.0,11988.0,3871.0,-2199.0,6761.0,2143.0,-3459.0,5773.0,3136.0,0.740555,0.637983,0.210878,14356.0,32767.0,7324.0,-7915.0,-1906.0,-5035.0
2879.0,2811.0,2893.0,3143.0,2991.0,0.769592,0.260864,-0.522217,-0.258667,-443.0,-55.0,-229.0,6517.0,13889.0,3240.0,1037.0,8386.0,631.0,794.0,5343.0,6527.0,0.668834,0.671679,0.31842,21496.0,31068.0,5118.0,-10145.0,-1256.0,-5236.0
2891.0,2819.0,2891.0,3135.0,2983.0,0.773376,0.204712,-0.480896,-0.358765,-459.0,1.0,-226.0,8881.0,14474.0,3489.0,3990.0,9053.0,-227.0,4560.0,2957.0,8269.0,0.596941,0.661696,0.453655,22376.0,30160.0,8630.0,-10491.0,45.0,-5156.0
2887.0,2823.0,2899.0,3135.0,2992.0,0.773926,0.175293,-0.45459,-0.404541,-464.0,15.0,-201.0,8654.0,14552.0,3776.0,4051.0,9316.0,-526.0,5844.0,2461.0,7953.0,0.561811,0.639128,0.525235,13730.0,29448.0,8970.0,-10606.0,348.0,-4592.0
2891.0,2823.0,2895.0,3139.0,2989.0,0.769653,0.104553,-0.406128,-0.481445,-466.0,-63.0,-97.0,6607.0,14566.0,4807.0,2310.0,10044.0,-503.0,7432.0,3144.0,6429.0,0.524482,0.551996,0.648285,9068.0,29012.0,15594.0,-10655.0,-1441.0,-2205.0
2883.0,2829.0,2895.0,3135.0,2995.0,0.758667,0.018188,-0.367798,-0.537415,-447.0,-104.0,-40.0,7129.0,13624.0,7184.0,2717.0,10159.0,1213.0,7859.0,2478.0,6643.0,0.538523,0.422918,0.728784,18344.0,21162.0,21024.0,-10220.0,-2382.0,-910.0
2887.0,2815.0,2883.0,3135.0,2990.0,0.751343,-0.025635,-0.350159,-0.558777,-416.0,-104.0,-29.0,7906.0,12049.0,8154.0,3360.0,9158.0,1981.0,7306.0,1517.0,6587.0,0.554827,0.3528,0.753479,20410.0,13570.0,21852.0,-9509.0,-2366.0,-652.0
2885.0,2815.0,2887.0,3135.0,2987.0,0.734497,-0.101624,-0.320679,-0.589417,-304.0,-97.0,-22.0,8836.0,8138.0,9492.0,3995.0,6264.0,3153.0,5122.0,246.0,6232.0,0.590872,0.228742,0.773736,19236.0,5360.0,22378.0,-6953.0,-2220.0,-485.0
2881.0,2813.0,2891.0,3143.0,2983.0,0.716064,-0.156067,-0.304565,-0.608398,-208.0,-102.0,-23.0,8576.0,6411.0,10111.0,3447.0,5206.0,3837.0,4341.0,702.0,5862.0,0.626079,0.147086,0.76578,14856.0,11232.0,20800.0,-4751.0,-2317.0,-515.0
2887.0,2830.0,2895.0,3139.0,2989.0,0.706299,-0.178894,-0.300598,-0.615479,-196.0,-114.0,-14.0,7990.0,6607.0,9940.0,2707.0,5645.0,3752.0,4915.0,1281.0,5241.0,0.644835,0.117318,0.75531,12206.0,15208.0,18438.0,-4477.0,-2599.0,-315.0
2883.0,2821.0,2864.0,3143.0,2990.0,0.685425,-0.22998,-0.294617,-0.624939,-225.0,-149.0,20.0,6725.0,7382.0,8621.0,1061.0,6948.0,2717.0,6625.0,1878.0,3059.0,0.691323,0.052966,0.720666,10076.0,15930.0,11238.0,-5134.0,-3402.0,461.0
2879.0,2821.0,2897.0,3141.0,2991.0,0.663147,-0.292236,-0.286682,-0.626648,-232.0,-159.0,44.0,6577.0,6093.0,6356.0,461.0,6324.0,909.0,6326.0,650.0,769.0,0.746483,-0.028294,0.664863,14228.0,5018.0,5422.0,-5308.0,-3622.0,1019.0
2887.0,2819.0,2847.0,3133.0,2991.0,0.653198,-0.32251,-0.281982,-0.62439,-204.0,-143.0,51.0,6803.0,4529.0,5130.0,485.0,5095.0,-55.0,5110.0,-287.0,-13.0,0.771124,-0.069192,0.633004,14840.0,-914.0,2836.0,-4656.0,-3274.0,1180.0
2883.0,2815.0,2890.0,3149.0,2991.0,0.640686,-0.370789,-0.275208,-0.613464,-116.0,-109.0,65.0,6589.0,2049.0,3006.0,-26.0,3175.0,-1692.0,2968.0,-1447.0,-1427.0,0.807574,-0.137458,0.573594,11232.0,-646.0,118.0,-2649.0,-2486.0,1510.0
2883.0,2810.0,2896.0,3135.0,2987.0,0.63501,-0.403259,-0.274536,-0.598999,-68.0,-94.0,65.0,5552.0,1818.0,1555.0,-1261.0,3319.0,-2738.0,2725.0,-1764.0,-3091.0,0.83177,-0.183253,0.524049,7506.0,4520.0,-776.0,-1553.0,-2142.0,1499.0
2883.0,2819.0,2897.0,3139.0,2963.0,0.632446,-0.417053,-0.275452,-0.591858,-65.0,-94.0,62.0,4965.0,2030.0,965.0,-1933.0,3680.0,-3134.0,2859.0,-1850.0,-3937.0,0.842089,-0.201471,0.500477,6484.0,5416.0,-1538.0,-1466.0,-2137.0,1423.0
2890.0,2823.0,2891.0,3135.0,2993.0,0.624939,-0.444885,-0.277222,-0.578552,-74.0,-93.0,51.0,4282.0,2040.0,3.0,-2773.0,3967.0,-3687.0,2736.0,-2170.0,-4982.0,0.861272,-0.235278,0.450497,7554.0,2664.0,-2566.0,-1684.0,-2117.0,1181.0
2881.0,2827.0,2898.0,3123.0,2995.0,0.616211,-0.471802,-0.276306,-0.566895,-71.0,-71.0,44.0,4314.0,1019.0,-769.0,-2857.0,3215.0,-4063.0,1710.0,-2666.0,-4997.0,0.875449,-0.268186,0.402143,8978.0,-1702.0,-3756.0,-1612.0,-1625.0,1023.0
2879.0,2815.0,2887.0,3135.0,2983.0,0.61261,-0.483215,-0.274841,-0.56189,-61.0,-56.0,39.0,4307.0,324.0,-1150.0,-2900.0,2643.0,-4279.0,1008.0,-2888.0,-4934.0,0.879768,-0.283184,0.381976,8418.0,-3646.0,-4618.0,-1383.0,-1268.0,913.0
2867.0,2811.0,2895.0,3131.0,2997.0,0.608215,-0.499817,-0.27179,-0.553528,-30.0,-29.0,27.0,4020.0,-964.0,-1788.0,-3221.0,1551.0,-4676.0,-347.0,-3130.0,-4972.0,0.883938,-0.307106,0.352632,6950.0,-5390.0,-5140.0,-687.0,-657.0,631.0
2885.0,2815.0,2885.0,3143.0,2979.0,0.607788,-0.508362,-0.270447,-0.546875,-1.0,-12.0,19.0,3432.0,-1785.0,-2212.0,-3816.0,854.0,-4971.0,-1302.0,-3152.0,-5326.0,0.884769,-0.322151,0.336905,4848.0,-5308.0,-5542.0,-11.0,-270.0,451.0
2891.0,2821.0,2897.0,3135.0,2995.0,0.608704,-0.510437,-0.27063,-0.543823,10.0,-8.0,16.0,3178.0,-1954.0,-2313.0,-4068.0,725.0,-5036.0,-1522.0,-3124.0,-5510.0,0.884642,-0.32706,0.332477,5016.0,-4702.0,-5142.0,232.0,-174.0,380.0
2893.0,2827.0,2895.0,3135.0,2983.0,0.611633,-0.510864,-0.272217,-0.539368,24.0,7.0,6.0,3089.0,-2071.0,-2346.0,-4153.0,642.0,-5048.0,-1620.0,-3118.0,-5549.0,0.884081,-0.331273,0.329929,6418.0,-4426.0,-4592.0,568.0,173.0,148.0
2887.0,2817.0,2878.0,3135.0,2997.0,0.613586,-0.509033,-0.273193,-0.53833,31.0,18.0,0.0,3169.0,-2116.0,-2301.0,-4067.0,591.0,-5025.0,-1617.0,-3119.0,-5458.0,0.883311,-0.330535,0.332538,6890.0,-4490.0,-4250.0,720.0,418.0,18.0
2879.0,2809.0,2881.0,3133.0,2987.0,0.618774,-0.500671,-0.274963,-0.539368,45.0,43.0,-13.0,3442.0,-2210.0,-2117.0,-3770.0,435.0,-4963.0,-1588.0,-3104.0,-5184.0,0.880373,-0.322993,0.347523,7654.0,-4752.0,-3714.0,1051.0,993.0,-290.0
2883.0,2791.0,2887.0,3127.0,2987.0,0.625671,-0.484985,-0.2771,-0.544617,66.0,67.0,-31.0,3585.0,-2338.0,-1845.0,-3583.0,161.0,-4925.0,-1648.0,-3006.0,-5036.0,0.875009,-0.305057,0.376077,7424.0,-5164.0,-2506.0,1513.0,1548.0,-707.0
2887.0,2827.0,2882.0,3135.0,2991.0,0.629822,-0.474243,-0.278442,-0.548584,74.0,76.0,-38.0,3516.0,-2377.0,-1679.0,-3619.0,14.0,-4916.0,-1700.0,-2894.0,-5099.0,0.871063,-0.291879,0.395183,5626.0,-4414.0,-3994.0,1712.0,1748.0,-858.0
2887.0,2823.0,2895.0,3135.0,2987.0,0.638855,-0.448486,-0.282654,-0.557556,93.0,83.0,-48.0,3502.0,-2435.0,-1031.0,-3553.0,-322.0,-4618.0,-1729.0,-2463.0,-4999.0,0.861262,-0.257845,0.437971,6600.0,-4934.0,-396.0,2149.0,1916.0,-1095.0
2883.0,2829.0,2895.0,3141.0,2987.0,0.648315,-0.417236,-0.290161,-0.566956,119.0,87.0,-65.0,3600.0,-2203.0,-222.0,-3357.0,-466.0,-4182.0,-1494.0,-1987.0,-4774.0,0.849341,-0.211985,0.483472,7866.0,-3036.0,1942.0,2739.0,1994.0,-1481.0
2879.0,2815.0,2883.0,3135.0,2983.0,0.652771,-0.398132,-0.295959,-0.572571,136.0,93.0,-80.0,3810.0,-1887.0,248.0,-3090.0,-405.0,-3912.0,-1192.0,-1788.0,-4516.0,0.842305,-0.180863,0.507846,9008.0,-1732.0,3330.0,3125.0,2133.0,-1823.0
2887.0,2823.0,2896.0,3135.0,2983.0,0.660828,-0.351379,-0.310974,-0.585815,163.0,108.0,-99.0,4169.0,-316.0,1277.0,-2570.0,503.0,-3308.0,187.0,-1279.0,-4016.0,0.822688,-0.100056,0.5597,9146.0,5730.0,5992.0,3734.0,2483.0,-2258.0
2887.0,2818.0,2885.0,3139.0,2979.0,0.668152,-0.298218,-0.327087,-0.598083,171.0,108.0,-88.0,4346.0,1864.0,2640.0,-2156.0,1923.0,-2342.0,1947.0,-341.0,-3149.0,0.793806,-0.007258,0.608211,9132.0,9554.0,9306.0,3917.0,2475.0,-1998.0
2885.0,2822.0,2891.0,3135.0,2991.0,0.672363,-0.270447,-0.335815,-0.601746,191.0,104.0,-80.0,4504.0,2409.0,3238.0,-1861.0,2077.0,-1908.0,2204.0,-27.0,-2560.0,0.77706,0.040474,0.628257,10254.0,7136.0,9922.0,4376.0,2388.0,-1819.0
2885.0,2823.0,2896.0,3135.0,2991.0,0.684998,-0.20575,-0.360962,-0.598511,302.0,107.0,-68.0,5360.0,2361.0,4033.0,-708.0,1130.0,-1331.0,1408.0,-250.0,-1226.0,0.740803,0.150203,0.65481,13188.0,5610.0,9444.0,6932.0,2451.0,-1538.0
2887.0,2827.0,2897.0,3139.0,2981.0,0.69928,-0.117676,-0.402527,-0.578918,428.0,111.0,-70.0,6182.0,3562.0,3953.0,454.0,1092.0,-1357.0,1569.0,-850.0,-233.0,0.699207,0.301484,0.648263,14986.0,11746.0,6702.0,9826.0,2562.0,-1594.0
2879.0,2818.0,2894.0,3139.0,2991.0,0.704773,-0.06543,-0.427917,-0.562073,480.0,116.0,-66.0,6530.0,4684.0,3487.0,986.0,1498.0,-1634.0,2138.0,-1123.0,228.0,0.676722,0.388815,0.625236,15046.0,16766.0,3630.0,11016.0,2658.0,-1491.0
2890.0,2815.0,2883.0,3135.0,2981.0,0.70929,0.050171,-0.482056,-0.511841,552.0,125.0,-40.0,7145.0,7584.0,1975.0,1963.0,2958.0,-2368.0,3767.0,-1127.0,1656.0,0.632475,0.564643,0.530178,15576.0,26042.0,-1012.0,12664.0,2876.0,-901.0
2882.0,2815.0,2887.0,3137.0,2981.0,0.704346,0.167175,-0.528931,-0.442932,531.0,132.0,2.0,7705.0,11570.0,1487.0,2814.0,5802.0,-1663.0,4214.0,560.0,5125.0,0.597005,0.704059,0.384577,17050.0,32767.0,3574.0,12166.0,3035.0,53.0
2887.0,2822.0,2891.0,3135.0,2992.0,0.700989,0.216919,-0.545105,-0.405457,481.0,131.0,33.0,7889.0,12847.0,1647.0,3069.0,6734.0,-905.0,3322.0,1290.0,6548.0,0.588323,0.746148,0.311587,16690.0,32767.0,4482.0,11032.0,3005.0,771.0
2883.0,2827.0,2895.0,3143.0,2989.0,0.698059,0.289307,-0.566162,-0.329407,367.0,122.0,111.0,8355.0,14474.0,2719.0,3441.0,8109.0,1149.0,434.0,2246.0,8584.0,0.59983,0.776901,0.191557,17930.0,32767.0,8648.0,8418.0,2816.0,2556.0
2885.0,2811.0,2891.0,3131.0,2987.0,0.699341,0.313354,-0.572815,-0.290833,321.0,119.0,149.0,8423.0,14980.0,3164.0,3352.0,8660.0,1956.0,-924.0,2721.0,9043.0,0.618918,0.77147,0.147353,17142.0,32767.0,9156.0,7371.0,2737.0,3420.0
2879.0,2815.0,2887.0,3130.0,2987.0,0.705566,0.342896,-0.580994,-0.216797,234.0,108.0,187.0,7912.0,15625.0,4237.0,2413.0,9597.0,3502.0,-3722.0,3925.0,8995.0,0.671182,0.735786,0.089694,13120.0,32767.0,11520.0,5365.0,2481.0,4304.0
2885.0,2819.0,2889.0,3127.0,2991.0,0.713806,0.353577,-0.584045,-0.155762,148.0,83.0,189.0,6866.0,15858.0,4873.0,937.0,10232.0,4318.0,-5774.0,5186.0,7996.0,0.723643,0.686714,0.067655,11258.0,31136.0,11286.0,3404.0,1923.0,4343.0
2887.0,2821.0,2896.0,3141.0,2991.0,0.71814,0.354065,-0.584961,-0.129395,122.0,75.0,186.0,6498.0,15236.0,4969.0,365.0,9829.0,4437.0,-6276.0,5231.0,7047.0,0.748539,0.659918,0.064926,10816.0,25880.0,10262.0,2799.0,1740.0,4278.0
2887.0,2826.0,2893.0,3142.0,2991.0,0.725647,0.349792,-0.586853,-0.081116,93.0,61.0,176.0,5570.0,12910.0,4775.0,-942.0,7971.0,4231.0,-6458.0,4667.0,4337.0,0.794949,0.602858,0.066392,7876.0,18478.0,8216.0,2144.0,1400.0,4046.0
2885.0,2823.0,2895.0,3143.0,2991.0,0.730225,0.341553,-0.590393,-0.038452,71.0,41.0,168.0,4729.0,10428.0,4288.0,-2119.0,5969.0,3718.0,-6010.0,3846.0,1735.0,0.835972,0.544224,0.069484,7318.0,13116.0,6948.0,1633.0,952.0,3852.0
2885.0,2815.0,2891.0,3133.0,2990.0,0.731689,0.335815,-0.592834,-0.018372,62.0,35.0,167.0,4413.0,9174.0,3958.0,-2592.0,4969.0,3372.0,-5579.0,3362.0,574.0,0.855203,0.513208,0.071482,7066.0,11048.0,5976.0,1423.0,809.0,3847.0
2883.0,2819.0,2887.0,3127.0,2983.0,0.733765,0.321899,-0.598022,0.018555,41.0,28.0,156.0,3807.0,7081.0,3372.0,-3480.0,3392.0,2737.0,-4756.0,2578.0,-1356.0,0.889561,0.450205,0.077505,5610.0,8342.0,4888.0,954.0,659.0,3577.0
2893.0,2823.0,2895.0,3143.0,2991.0,0.734619,0.314514,-0.600159,0.034363,30.0,26.0,141.0,3480.0,6127.0,3059.0,-3920.0,2679.0,2389.0,-4288.0,2222.0,-2218.0,0.903391,0.42085,0.081736,5016.0,6558.0,4226.0,700.0,603.0,3238.0
2887.0,2823.0,2895.0,3139.0,2991.0,0.736328,0.299927,-0.603577,0.059692,10.0,20.0,111.0,2838.0,4240.0,2413.0,-4736.0,1211.0,1663.0,-3215.0,1428.0,-3779.0,0.924668,0.369631,0.091481,3812.0,2886.0,2812.0,239.0,461.0,2550.0
2883.0,2815.0,2889.0,3131.0,2975.0,0.737,0.292603,-0.605225,0.069641,2.0,16.0,98.0,2570.0,3408.0,2112.0,-5071.0,565.0,1324.0,-2691.0,1055.0,-4407.0,0.932855,0.346999,0.096105,3652.0,2042.0,2538.0,57.0,386.0,2266.0
2885.0,2815.0,2890.0,3134.0,2991.0,0.738953,0.278564,-0.607666,0.084167,-16.0,15.0,70.0,2219.0,2111.0,1601.0,-5522.0,-423.0,730.0,-1791.0,456.0,-5271.0,0.944965,0.3094,0.106279,3858.0,436.0,1850.0,-346.0,347.0,1617.0
2889.0,2823.0,2896.0,3139.0,2993.0,0.740417,0.271973,-0.608215,0.088745,-21.0,17.0,53.0,2179.0,1440.0,1369.0,-5594.0,-974.0,449.0,-1299.0,71.0,-5545.0,0.948939,0.294794,0.112199,4182.0,-1184.0,1316.0,-479.0,407.0,1225.0
2887.0,2823.0,2895.0,3135.0,2991.0,0.744629,0.261414,-0.606934,0.09375,-24.0,24.0,22.0,1961.0,303.0,957.0,-5845.0,-1953.0,-79.0,-475.0,-573.0,-6117.0,0.952896,0.275512,0.126556,2876.0,-2192.0,772.0,-541.0,557.0,515.0
2896.0,2819.0,2887.0,3130.0,2989.0,0.747009,0.257385,-0.605591,0.094482,-25.0,23.0,11.0,1716.0,-97.0,796.0,-6094.0,-2309.0,-301.0,-211.0,-771.0,-6474.0,0.953401,0.270103,0.133962,1744.0,-2274.0,640.0,-558.0,541.0,252.0
2883.0,2819.0,2893.0,3131.0,2991.0,0.75177,0.251282,-0.602722,0.091858,-32.0,14.0,-10.0,1181.0,-364.0,739.0,-6620.0,-2551.0,-466.0,-172.0,-867.0,-7054.0,0.952381,0.267083,0.14718,974.0,-918.0,1410.0,-728.0,327.0,-208.0
2890.0,2823.0,2895.0,3139.0,2990.0,0.754028,0.248596,-0.601562,0.087952,-41.0,8.0,-20.0,1056.0,-328.0,794.0,-6733.0,-2532.0,-456.0,-268.0,-839.0,-7153.0,0.950919,0.26908,0.152617,1596.0,-328.0,2018.0,-932.0,189.0,-443.0
2890.0,2827.0,2899.0,3143.0,2992.0,0.759338,0.243286,-0.598816,0.074707,-59.0,6.0,-44.0,1217.0,-264.0,1046.0,-6530.0,-2557.0,-300.0,-476.0,-926.0,-6941.0,0.945758,0.280001,0.164407,3224.0,-566.0,2910.0,-1340.0,159.0,-1007.0
2887.0,2823.0,2895.0,3139.0,2991.0,0.766052,0.23938,-0.593933,0.055176,-63.0,9.0,-74.0,1449.0,-560.0,1290.0,-6221.0,-3027.0,-183.0,-515.0,-1339.0,-6769.0,0.936384,0.301214,0.179821,3512.0,-2646.0,3280.0,-1440.0,228.0,-1693.0
2886.0,2819.0,2891.0,3135.0,2991.0,0.769409,0.239319,-0.590576,0.043884,-55.0,10.0,-91.0,1529.0,-816.0,1440.0,-6087.0,-3408.0,-98.0,-536.0,-1653.0,-6756.0,0.929794,0.316434,0.187863,3494.0,-3098.0,3836.0,-1257.0,230.0,-2062.0
2883.0,2815.0,2891.0,3135.0,2991.0,0.77478,0.245117,-0.582397,0.019226,-35.0,3.0,-116.0,1473.0,-786.0,1894.0,-5997.0,-3714.0,244.0,-970.0,-1829.0,-6746.0,0.911885,0.35743,0.201385,2392.0,-168.0,5254.0,-781.0,83.0,-2648.0
2887.0,2827.0,2896.0,3141.0,2991.0,0.776428,0.250549,-0.578186,0.00531,-31.0,-6.0,-126.0,1385.0,-253.0,2194.0,-5991.0,-3389.0,508.0,-1429.0,-1477.0,-6588.0,0.900501,0.382927,0.205795,2306.0,3280.0,6364.0,-694.0,-120.0,-2884.0
2887.0,2827.0,2899.0,3143.0,2991.0,0.777832,0.263489,-0.569763,-0.029541,-49.0,-25.0,-154.0,1435.0,1608.0,2896.0,-5698.0,-2025.0,1160.0,-2519.0,-203.0,-5614.0,0.870793,0.443563,0.211839,3672.0,9560.0,8028.0,-1118.0,-552.0,-3513.0
2887.0,2825.0,2895.0,3143.0,2991.0,0.778259,0.274231,-0.559631,-0.076965,-98.0,-33.0,-181.0,2044.0,4090.0,3413.0,-4746.0,-112.0,1584.0,-3142.0,1391.0,-3637.0,0.828864,0.51299,0.223221,5024.0,16864.0,5704.0,-2237.0,-737.0,-4144.0
2885.0,2821.0,2889.0,3135.0,2991.0,0.778259,0.277039,-0.553406,-0.106445,-127.0,-32.0,-200.0,3000.0,5399.0,4217.0,-3573.0,901.0,2299.0,-3546.0,1709.0,-1834.0,0.802407,0.549031,0.23401,12882.0,18350.0,14282.0,-2889.0,-719.0,-4563.0
2883.0,2821.0,2894.0,3135.0,2986.0,0.782654,0.275391,-0.530457,-0.173767,-202.0,2.0,-225.0,4170.0,8309.0,4717.0,-1848.0,3267.0,2378.0,-2964.0,3029.0,1331.0,0.73462,0.615423,0.285518,10122.0,26848.0,11334.0,-4621.0,55.0,-5143.0
2883.0,2823.0,2898.0,3135.0,2989.0,0.78717,0.256042,-0.500793,-0.252991,-307.0,-28.0,-195.0,3352.0,11575.0,4344.0,-2045.0,6197.0,1335.0,-1103.0,5730.0,3211.0,0.658867,0.65649,0.36729,2962.0,32767.0,6174.0,-7020.0,-639.0,-4456.0
2891.0,2825.0,2894.0,3143.0,2991.0,0.786865,0.235718,-0.488403,-0.294434,-352.0,-65.0,-168.0,3431.0,12850.0,4325.0,-1728.0,7455.0,951.0,270.0,6452.0,4212.0,0.629809,0.658561,0.411747,8894.0,32767.0,9298.0,-8058.0,-1472.0,-3841.0
2886.0,2825.0,2896.0,3143.0,2991.0,0.783691,0.179199,-0.463135,-0.373169,-392.0,-67.0,-139.0,5496.0,14032.0,5192.0,644.0,8899.0,1040.0,3022.0,5433.0,6483.0,0.592166,0.626529,0.506821,18324.0,29956.0,13804.0,-8971.0,-1528.0,-3180.0
2887.0,2827.0,2898.0,3135.0,2991.0,0.778931,0.11322,-0.429199,-0.442993,-419.0,-38.0,-111.0,7645.0,14213.0,6330.0,2989.0,9652.0,1366.0,5387.0,3541.0,7899.0,0.568321,0.556646,0.605945,21108.0,27402.0,15814.0,-9575.0,-861.0,-2522.0
2882.0,2819.0,2897.0,3135.0,2995.0,0.775757,0.078003,-0.408203,-0.474854,-428.0,-23.0,-103.0,8493.0,13638.0,6776.0,3911.0,9470.0,1413.0,6218.0,2330.0,7929.0,0.559253,0.508696,0.65457,21720.0,22918.0,16090.0,-9781.0,-518.0,-2348.0
2883.0,2821.0,2895.0,3135.0,2997.0,0.767151,0.005981,-0.361145,-0.53009,-411.0,-22.0,-69.0,8426.0,10830.0,7478.0,3938.0,7618.0,1423.0,6062.0,647.0,6195.0,0.547764,0.392056,0.739055,13584.0,11554.0,16598.0,-9403.0,-487.0,-1572.0
2881.0,2823.0,2896.0,3135.0,2987.0,0.753662,-0.067932,-0.321838,-0.569092,-356.0,-80.0,-35.0,7832.0,7759.0,8488.0,3224.0,5597.0,2068.0,4670.0,265.0,4911.0,0.562434,0.263915,0.783677,16166.0,7132.0,20450.0,-8153.0,-1821.0,-797.0
2886.0,2821.0,2896.0,3147.0,2991.0,0.744202,-0.103943,-0.307312,-0.583862,-328.0,-95.0,-33.0,8265.0,6577.0,9092.0,3523.0,4904.0,2624.0,4148.0,-34.0,5111.0,0.578781,0.204147,0.789487,19530.0,6704.0,21796.0,-7512.0,-2157.0,-754.0
2893.0,2823.0,2895.0,3143.0,2991.0,0.721436,-0.171021,-0.283447,-0.608215,-303.0,-105.0,-30.0,8985.0,5642.0,9638.0,3930.0,4838.0,3241.0,4454.0,-175.0,5429.0,0.617012,0.098033,0.780805,19496.0,9648.0,19588.0,-6933.0,-2385.0,-684.0
2893.0,2830.0,2897.0,3150.0,2992.0,0.694702,-0.235962,-0.262024,-0.626953,-288.0,-114.0,-20.0,9103.0,4600.0,9116.0,3696.0,4594.0,2960.0,4651.0,-348.0,4666.0,0.659931,0.000707,0.751347,17762.0,4942.0,15758.0,-6595.0,-2598.0,-437.0
2887.0,2821.0,2890.0,3127.0,2989.0,0.681335,-0.266907,-0.252502,-0.633118,-265.0,-118.0,-12.0,8918.0,3746.0,8656.0,3330.0,4106.0,2675.0,4315.0,-366.0,4043.0,0.682044,-0.043979,0.730059,16604.0,2174.0,14558.0,-6048.0,-2697.0,-258.0
2884.0,2823.0,2887.0,3127.0,2961.0,0.657166,-0.321167,-0.239624,-0.638428,-195.0,-123.0,1.0,8294.0,2450.0,7679.0,2354.0,3401.0,2117.0,3743.0,-144.0,2748.0,0.725029,-0.116155,0.678889,14492.0,2076.0,12240.0,-4455.0,-2803.0,23.0
2879.0,2823.0,2889.0,3131.0,2993.0,0.637512,-0.36438,-0.236267,-0.636414,-137.0,-124.0,14.0,7590.0,2296.0,6457.0,1322.0,3638.0,1354.0,3902.0,-83.0,1258.0,0.765039,-0.163866,0.622849,12990.0,5774.0,8954.0,-3134.0,-2829.0,322.0
2886.0,2823.0,2891.0,3143.0,2987.0,0.629028,-0.383362,-0.236694,-0.633545,-126.0,-124.0,21.0,7195.0,2671.0,5731.0,776.0,4165.0,864.0,4304.0,-204.0,361.0,0.783529,-0.182378,0.594065,12004.0,7804.0,6956.0,-2866.0,-2832.0,493.0
2887.0,2819.0,2899.0,3143.0,2987.0,0.612732,-0.420288,-0.237549,-0.625732,-120.0,-118.0,33.0,6629.0,3089.0,4063.0,-64.0,4872.0,-310.0,4629.0,-879.0,-1278.0,0.817083,-0.217764,0.53391,11946.0,5988.0,2886.0,-2744.0,-2691.0,759.0
2886.0,2831.0,2896.0,3143.0,2983.0,0.599121,-0.454407,-0.236145,-0.61554,-99.0,-99.0,40.0,6142.0,2433.0,2329.0,-758.0,4511.0,-1566.0,3763.0,-1681.0,-2528.0,0.84237,-0.253776,0.475585,10670.0,2212.0,-380.0,-2245.0,-2254.0,933.0
2886.0,2828.0,2887.0,3135.0,2991.0,0.593872,-0.468994,-0.235352,-0.609924,-82.0,-88.0,40.0,5830.0,2030.0,1569.0,-1146.0,4241.0,-2112.0,3224.0,-1985.0,-3069.0,0.851639,-0.269952,0.449346,9704.0,1798.0,-1192.0,-1869.0,-2009.0,932.0
2885.0,2821.0,2862.0,3139.0,2999.0,0.585693,-0.49292,-0.234924,-0.59906,-57.0,-72.0,35.0,5042.0,1406.0,340.0,-2050.0,3830.0,-2967.0,2286.0,-2364.0,-4106.0,0.865764,-0.295932,0.40375,7622.0,1018.0,-2534.0,-1298.0,-1638.0,815.0
2887.0,2823.0,2891.0,3135.0,2991.0,0.579956,-0.512329,-0.235229,-0.588135,-39.0,-63.0,34.0,4316.0,756.0,-519.0,-2855.0,3357.0,-3504.0,1379.0,-2519.0,-4842.0,0.875483,-0.317563,0.364437,6842.0,-594.0,-3166.0,-888.0,-1438.0,800.0
2887.0,2815.0,2901.0,3146.0,2983.0,0.578003,-0.520508,-0.235718,-0.582642,-30.0,-57.0,32.0,4072.0,402.0,-817.0,-3129.0,3081.0,-3660.0,951.0,-2548.0,-5028.0,0.87903,-0.327032,0.347067,6806.0,-1272.0,-3280.0,-674.0,-1298.0,750.0
2887.0,2827.0,2891.0,3131.0,2993.0,0.575806,-0.53302,-0.237122,-0.572876,-12.0,-38.0,25.0,3851.0,-314.0,-1215.0,-3388.0,2488.0,-3831.0,193.0,-2572.0,-5069.0,0.883781,-0.342149,0.319402,7276.0,-2886.0,-3408.0,-255.0,-869.0,587.0
2879.0,2815.0,2886.0,3163.0,2975.0,0.576721,-0.53894,-0.238831,-0.565613,13.0,-13.0,16.0,3639.0,-1013.0,-1520.0,-3612.0,1866.0,-4018.0,-533.0,-2568.0,-5078.0,0.88514,-0.351465,0.305028,6542.0,-3840.0,-3818.0,301.0,-292.0,367.0
2893.0,2818.0,2885.0,3125.0,2991.0,0.578369,-0.539062,-0.240112,-0.563232,25.0,-1.0,9.0,3499.0,-1280.0,-1656.0,-3750.0,1612.0,-4142.0,-835.0,-2578.0,-5144.0,0.884982,-0.353076,0.303499,6130.0,-4062.0,-4110.0,583.0,-2.0,218.0
2885.0,2831.0,2896.0,3123.0,2991.0,0.583374,-0.534058,-0.24353,-0.561401,43.0,22.0,-4.0,3203.0,-1505.0,-1776.0,-4036.0,1359.0,-4323.0,-1133.0,-2554.0,-5386.0,0.88378,-0.349674,0.310972,5508.0,-3442.0,-3842.0,993.0,526.0,-82.0
2887.0,2826.0,2901.0,3135.0,2989.0,0.589966,-0.523743,-0.24707,-0.562744,54.0,41.0,-11.0,2995.0,-1586.0,-1807.0,-4222.0,1198.0,-4505.0,-1269.0,-2543.0,-5610.0,0.880992,-0.339906,0.32939,5520.0,-3422.0,-3590.0,1241.0,943.0,-233.0
2885.0,2821.0,2901.0,3149.0,2987.0,0.593872,-0.517029,-0.248718,-0.564148,59.0,48.0,-13.0,2945.0,-1662.0,-1782.0,-4253.0,1069.0,-4581.0,-1348.0,-2525.0,-5659.0,0.878775,-0.33347,0.341767,5686.0,-3828.0,-3342.0,1374.0,1113.0,-285.0
2883.0,2827.0,2893.0,3143.0,2999.0,0.603149,-0.499573,-0.252625,-0.568176,81.0,64.0,-22.0,3005.0,-1884.0,-1714.0,-4141.0,701.0,-4771.0,-1535.0,-2553.0,-5614.0,0.872431,-0.315563,0.373221,6170.0,-4520.0,-3772.0,1868.0,1488.0,-497.0
2895.0,2826.0,2883.0,3139.0,2979.0,0.61499,-0.474548,-0.259521,-0.573853,115.0,82.0,-37.0,3290.0,-2193.0,-1490.0,-3786.0,148.0,-4889.0,-1743.0,-2586.0,-5341.0,0.863848,-0.285831,0.414972,7114.0,-5424.0,-3100.0,2649.0,1886.0,-830.0
2890.0,2823.0,2890.0,3127.0,2998.0,0.622009,-0.458618,-0.264526,-0.576904,135.0,88.0,-43.0,3488.0,-2279.0,-1258.0,-3542.0,-105.0,-4857.0,-1761.0,-2561.0,-5146.0,0.858233,-0.265317,0.439409,8182.0,-4888.0,-1024.0,3100.0,2034.0,-965.0
2891.0,2827.0,2943.0,3131.0,2993.0,0.638245,-0.41864,-0.277771,-0.583313,174.0,103.0,-54.0,3782.0,-1901.0,-685.0,-3123.0,-177.0,-4741.0,-1323.0,-2465.0,-4943.0,0.842968,-0.210335,0.495194,8374.0,-1674.0,750.0,3999.0,2369.0,-1223.0
2885.0,2827.0,2887.0,3135.0,2993.0,0.654663,-0.368164,-0.295532,-0.590393,203.0,113.0,-71.0,4000.0,-725.0,366.0,-2731.0,365.0,-4174.0,-188.0,-1940.0,-4606.0,0.821671,-0.133087,0.554264,8532.0,2968.0,4092.0,4661.0,2591.0,-1618.0
2893.0,2815.0,2897.0,3139.0,2991.0,0.661926,-0.339844,-0.305664,-0.594055,210.0,113.0,-77.0,4207.0,213.0,1134.0,-2415.0,923.0,-3634.0,661.0,-1498.0,-4147.0,0.808426,-0.08674,0.582124,10030.0,6248.0,7242.0,4812.0,2590.0,-1745.0
2895.0,2815.0,2895.0,3229.0,2991.0,0.674072,-0.27948,-0.326782,-0.600647,217.0,113.0,-83.0,4830.0,2085.0,2641.0,-1529.0,1955.0,-2522.0,2105.0,-742.0,-2745.0,0.776287,0.015782,0.630255,11478.0,9084.0,9474.0,4993.0,2603.0,-1889.0
2875.0,2818.0,2893.0,3130.0,2996.0,0.684326,-0.212585,-0.351624,-0.602417,271.0,110.0,-88.0,5233.0,2943.0,3731.0,-807.0,1855.0,-1695.0,2166.0,-325.0,-1471.0,0.737381,0.132692,0.662377,11070.0,7612.0,9958.0,6213.0,2525.0,-2013.0
2879.0,2823.0,2896.0,3127.0,2997.0,0.689392,-0.174316,-0.367859,-0.599182,317.0,105.0,-86.0,5175.0,3479.0,4060.0,-691.0,1836.0,-1416.0,2166.0,-76.0,-1073.0,0.716093,0.200484,0.668574,9790.0,11150.0,10070.0,7265.0,2411.0,-1965.0
2886.0,2819.0,2894.0,3141.0,2987.0,0.696777,-0.089111,-0.407471,-0.583557,352.0,88.0,-67.0,5317.0,7214.0,5278.0,-186.0,4335.0,-63.0,3871.0,1413.0,1357.0,0.671836,0.351383,0.652064,12346.0,29286.0,15574.0,8085.0,2033.0,-1512.0
2883.0,2817.0,2899.0,3139.0,2987.0,0.698486,-0.048157,-0.425598,-0.573303,318.0,85.0,-49.0,5894.0,9644.0,6318.0,571.0,6197.0,1131.0,4595.0,2288.0,3694.0,0.649766,0.42072,0.633107,15848.0,32767.0,19176.0,7286.0,1950.0,-1102.0
2879.0,2815.0,2895.0,3147.0,2978.0,0.703796,0.016968,-0.44751,-0.551453,224.0,97.0,-2.0,7439.0,12284.0,8290.0,2432.0,8045.0,3384.0,3906.0,2811.0,7675.0,0.611198,0.517445,0.598876,18828.0,27808.0,21232.0,5137.0,2239.0,-25.0
2883.0,2819.0,2894.0,3133.0,2995.0,0.715637,0.067383,-0.457458,-0.523499,218.0,108.0,37.0,7896.0,11335.0,9031.0,3110.0,6621.0,4342.0,1507.0,2070.0,8111.0,0.584199,0.575401,0.572379,16082.0,18042.0,19280.0,5003.0,2474.0,855.0
2893.0,2827.0,2895.0,3135.0,2991.0,0.722534,0.091736,-0.462646,-0.505493,236.0,105.0,52.0,7938.0,10497.0,9236.0,3220.0,5579.0,4688.0,228.0,1579.0,7805.0,0.575812,0.600294,0.555122,16016.0,15858.0,19630.0,5407.0,2417.0,1192.0
2885.0,2823.0,2893.0,3135.0,2987.0,0.73584,0.141663,-0.476257,-0.460022,277.0,94.0,86.0,7592.0,9598.0,9333.0,2917.0,4300.0,5186.0,-1620.0,1130.0,7070.0,0.570562,0.64666,0.506191,13896.0,19270.0,19422.0,6346.0,2164.0,1972.0
2890.0,2827.0,2897.0,3139.0,2991.0,0.745789,0.188843,-0.492676,-0.406616,270.0,71.0,115.0,7120.0,10349.0,9528.0,2358.0,4759.0,5897.0,-2804.0,1678.0,7231.0,0.581291,0.682333,0.443146,12976.0,22972.0,19276.0,6207.0,1638.0,2640.0
2886.0,2821.0,2889.0,3135.0,2991.0,0.749634,0.208679,-0.50116,-0.378601,260.0,59.0,129.0,6872.0,10690.0,9462.0,2011.0,5018.0,6098.0,-3322.0,1986.0,7171.0,0.59336,0.692345,0.410582,12144.0,23370.0,18254.0,5965.0,1362.0,2966.0
2883.0,2817.0,2887.0,3135.0,2987.0,0.754517,0.242004,-0.51886,-0.320801,249.0,39.0,148.0,6558.0,10436.0,8779.0,1415.0,4717.0,5957.0,-4128.0,1960.0,6232.0,0.627706,0.698094,0.344427,12798.0,18164.0,14602.0,5715.0,910.0,3409.0
2879.0,2819.0,2895.0,3135.0,2993.0,0.755554,0.256531,-0.528687,-0.28949,255.0,33.0,162.0,6548.0,10085.0,8227.0,1220.0,4401.0,5692.0,-4327.0,1755.0,5607.0,0.650377,0.693744,0.309349,13154.0,18566.0,13396.0,5849.0,778.0,3721.0
2891.0,2823.0,2895.0,3138.0,2986.0,0.755432,0.281189,-0.547913,-0.223755,235.0,25.0,188.0,6342.0,10608.0,7369.0,591.0,5119.0,5390.0,-4810.0,2446.0,5146.0,0.701987,0.670035,0.241469,11188.0,24274.0,12478.0,5401.0,580.0,4327.0
2890.0,2823.0,2896.0,3135.0,2991.0,0.753662,0.293884,-0.564392,-0.16449,169.0,4.0,195.0,5488.0,11019.0,6575.0,-689.0,5869.0,5017.0,-5457.0,3645.0,4124.0,0.75404,0.628652,0.190157,8602.0,20864.0,10352.0,3873.0,98.0,4476.0
2879.0,2815.0,2887.0,3137.0,2991.0,0.752319,0.295166,-0.572632,-0.137878,144.0,-5.0,194.0,5272.0,10336.0,6069.0,-1119.0,5404.0,4676.0,-5457.0,3529.0,3175.0,0.78021,0.602025,0.169965,9606.0,15524.0,8988.0,3317.0,-107.0,4448.0
2887.0,2815.0,2893.0,3135.0,2991.0,0.748291,0.293579,-0.588562,-0.085999,135.0,-5.0,182.0,5060.0,7915.0,4788.0,-1742.0,3486.0,3684.0,-4696.0,2413.0,934.0,0.830337,0.540596,0.134741,9180.0,8888.0,5536.0,3094.0,-95.0,4190.0
2885.0,2818.0,2887.0,3135.0,2979.0,0.008057,-0.000122,0.010254,0.29248,6989.0,4161.0,-19862.0,22352.0,-5476.0,2224.0,22353.0,-5525.0,1523.0,-1886.0,586.0,91.0,-0.000237,0.005996,0.085505,6916.0,8854.0,3870.0,2789.0,-33.0,3436.0
2883.0,2822.0,2893.0,3139.0,2992.0,0.739197,0.293884,-0.605652,-0.019043,102.0,-2.0,134.0,4150.0,5731.0,3131.0,-3093.0,1982.0,2364.0,-3614.0,1853.0,-1606.0,0.884199,0.457543,0.093592,6532.0,8036.0,3660.0,2342.0,-24.0,3092.0
2881.0,2819.0,2896.0,3135.0,2987.0,0.735168,0.288635,-0.61322,0.01239,46.0,0.0,121.0,3518.0,4891.0,2371.0,-3926.0,1538.0,1705.0,-3069.0,1849.0,-2800.0,0.908793,0.409195,0.081277,5148.0,7344.0,2594.0,1061.0,15.0,2779.0
2883.0,2815.0,2886.0,3135.0,2987.0,0.734497,0.282654,-0.616455,0.023987,17.0,1.0,113.0,3241.0,4280.0,2017.0,-4288.0,1120.0,1360.0,-2666.0,1678.0,-3400.0,0.919129,0.385643,0.080151,4874.0,4450.0,1932.0,402.0,36.0,2597.0
2881.0,2818.0,2895.0,3141.0,2989.0,0.735046,0.267029,-0.621765,0.04187,-8.0,8.0,89.0,2805.0,2364.0,1429.0,-4866.0,-425.0,739.0,-1578.0,624.0,-4639.0,0.936413,0.34049,0.08415,4284.0,-1454.0,1092.0,-177.0,205.0,2055.0
2886.0,2819.0,2895.0,3135.0,2991.0,0.73584,0.259949,-0.623352,0.049133,-7.0,12.0,72.0,2600.0,1408.0,1175.0,-5124.0,-1224.0,456.0,-1038.0,35.0,-5184.0,0.942919,0.321307,0.087733,4090.0,-2730.0,996.0,-152.0,280.0,1654.0
2883.0,2823.0,2895.0,3139.0,2991.0,0.738098,0.251465,-0.623291,0.059143,2.0,20.0,25.0,2250.0,13.0,909.0,-5531.0,-2423.0,117.0,-327.0,-900.0,-5963.0,0.949845,0.297485,0.096561,2948.0,-3326.0,1138.0,59.0,461.0,581.0
2883.0,2815.0,2891.0,3133.0,2991.0,0.739441,0.250244,-0.621887,0.061707,5.0,19.0,5.0,1868.0,-376.0,806.0,-5919.0,-2778.0,-23.0,-156.0,-1096.0,-6443.0,0.950581,0.293332,0.101215,1312.0,-2704.0,1142.0,123.0,437.0,137.0
2887.0,2800.0,2887.0,3139.0,2992.0,0.741577,0.251099,-0.61908,0.061218,-5.0,4.0,-19.0,1203.0,-357.0,847.0,-6570.0,-2786.0,-32.0,-337.0,-953.0,-7064.0,0.948934,0.29662,0.107374,1234.0,126.0,2344.0,-109.0,105.0,-421.0
2885.0,2821.0,2899.0,3135.0,2993.0,0.742615,0.251587,-0.61792,0.057922,-18.0,0.0,-28.0,1113.0,-111.0,1006.0,-6643.0,-2585.0,107.0,-594.0,-793.0,-7059.0,0.946898,0.302082,0.109711,1828.0,1444.0,2924.0,-398.0,7.0,-635.0
2883.0,2819.0,2895.0,3143.0,2991.0,0.746094,0.250549,-0.615234,0.044556,-51.0,-2.0,-48.0,1267.0,293.0,1251.0,-6436.0,-2320.0,289.0,-927.0,-586.0,-6758.0,0.940372,0.319042,0.117353,3368.0,958.0,3048.0,-1165.0,-35.0,-1092.0
2879.0,2819.0,2895.0,3135.0,2989.0,0.748596,0.249329,-0.613403,0.035217,-59.0,1.0,-61.0,1398.0,119.0,1292.0,-6269.0,-2585.0,282.0,-863.0,-787.0,-6685.0,0.935944,0.330088,0.123208,3484.0,-1142.0,2740.0,-1344.0,27.0,-1397.0
2885.0,2815.0,2893.0,3134.0,2993.0,0.753662,0.249878,-0.607788,0.013306,-51.0,4.0,-94.0,1548.0,-396.0,1386.0,-6011.0,-3348.0,269.0,-728.0,-1329.0,-6717.0,0.922783,0.360473,0.136338,3560.0,-2140.0,3302.0,-1159.0,97.0,-2131.0
2885.0,2819.0,2884.0,3151.0,2979.0,0.757812,0.258484,-0.598877,-0.013062,-35.0,3.0,-132.0,1491.0,-225.0,1728.0,-5889.0,-3562.0,507.0,-1093.0,-1335.0,-6681.0,0.900921,0.407409,0.148983,2386.0,1796.0,4816.0,-801.0,69.0,-3018.0
2887.0,2823.0,2895.0,3206.0,2975.0,0.759216,0.265625,-0.593384,-0.029602,-39.0,-4.0,-151.0,1386.0,448.0,2032.0,-5866.0,-3143.0,765.0,-1576.0,-862.0,-6452.0,0.885287,0.438464,0.154625,2210.0,5458.0,6072.0,-874.0,-74.0,-3454.0
2885.0,2827.0,2896.0,3131.0,2994.0,0.761169,0.279846,-0.580627,-0.072021,-77.0,-15.0,-177.0,1429.0,2782.0,2980.0,-5481.0,-1393.0,1594.0,-2901.0,675.0,-5064.0,0.843602,0.509656,0.169124,3726.0,13068.0,9348.0,-1750.0,-342.0,-4053.0
2882.0,2811.0,2895.0,3133.0,2989.0,0.761963,0.283447,-0.573792,-0.099304,-122.0,-31.0,-184.0,1533.0,4432.0,3241.0,-5169.0,-40.0,1759.0,-3293.0,1871.0,-3932.0,0.818121,0.545912,0.18087,5390.0,18698.0,10300.0,-2786.0,-689.0,-4195.0
2879.0,2807.0,2885.0,3131.0,2979.0,0.766296,0.279724,-0.554016,-0.166016,-216.0,-20.0,-206.0,2593.0,7201.0,3894.0,-3601.0,2182.0,2013.0,-3209.0,3259.0,-924.0,0.756204,0.612654,0.229592,8464.0,20670.0,9020.0,-4931.0,-436.0,-4700.0
2877.0,2819.0,2887.0,3127.0,2981.0,0.77124,0.261108,-0.526611,-0.244202,-284.0,-14.0,-214.0,3353.0,8814.0,4212.0,-2256.0,3407.0,1681.0,-1968.0,3761.0,1222.0,0.684761,0.659953,0.308949,8014.0,23218.0,8890.0,-6491.0,-302.0,-4899.0
2891.0,2829.0,2897.0,3141.0,2999.0,0.772644,0.246155,-0.510559,-0.28595,-325.0,-22.0,-207.0,3456.0,9996.0,4446.0,-1853.0,4487.0,1517.0,-1139.0,4359.0,2358.0,0.648185,0.672368,0.357483,7408.0,27448.0,11040.0,-7427.0,-483.0,-4740.0
2891.0,2825.0,2899.0,3139.0,2991.0,0.772705,0.197571,-0.47345,-0.373779,-442.0,-56.0,-169.0,3170.0,12819.0,4780.0,-1613.0,7418.0,900.0,1666.0,6043.0,4374.0,0.583978,0.659259,0.473595,7226.0,32767.0,10202.0,-10103.0,-1270.0,-3871.0
2883.0,2826.0,2895.0,3143.0,2993.0,0.7677,0.11499,-0.428223,-0.462646,-556.0,-63.0,-131.0,5417.0,13889.0,4838.0,902.0,9196.0,-132.0,5912.0,4257.0,5684.0,0.551094,0.572787,0.606808,19976.0,25754.0,8948.0,-12714.0,-1433.0,-2982.0
2882.0,2813.0,2893.0,3127.0,2987.0,0.763611,0.066345,-0.401428,-0.501282,-554.0,-46.0,-107.0,7066.0,12291.0,4887.0,2588.0,8164.0,-592.0,6670.0,1691.0,5131.0,0.546555,0.503781,0.668839,23950.0,12934.0,10628.0,-12674.0,-1049.0,-2429.0
2882.0,2811.0,2891.0,3135.0,2997.0,0.753601,-0.023315,-0.34436,-0.559387,-440.0,-7.0,-74.0,9405.0,7381.0,6431.0,4939.0,4512.0,191.0,4458.0,-2321.0,4417.0,0.545105,0.35012,0.761701,23820.0,372.0,19670.0,-10076.0,-144.0,-1688.0
2882.0,2813.0,2894.0,3142.0,2975.0,0.741089,-0.087585,-0.295776,-0.596375,-295.0,-10.0,-55.0,9637.0,3603.0,9192.0,5189.0,1776.0,2558.0,1397.0,-2597.0,5284.0,0.542861,0.22297,0.80972,18094.0,-1302.0,26664.0,-6748.0,-216.0,-1251.0
2893.0,2819.0,2897.0,3147.0,2991.0,0.733948,-0.111389,-0.279419,-0.608948,-235.0,-31.0,-49.0,9502.0,2921.0,10572.0,5030.0,1472.0,3862.0,861.0,-1893.0,6168.0,0.545818,0.176795,0.819014,18474.0,3310.0,29348.0,-5361.0,-705.0,-1108.0
2887.0,2826.0,2898.0,3149.0,2997.0,0.71814,-0.15094,-0.261353,-0.627075,-189.0,-69.0,-30.0,9651.0,4352.0,12521.0,5025.0,3442.0,5821.0,2675.0,-381.0,7980.0,0.564677,0.110983,0.81786,19858.0,15788.0,28938.0,-4312.0,-1569.0,-672.0
2891.0,2822.0,2894.0,3135.0,2987.0,0.700745,-0.194275,-0.249329,-0.639587,-218.0,-96.0,-1.0,9714.0,6246.0,12562.0,4815.0,5863.0,6006.0,5494.0,324.0,7958.0,0.597943,0.046661,0.800208,19416.0,16136.0,23070.0,-4988.0,-2178.0,-18.0
2887.0,2813.0,2881.0,3135.0,2991.0,0.691956,-0.219788,-0.242249,-0.643616,-231.0,-103.0,14.0,9691.0,6312.0,11967.0,4626.0,6249.0,5527.0,6192.0,245.0,7252.0,0.618168,0.007663,0.786053,19134.0,12012.0,20038.0,-5277.0,-2342.0,333.0
2885.0,2815.0,2883.0,3135.0,2994.0,0.675415,-0.273254,-0.226501,-0.646423,-214.0,-106.0,29.0,9073.0,4865.0,10146.0,3672.0,5489.0,4017.0,5889.0,-10.0,5007.0,0.659241,-0.076289,0.748078,15272.0,4582.0,14808.0,-4890.0,-2424.0,687.0
2879.0,2815.0,2885.0,3143.0,2987.0,0.657776,-0.321228,-0.215271,-0.646362,-179.0,-117.0,9.0,7549.0,3480.0,8288.0,1827.0,4662.0,2546.0,5076.0,287.0,2387.0,0.69846,-0.144306,0.700924,10424.0,3090.0,11356.0,-4080.0,-2673.0,210.0
2886.0,2827.0,2896.0,3139.0,2991.0,0.647888,-0.343445,-0.212524,-0.645874,-163.0,-125.0,1.0,6911.0,2834.0,7394.0,1020.0,4230.0,1874.0,4549.0,346.0,1274.0,0.719028,-0.1705,0.673791,10378.0,1878.0,9550.0,-3713.0,-2844.0,37.0
2885.0,2827.0,2895.0,3139.0,2991.0,0.627686,-0.384399,-0.211548,-0.643066,-132.0,-126.0,-5.0,6138.0,1888.0,5785.0,-87.0,3612.0,746.0,3666.0,176.0,-367.0,0.75996,-0.210485,0.615008,10432.0,1142.0,6802.0,-3019.0,-2865.0,-99.0
2885.0,2823.0,2894.0,3139.0,2987.0,0.609375,-0.419189,-0.213562,-0.638245,-102.0,-113.0,-2.0,5559.0,1239.0,4353.0,-956.0,3190.0,-212.0,2904.0,-123.0,-1638.0,0.79537,-0.238278,0.557366,9304.0,1304.0,4790.0,-2317.0,-2574.0,-35.0
2883.0,2815.0,2891.0,3135.0,2987.0,0.60144,-0.434204,-0.215027,-0.635254,-91.0,-106.0,2.0,5226.0,1174.0,3711.0,-1412.0,3214.0,-634.0,2728.0,-280.0,-2281.0,0.810311,-0.249103,0.530508,8402.0,2148.0,3546.0,-2080.0,-2415.0,64.0
2881.0,2814.0,2886.0,3131.0,2991.0,0.58728,-0.461792,-0.217285,-0.628235,-83.0,-95.0,11.0,4591.0,1185.0,2504.0,-2252.0,3391.0,-1420.0,2459.0,-679.0,-3475.0,0.835442,-0.26939,0.479112,7360.0,2200.0,1416.0,-1890.0,-2173.0,271.0
2883.0,2815.0,2893.0,3130.0,2991.0,0.574585,-0.487671,-0.218079,-0.620056,-76.0,-89.0,14.0,3967.0,851.0,1354.0,-3040.0,3226.0,-2162.0,1805.0,-1065.0,-4463.0,0.855376,-0.289975,0.429236,6174.0,270.0,-724.0,-1732.0,-2017.0,338.0
2887.0,2829.0,2896.0,3141.0,2991.0,0.568481,-0.499878,-0.218628,-0.615784,-69.0,-85.0,11.0,3763.0,533.0,810.0,-3316.0,2983.0,-2505.0,1336.0,-1271.0,-4771.0,0.864205,-0.299088,0.404685,6514.0,-1086.0,-1626.0,-1574.0,-1946.0,255.0
2890.0,2827.0,2893.0,3119.0,2987.0,0.557556,-0.520813,-0.22113,-0.607483,-46.0,-69.0,4.0,3808.0,-198.0,-172.0,-3395.0,2358.0,-3119.0,378.0,-1793.0,-4843.0,0.879355,-0.312099,0.35976,8146.0,-2310.0,-3178.0,-1046.0,-1570.0,106.0
2887.0,2825.0,2895.0,3135.0,2991.0,0.549866,-0.534851,-0.224548,-0.601013,-22.0,-41.0,1.0,3999.0,-609.0,-946.0,-3290.0,1998.0,-3625.0,-216.0,-2314.0,-4749.0,0.889848,-0.31828,0.327082,8260.0,-2052.0,-4070.0,-499.0,-928.0,25.0
2886.0,2815.0,2890.0,3134.0,2983.0,0.547424,-0.539124,-0.226135,-0.598816,-12.0,-27.0,0.0,3976.0,-752.0,-1295.0,-3341.0,1864.0,-3887.0,-474.0,-2527.0,-4809.0,0.893255,-0.319432,0.316463,7694.0,-2438.0,-4652.0,-258.0,-602.0,1.0
2887.0,2819.0,2893.0,3135.0,2991.0,0.545715,-0.542847,-0.22937,-0.595764,11.0,-4.0,-2.0,3751.0,-938.0,-1909.0,-3598.0,1676.0,-4411.0,-907.0,-2876.0,-5110.0,0.897159,-0.319179,0.305447,6644.0,-1988.0,-5512.0,273.0,-72.0,-35.0
2891.0,2815.0,2891.0,3135.0,2990.0,0.547119,-0.540527,-0.233398,-0.595032,28.0,17.0,-7.0,3527.0,-717.0,-2294.0,-3834.0,1852.0,-4806.0,-892.0,-3190.0,-5500.0,0.898655,-0.313707,0.306757,6580.0,-574.0,-5370.0,654.0,399.0,-148.0
2887.0,2823.0,2896.0,3139.0,2966.0,0.548462,-0.537354,-0.235474,-0.595825,33.0,28.0,-10.0,3508.0,-509.0,-2322.0,-3853.0,2020.0,-4874.0,-720.0,-3278.0,-5605.0,0.898634,-0.308834,0.311621,7064.0,208.0,-4566.0,768.0,661.0,-225.0
2887.0,2823.0,2896.0,3141.0,2992.0,0.552124,-0.526794,-0.23877,-0.600586,40.0,54.0,-17.0,3626.0,-239.0,-2277.0,-3717.0,2176.0,-4988.0,-462.0,-3403.0,-5624.0,0.896431,-0.294908,0.331021,8066.0,-214.0,-4062.0,926.0,1251.0,-385.0
2887.0,2815.0,2893.0,3131.0,2990.0,0.55481,-0.519287,-0.239807,-0.604248,48.0,69.0,-20.0,3790.0,-331.0,-2180.0,-3530.0,2015.0,-5012.0,-505.0,-3395.0,-5464.0,0.893651,-0.286405,0.345763,8594.0,-1444.0,-3720.0,1109.0,1592.0,-445.0
2887.0,2817.0,2887.0,3133.0,2989.0,0.563782,-0.497986,-0.241943,-0.612915,80.0,96.0,-24.0,3916.0,-654.0,-1902.0,-3319.0,1516.0,-5072.0,-736.0,-3233.0,-5295.0,0.883253,-0.264929,0.386988,7746.0,-1890.0,-2718.0,1854.0,2199.0,-538.0
2891.0,2823.0,2891.0,3134.0,2991.0,0.577271,-0.467285,-0.24762,-0.622192,119.0,110.0,-31.0,3858.0,-393.0,-1270.0,-3247.0,1502.0,-4880.0,-350.0,-2872.0,-5314.0,0.86737,-0.231366,0.440694,7502.0,1504.0,106.0,2747.0,2525.0,-696.0
2887.0,2823.0,2896.0,3141.0,2991.0,0.584717,-0.448364,-0.252319,-0.627197,130.0,114.0,-37.0,3804.0,371.0,-706.0,-3220.0,2073.0,-4560.0,493.0,-2592.0,-5337.0,0.857496,-0.207824,0.470575,7262.0,6028.0,2238.0,2998.0,2629.0,-830.0
2890.0,2827.0,2895.0,3143.0,2992.0,0.596436,-0.407227,-0.262939,-0.639771,116.0,115.0,-50.0,3943.0,2450.0,973.0,-2894.0,3673.0,-3369.0,2766.0,-1733.0,-4749.0,0.834716,-0.149327,0.530071,9114.0,10926.0,7976.0,2673.0,2656.0,-1145.0
2887.0,2821.0,2891.0,3131.0,2987.0,0.600464,-0.386841,-0.266907,-0.646973,100.0,116.0,-51.0,4285.0,3169.0,1968.0,-2441.0,4145.0,-2605.0,3557.0,-1282.0,-3952.0,0.821087,-0.119205,0.558245,11058.0,9824.0,10026.0,2307.0,2665.0,-1165.0
2887.0,2819.0,2893.0,3135.0,2991.0,0.609192,-0.348328,-0.269775,-0.659424,91.0,125.0,-31.0,5560.0,3124.0,4062.0,-895.0,3686.0,-950.0,3543.0,-604.0,-1539.0,0.788081,-0.068604,0.611844,14846.0,4572.0,14024.0,2102.0,2872.0,-704.0
2883.0,2815.0,2891.0,3139.0,2991.0,0.623474,-0.307434,-0.270203,-0.666199,129.0,132.0,-12.0,6347.0,2021.0,5776.0,231.0,2212.0,328.0,2221.0,-79.0,338.0,0.746553,-0.023337,0.665016,13938.0,112.0,15846.0,2958.0,3036.0,-270.0
2886.0,2827.0,2899.0,3147.0,2992.0,0.633179,-0.28418,-0.272888,-0.66626,167.0,128.0,-4.0,6416.0,1403.0,6320.0,482.0,1372.0,670.0,1374.0,85.0,816.0,0.724249,0.003756,0.689591,13078.0,-656.0,15660.0,3845.0,2948.0,-75.0
2893.0,2827.0,2895.0,3142.0,2991.0,0.656677,-0.228271,-0.289612,-0.657898,262.0,118.0,8.0,6468.0,1281.0,7155.0,891.0,615.0,1190.0,487.0,176.0,1522.0,0.680722,0.081269,0.728072,13146.0,4324.0,16624.0,6014.0,2713.0,201.0
2887.0,2819.0,2895.0,3135.0,2992.0,0.66925,-0.19519,-0.303162,-0.649719,296.0,115.0,13.0,6614.0,1923.0,7663.0,1212.0,836.0,1600.0,548.0,204.0,2094.0,0.65942,0.132677,0.740025,14382.0,8462.0,18848.0,6796.0,2656.0,308.0
2885.0,2819.0,2890.0,3135.0,2991.0,0.6922,-0.124695,-0.331421,-0.628906,296.0,115.0,20.0,6766.0,4143.0,9248.0,1722.0,2142.0,3109.0,1084.0,856.0,3912.0,0.615662,0.244238,0.749275,13300.0,13576.0,23020.0,6794.0,2646.0,466.0
2886.0,2825.0,2897.0,3143.0,2995.0,0.702271,-0.090881,-0.343689,-0.61676,290.0,109.0,26.0,6643.0,4562.0,9808.0,1770.0,2134.0,3686.0,620.0,1085.0,4439.0,0.594829,0.296301,0.747196,12370.0,10930.0,22538.0,6645.0,2515.0,618.0
2893.0,2825.0,2895.0,3143.0,2994.0,0.720703,-0.024536,-0.369385,-0.586121,325.0,96.0,39.0,6252.0,4238.0,10023.0,1654.0,980.0,4076.0,-1141.0,847.0,4276.0,0.561196,0.397642,0.725903,11516.0,6470.0,19270.0,7454.0,2209.0,905.0
2886.0,2823.0,2871.0,3135.0,2991.0,0.729004,0.010681,-0.38501,-0.565857,360.0,93.0,50.0,6240.0,4151.0,9828.0,1740.0,453.0,4066.0,-1851.0,421.0,4019.0,0.549259,0.451294,0.703294,12598.0,8500.0,18308.0,8266.0,2147.0,1168.0
2887.0,2819.0,2895.0,3138.0,2991.0,0.742432,0.08728,-0.42041,-0.514282,411.0,93.0,73.0,6309.0,5072.0,9139.0,1930.0,467.0,3967.0,-2283.0,-201.0,3798.0,0.534478,0.562018,0.631328,12640.0,14512.0,16080.0,9422.0,2147.0,1694.0
2887.0,2815.0,2895.0,3131.0,2991.0,0.74884,0.166443,-0.456848,-0.450378,434.0,82.0,99.0,6141.0,6362.0,8307.0,1764.0,948.0,3988.0,-2519.0,-300.0,3671.0,0.534288,0.660787,0.527189,12476.0,14436.0,13046.0,9955.0,1900.0,2289.0
2891.0,2826.0,2895.0,3145.0,2995.0,0.749756,0.204407,-0.476318,-0.411316,458.0,76.0,135.0,6360.0,6551.0,7502.0,1886.0,830.0,3711.0,-2532.0,-734.0,3326.0,0.546093,0.698345,0.462653,14274.0,14178.0,9654.0,10500.0,1749.0,3103.0
2887.0,2827.0,2897.0,3143.0,2992.0,0.743896,0.279907,-0.519592,-0.313477,516.0,60.0,206.0,6199.0,8266.0,4858.0,1303.0,2185.0,2373.0,-1524.0,211.0,3120.0,0.597557,0.742204,0.303325,11230.0,25392.0,1252.0,11825.0,1375.0,4722.0
2887.0,2821.0,2895.0,3135.0,2991.0,0.734497,0.315918,-0.54187,-0.259033,514.0,42.0,225.0,6215.0,10262.0,3804.0,1034.0,4160.0,2057.0,-1527.0,1646.0,4190.0,0.632338,0.744806,0.213157,13134.0,32767.0,2100.0,11784.0,972.0,5171.0
2893.0,2823.0,2891.0,3135.0,2991.0,0.710571,0.370239,-0.578125,-0.153992,417.0,29.0,242.0,6821.0,13078.0,3061.0,1024.0,7309.0,2591.0,-3662.0,3393.0,6020.0,0.70757,0.704216,0.057319,15332.0,32767.0,5928.0,9559.0,686.0,5551.0
2887.0,2823.0,2895.0,3135.0,2991.0,0.693115,0.395447,-0.59845,-0.071289,252.0,31.0,220.0,6477.0,14599.0,3210.0,142.0,9409.0,3447.0,-6538.0,4694.0,5970.0,0.773207,0.633506,-0.029029,9938.0,32767.0,6336.0,5785.0,723.0,5048.0
2885.0,2823.0,2899.0,3147.0,2991.0,0.688293,0.398499,-0.604736,-0.041748,173.0,26.0,203.0,6147.0,15065.0,3414.0,-400.0,10157.0,3815.0,-7720.0,5211.0,5577.0,0.799199,0.599061,-0.049016,10752.0,32670.0,8028.0,3973.0,610.0,4658.0
2894.0,2827.0,2896.0,3139.0,2991.0,0.686401,0.390442,-0.613464,0.002686,71.0,34.0,179.0,5778.0,12633.0,3011.0,-1138.0,8269.0,3483.0,-7199.0,4409.0,3243.0,0.844263,0.532705,-0.057629,9838.0,14510.0,3962.0,1630.0,782.0,4114.0
2887.0,2823.0,2899.0,3135.0,2991.0,0.687073,0.382324,-0.617432,0.022095,50.0,36.0,173.0,5423.0,10786.0,2651.0,-1665.0,6705.0,3100.0,-6340.0,3760.0,1728.0,0.865336,0.498085,-0.054836,8710.0,10558.0,3186.0,1156.0,832.0,3977.0
2891.0,2821.0,2891.0,3135.0,2991.0,0.690247,0.363647,-0.623047,0.055481,18.0,42.0,144.0,4645.0,7505.0,2176.0,-2731.0,3958.0,2511.0,-4748.0,2480.0,-848.0,0.900463,0.432878,-0.040908,6416.0,5636.0,2900.0,426.0,978.0,3320.0
2890.0,2821.0,2894.0,3133.0,2991.0,0.695496,0.343994,-0.625732,0.079956,-11.0,39.0,114.0,3629.0,4850.0,1774.0,-3951.0,1749.0,1935.0,-3331.0,1454.0,-3032.0,0.925397,0.378431,-0.019766,4388.0,2850.0,2502.0,-238.0,907.0,2618.0
2891.0,2821.0,2895.0,3145.0,2995.0,0.69873,0.333557,-0.626648,0.088318,-29.0,35.0,99.0,3245.0,3857.0,1688.0,-4411.0,945.0,1752.0,-2820.0,1008.0,-3800.0,0.934634,0.355445,-0.007924,4298.0,1912.0,2848.0,-658.0,814.0,2288.0
2895.0,2826.0,2895.0,3147.0,2994.0,0.706055,0.310486,-0.628906,0.097656,-64.0,25.0,76.0,2731.0,1962.0,1428.0,-5040.0,-623.0,1295.0,-1699.0,55.0,-4957.0,0.948726,0.315607,0.016125,4760.0,-1948.0,2456.0,-1454.0,581.0,1756.0
2887.0,2823.0,2895.0,3135.0,2989.0,0.710022,0.298157,-0.630005,0.100037,-70.0,26.0,66.0,2694.0,918.0,1338.0,-5123.0,-1517.0,1105.0,-1090.0,-627.0,-5308.0,0.954288,0.297349,0.028335,5222.0,-4564.0,2026.0,-1581.0,604.0,1521.0
2891.0,2823.0,2891.0,3135.0,2990.0,0.717957,0.276794,-0.630127,0.104126,-51.0,32.0,37.0,2604.0,-1073.0,1153.0,-5280.0,-3253.0,721.0,37.0,-2012.0,-5909.0,0.962451,0.266228,0.052629,4672.0,-7036.0,1918.0,-1150.0,755.0,860.0
2894.0,2827.0,2887.0,3135.0,2991.0,0.725342,0.265137,-0.626465,0.105469,-31.0,29.0,0.0,2021.0,-1701.0,1180.0,-5882.0,-3769.0,569.0,209.0,-2395.0,-6583.0,0.96473,0.252485,0.074489,1470.0,-3446.0,2780.0,-698.0,680.0,4.0
2887.0,2827.0,2893.0,3143.0,2991.0,0.728516,0.262207,-0.624329,0.103394,-32.0,19.0,-14.0,1568.0,-1444.0,1266.0,-6328.0,-3516.0,586.0,-79.0,-2138.0,-6940.0,0.963887,0.252941,0.082887,532.0,-936.0,3140.0,-730.0,441.0,-315.0
2895.0,2823.0,2891.0,3151.0,2993.0,0.733948,0.257629,-0.621765,0.091553,-60.0,-2.0,-37.0,1223.0,-283.0,1511.0,-6640.0,-2448.0,740.0,-922.0,-1211.0,-6950.0,0.95986,0.264324,0.094096,2564.0,3530.0,4006.0,-1372.0,-45.0,-825.0
2881.0,2823.0,2899.0,3135.0,2992.0,0.737122,0.254395,-0.620789,0.081177,-84.0,-5.0,-47.0,1333.0,397.0,1585.0,-6502.0,-1849.0,767.0,-1270.0,-674.0,-6649.0,0.956495,0.274252,0.099843,3492.0,4662.0,3370.0,-1912.0,-108.0,-1076.0
2885.0,2823.0,2895.0,3133.0,2990.0,0.744934,0.24408,-0.61853,0.053894,-113.0,0.0,-65.0,1859.0,331.0,1439.0,-5905.0,-2101.0,491.0,-988.0,-740.0,-6164.0,0.947837,0.296976,0.115677,5256.0,-1962.0,2032.0,-2583.0,6.0,-1488.0
2887.0,2823.0,2896.0,3135.0,2991.0,0.748962,0.239197,-0.616638,0.0401,-102.0,5.0,-76.0,1982.0,-115.0,1307.0,-5741.0,-2645.0,282.0,-672.0,-1100.0,-6194.0,0.942861,0.308844,0.125095,4440.0,-2730.0,1918.0,-2327.0,117.0,-1724.0
2889.0,2815.0,2897.0,3151.0,2995.0,0.755615,0.237305,-0.610352,0.012024,-68.0,5.0,-108.0,1972.0,-369.0,1377.0,-5630.0,-3186.0,211.0,-645.0,-1376.0,-6290.0,0.928089,0.343944,0.142256,3964.0,-178.0,3756.0,-1551.0,127.0,-2468.0
2881.0,2831.0,2891.0,3143.0,2991.0,0.760193,0.245422,-0.601196,-0.020386,-59.0,-5.0,-140.0,1810.0,848.0,1877.0,-5595.0,-2409.0,593.0,-1457.0,-499.0,-5923.0,0.904044,0.397648,0.15664,3776.0,7254.0,7558.0,-1333.0,-105.0,-3186.0
2891.0,2822.0,2891.0,3139.0,2997.0,0.762207,0.250793,-0.595398,-0.040161,-70.0,-7.0,-153.0,1759.0,1980.0,2256.0,-5511.0,-1543.0,902.0,-2056.0,337.0,-5405.0,0.887489,0.430137,0.165176,2832.0,11214.0,5886.0,-1592.0,-140.0,-3496.0
2882.0,2821.0,2895.0,3127.0,2992.0,0.765137,0.257507,-0.583008,-0.091431,-133.0,-20.0,-180.0,2314.0,4783.0,3296.0,-4608.0,681.0,1759.0,-3159.0,2101.0,-3223.0,0.845073,0.500666,0.187586,7240.0,17102.0,9474.0,-3039.0,-449.0,-4107.0
2889.0,2815.0,2895.0,3139.0,2995.0,0.76886,0.254578,-0.565552,-0.155518,-188.0,-15.0,-199.0,3468.0,6252.0,4044.0,-3007.0,1604.0,2154.0,-3060.0,2439.0,-970.0,0.790478,0.567376,0.230673,11114.0,15028.0,10522.0,-4299.0,-325.0,-4558.0
2885.0,2815.0,2896.0,3139.0,2992.0,0.770935,0.250305,-0.55426,-0.189148,-198.0,-4.0,-205.0,4002.0,6374.0,4343.0,-2223.0,1494.0,2210.0,-2774.0,2075.0,-224.0,0.759908,0.595612,0.260261,10612.0,13066.0,10184.0,-4530.0,-70.0,-4684.0
2895.0,2827.0,2883.0,3130.0,2993.0,0.772949,0.242493,-0.527344,-0.256226,-193.0,6.0,-217.0,4162.0,6792.0,5075.0,-1498.0,1507.0,2402.0,-2513.0,1857.0,720.0,0.690954,0.645107,0.326208,7322.0,16088.0,13120.0,-4409.0,146.0,-4955.0
2890.0,2821.0,2903.0,3143.0,2991.0,0.769043,0.23291,-0.499451,-0.323853,-210.0,-33.0,-198.0,3176.0,9184.0,6003.0,-1881.0,3599.0,2786.0,-2153.0,3731.0,2386.0,0.617341,0.681733,0.392609,4074.0,29890.0,15920.0,-4790.0,-734.0,-4526.0
2891.0,2819.0,2882.0,3131.0,2989.0,0.764038,0.222473,-0.487061,-0.359863,-251.0,-62.0,-190.0,3404.0,11093.0,6811.0,-1381.0,5436.0,3316.0,-1555.0,4583.0,4361.0,0.584146,0.690506,0.426533,9646.0,32767.0,18600.0,-5727.0,-1411.0,-4333.0
2883.0,2819.0,2895.0,3141.0,2992.0,0.753296,0.180237,-0.459351,-0.434814,-356.0,-73.0,-165.0,6274.0,13527.0,8269.0,1888.0,8030.0,4066.0,856.0,3442.0,8484.0,0.535315,0.671008,0.51303,22624.0,32767.0,20332.0,-8134.0,-1658.0,-3769.0
2891.0,2825.0,2894.0,3135.0,2991.0,0.744324,0.114258,-0.418579,-0.507629,-454.0,-49.0,-132.0,8980.0,14841.0,8764.0,4825.0,9966.0,3656.0,4523.0,1393.0,10656.0,0.507115,0.595056,0.623442,24256.0,32767.0,17746.0,-10378.0,-1111.0,-3014.0
2886.0,2813.0,2887.0,3131.0,2999.0,0.739014,0.075867,-0.393127,-0.541809,-478.0,-43.0,-112.0,9389.0,15010.0,8628.0,5302.0,10601.0,3062.0,6376.0,653.0,10429.0,0.498843,0.538133,0.679393,19684.0,29408.0,16076.0,-10947.0,-968.0,-2549.0
2879.0,2823.0,2895.0,3133.0,2991.0,0.724915,-0.008301,-0.342712,-0.597473,-464.0,-98.0,-45.0,7860.0,13397.0,8184.0,3708.0,10140.0,1917.0,8097.0,516.0,7376.0,0.506793,0.397488,0.764955,10540.0,20638.0,15772.0,-10622.0,-2240.0,-1024.0
2887.0,2815.0,2919.0,3142.0,2991.0,0.704224,-0.099365,-0.305542,-0.633179,-402.0,-154.0,-11.0,7756.0,10631.0,8335.0,3199.0,8607.0,1833.0,7677.0,-156.0,5359.0,0.556172,0.246975,0.793617,17796.0,11628.0,17266.0,-9186.0,-3519.0,-233.0
2889.0,2821.0,2895.0,3131.0,2983.0,0.692261,-0.142395,-0.292053,-0.644348,-352.0,-157.0,-4.0,8363.0,8852.0,8408.0,3547.0,7383.0,1945.0,6767.0,-800.0,4942.0,0.587858,0.179219,0.788838,20750.0,6768.0,17278.0,-8043.0,-3575.0,-79.0
2879.0,2815.0,2895.0,3133.0,2989.0,0.670044,-0.212036,-0.274353,-0.656372,-232.0,-134.0,3.0,9001.0,6028.0,8183.0,3708.0,5405.0,1960.0,5162.0,-1305.0,4294.0,0.646006,0.076008,0.759554,17558.0,6260.0,14824.0,-5305.0,-3049.0,73.0
2881.0,2829.0,2898.0,3135.0,2991.0,0.650818,-0.261597,-0.268494,-0.660278,-167.0,-133.0,13.0,8040.0,5727.0,7290.0,2347.0,5611.0,1399.0,5567.0,-764.0,2715.0,0.694934,0.014058,0.71901,12362.0,13172.0,11002.0,-3817.0,-3036.0,302.0
2886.0,2815.0,2893.0,3127.0,2991.0,0.641724,-0.28418,-0.267578,-0.660217,-165.0,-136.0,24.0,7458.0,6114.0,6642.0,1570.0,6207.0,945.0,6210.0,-619.0,1714.0,0.718663,-0.01141,0.69534,11110.0,14770.0,8606.0,-3762.0,-3112.0,563.0
2879.0,2814.0,2887.0,3141.0,2981.0,0.623718,-0.331604,-0.263977,-0.656738,-173.0,-138.0,43.0,6529.0,6143.0,4837.0,263.0,6691.0,-411.0,6608.0,-1034.0,-509.0,0.764849,-0.066927,0.640685,10612.0,10328.0,3456.0,-3953.0,-3147.0,989.0
2883.0,2815.0,2887.0,3115.0,2995.0,0.606873,-0.379578,-0.257935,-0.648926,-152.0,-129.0,49.0,5900.0,4566.0,2790.0,-700.0,5597.0,-1951.0,5136.0,-1867.0,-2398.0,0.805702,-0.12595,0.57879,10332.0,3074.0,-390.0,-3464.0,-2952.0,1127.0
2895.0,2827.0,2897.0,3131.0,2987.0,0.599792,-0.401123,-0.255493,-0.643494,-128.0,-120.0,49.0,5699.0,3649.0,1936.0,-1040.0,4897.0,-2550.0,4206.0,-2210.0,-2998.0,0.822726,-0.152365,0.547659,10222.0,2172.0,-1002.0,-2922.0,-2734.0,1137.0
2887.0,2829.0,2891.0,3111.0,2993.0,0.588562,-0.436584,-0.252869,-0.631714,-90.0,-97.0,46.0,5318.0,2492.0,517.0,-1639.0,4084.0,-3504.0,2927.0,-2795.0,-3906.0,0.849251,-0.194433,0.490919,9378.0,2190.0,-2960.0,-2042.0,-2203.0,1060.0
2887.0,2826.0,2893.0,3135.0,2999.0,0.580078,-0.464172,-0.251343,-0.620422,-68.0,-76.0,41.0,4856.0,1738.0,-539.0,-2251.0,3594.0,-4166.0,2007.0,-3169.0,-4612.0,0.867563,-0.226635,0.442785,8290.0,1316.0,-3914.0,-1543.0,-1726.0,944.0
2886.0,2819.0,2890.0,3135.0,2987.0,0.576477,-0.475769,-0.250549,-0.615295,-60.0,-66.0,37.0,4647.0,1336.0,-960.0,-2515.0,3303.0,-4415.0,1526.0,-3291.0,-4854.0,0.874349,-0.240216,0.421783,8054.0,112.0,-4348.0,-1362.0,-1508.0,867.0
2887.0,2803.0,2897.0,3141.0,2989.0,0.571411,-0.494812,-0.248962,-0.605591,-36.0,-48.0,32.0,4262.0,282.0,-1618.0,-2978.0,2444.0,-4783.0,363.0,-3364.0,-5125.0,0.883827,-0.263943,0.38643,7634.0,-2656.0,-4798.0,-823.0,-1092.0,751.0
2885.0,2820.0,2885.0,3135.0,2983.0,0.57019,-0.506531,-0.24884,-0.597046,-5.0,-24.0,23.0,4078.0,-676.0,-1982.0,-3201.0,1621.0,-4956.0,-601.0,-3329.0,-5098.0,0.888617,-0.2805,0.363086,7684.0,-3804.0,-4748.0,-93.0,-548.0,543.0
2891.0,2827.0,2897.0,3138.0,2990.0,0.571106,-0.509033,-0.249634,-0.593689,11.0,-12.0,18.0,3954.0,-982.0,-2107.0,-3333.0,1352.0,-5033.0,-914.0,-3306.0,-5147.0,0.889549,-0.285014,0.357197,7042.0,-3580.0,-4920.0,268.0,-253.0,423.0
2885.0,2822.0,2891.0,3135.0,2994.0,0.574768,-0.508545,-0.252502,-0.589355,28.0,8.0,7.0,3569.0,-825.0,-2129.0,-3719.0,1525.0,-5039.0,-794.0,-3204.0,-5536.0,0.889688,-0.286963,0.355323,6026.0,-268.0,-4070.0,643.0,195.0,176.0
2887.0,2821.0,2891.0,3139.0,2991.0,0.576416,-0.506531,-0.253967,-0.588806,26.0,17.0,1.0,3457.0,-659.0,-2056.0,-3827.0,1674.0,-4987.0,-627.0,-3136.0,-5664.0,0.889279,-0.28487,0.357875,6406.0,-568.0,-3606.0,611.0,398.0,44.0
