flex_1,flex_2,flex_3,flex_4,flex_5,Qw,Qx,Qy,Qz,GYRx,GYRy,GYRz,ACCx,ACCy,ACCz,ACCx_real,ACCy_real,ACCz_real,ACCx_world,ACCy_world,ACCz_world,GRAx,GRAy,GRAz,ACCx_raw,ACCy_raw,ACCz_raw,GYRx_raw,GYRy_raw,GYRz_raw
2815.0,2771.0,2908.0,3151.0,3031.0,1.0,0.0,0.0,0.0,0.0,0.0,0.0,0.0,0.0,0.0,0.0,0.0,0.0,0.0,0.0,0.0,0.0,0.0,0.0,0.0,0.0,0.0,0.0,0.0,0.0
2819.0,2765.0,2897.0,3147.0,3047.0,0.890686,-0.028259,-0.453735,0.005005,0.0,-2.0,-1.0,7477.0,-531.0,2409.0,857.0,-81.0,-2397.0,2440.0,-161.0,-709.0,0.807989,-0.054882,0.586672,15302.0,-762.0,5014.0,2.0,-38.0,-3.0
2821.0,2770.0,2911.0,3155.0,3051.0,0.889587,-0.028625,-0.455811,0.004639,-3.0,1.0,-1.0,7562.0,-461.0,2442.0,920.0,-9.0,-2332.0,2429.0,-86.0,-612.0,0.810701,-0.055158,0.582805,15226.0,-740.0,4932.0,-65.0,24.0,-15.0
2823.0,2770.0,2871.0,3139.0,3047.0,0.889099,-0.028992,-0.456665,0.004333,-4.0,1.0,-2.0,7548.0,-483.0,2413.0,897.0,-28.0,-2347.0,2428.0,-108.0,-634.0,0.81179,-0.055511,0.581133,14962.0,-1172.0,4638.0,-91.0,40.0,-27.0
2815.0,2771.0,2879.0,3147.0,3037.0,0.888184,-0.029846,-0.458435,0.003662,-3.0,1.0,-2.0,7470.0,-596.0,2356.0,800.0,-134.0,-2377.0,2397.0,-224.0,-714.0,0.81413,-0.056375,0.57783,14550.0,-1692.0,4504.0,-65.0,26.0,-34.0
2815.0,2768.0,2896.0,3151.0,3047.0,0.887695,-0.030151,-0.459473,0.00354,-1.0,-1.0,-1.0,7421.0,-668.0,2339.0,740.0,-202.0,-2379.0,2364.0,-296.0,-755.0,0.81553,-0.056784,0.575991,14604.0,-1686.0,4632.0,-16.0,-12.0,-18.0
2815.0,2768.0,2901.0,3143.0,3047.0,0.886475,-0.03009,-0.461731,0.003784,2.0,-2.0,-1.0,7454.0,-617.0,2393.0,749.0,-151.0,-2290.0,2301.0,-239.0,-687.0,0.818398,-0.056843,0.571751,15098.0,-818.0,5046.0,49.0,-28.0,-2.0
2811.0,2763.0,2895.0,3135.0,3031.0,0.885986,-0.029907,-0.462769,0.003784,0.0,-1.0,-1.0,7469.0,-538.0,2426.0,753.0,-75.0,-2242.0,2267.0,-159.0,-656.0,0.819787,-0.056497,0.569937,15046.0,-636.0,5052.0,21.0,-19.0,-7.0
2823.0,2766.0,2895.0,3147.0,3054.0,0.884888,-0.030029,-0.464844,0.003662,-1.0,-1.0,-1.0,7540.0,-500.0,2447.0,802.0,-36.0,-2190.0,2256.0,-117.0,-578.0,0.822449,-0.05655,0.566058,15320.0,-902.0,4886.0,-18.0,-8.0,-2.0
2823.0,2767.0,2896.0,3149.0,3039.0,0.884399,-0.030151,-0.465759,0.00354,-1.0,0.0,-1.0,7567.0,-492.0,2452.0,819.0,-28.0,-2171.0,2252.0,-108.0,-549.0,0.823621,-0.056629,0.564334,15274.0,-938.0,4872.0,-22.0,21.0,-17.0
2815.0,2768.0,2907.0,3147.0,3052.0,0.883484,-0.030396,-0.467407,0.003235,-1.0,0.0,-1.0,7473.0,-574.0,2376.0,708.0,-109.0,-2221.0,2230.0,-197.0,-655.0,0.825697,-0.056732,0.561161,14404.0,-1380.0,4492.0,-5.0,15.0,-20.0
2821.0,2763.0,2877.0,3143.0,3035.0,0.882935,-0.030457,-0.468445,0.003235,0.0,-2.0,-1.0,7450.0,-564.0,2368.0,675.0,-98.0,-2213.0,2207.0,-187.0,-673.0,0.827015,-0.056813,0.559216,14940.0,-998.0,4822.0,10.0,-27.0,-15.0
2815.0,2765.0,2891.0,3135.0,3039.0,0.881897,-0.030579,-0.470459,0.002991,-2.0,-1.0,-1.0,7462.0,-535.0,2378.0,665.0,-70.0,-2172.0,2171.0,-158.0,-650.0,0.82961,-0.056748,0.555484,14886.0,-1202.0,4664.0,-31.0,-17.0,-12.0
2815.0,2769.0,2913.0,3139.0,3039.0,0.881348,-0.030823,-0.471497,0.00293,-1.0,-2.0,-1.0,7434.0,-568.0,2356.0,627.0,-100.0,-2178.0,2156.0,-190.0,-678.0,0.830924,-0.057094,0.553523,14686.0,-1314.0,4604.0,-20.0,-26.0,-4.0
2815.0,2771.0,2887.0,3149.0,3071.0,0.880188,-0.030884,-0.473572,0.00293,0.0,-1.0,-1.0,7513.0,-528.0,2387.0,685.0,-59.0,-2114.0,2139.0,-144.0,-587.0,0.833483,-0.057142,0.549515,15412.0,-734.0,4894.0,3.0,-21.0,-9.0
2815.0,2764.0,2894.0,3139.0,3037.0,0.8797,-0.030945,-0.474487,0.002747,-2.0,0.0,-1.0,7556.0,-483.0,2405.0,718.0,-15.0,-2082.0,2132.0,-98.0,-540.0,0.834643,-0.057051,0.547783,15276.0,-760.0,4870.0,-27.0,13.0,-15.0
2818.0,2774.0,2895.0,3143.0,3031.0,0.878784,-0.031372,-0.476135,0.002441,-2.0,0.0,-1.0,7493.0,-573.0,2374.0,638.0,-102.0,-2087.0,2092.0,-190.0,-596.0,0.836687,-0.057463,0.544579,14698.0,-1534.0,4682.0,-23.0,7.0,-16.0
2815.0,2768.0,2910.0,3151.0,3043.0,0.878296,-0.031433,-0.47699,0.002441,0.0,-1.0,-1.0,7452.0,-579.0,2384.0,589.0,-107.0,-2063.0,2047.0,-195.0,-620.0,0.837723,-0.057544,0.542902,14696.0,-1050.0,4904.0,18.0,-18.0,-16.0
2815.0,2768.0,2896.0,3150.0,3043.0,0.877258,-0.031433,-0.479004,0.002258,-1.0,-2.0,-1.0,7458.0,-501.0,2408.0,574.0,-31.0,-2008.0,1997.0,-117.0,-598.0,0.840278,-0.057313,0.539154,14824.0,-886.0,4728.0,-22.0,-35.0,-10.0
2815.0,2767.0,2893.0,3147.0,3039.0,0.876648,-0.031616,-0.480042,0.002136,-2.0,-3.0,-1.0,7432.0,-483.0,2404.0,538.0,-12.0,-1995.0,1969.0,-100.0,-618.0,0.84152,-0.057484,0.537077,14704.0,-846.0,4788.0,-45.0,-56.0,-7.0
2815.0,2757.0,2887.0,3139.0,3039.0,0.875305,-0.032166,-0.482422,0.001587,-4.0,-4.0,-2.0,7482.0,-475.0,2376.0,564.0,-1.0,-1985.0,1978.0,-90.0,-580.0,0.844431,-0.05784,0.532396,15382.0,-952.0,4674.0,-74.0,-71.0,-36.0
2815.0,2770.0,2896.0,3147.0,3047.0,0.874695,-0.032471,-0.483521,0.001099,-5.0,-2.0,-3.0,7538.0,-457.0,2373.0,609.0,17.0,-1970.0,1991.0,-72.0,-530.0,0.845794,-0.057866,0.530246,15380.0,-740.0,4804.0,-93.0,-35.0,-55.0
2815.0,2768.0,2899.0,3147.0,3039.0,0.873718,-0.033447,-0.485229,-0.000183,-6.0,1.0,-4.0,7576.0,-577.0,2311.0,629.0,-99.0,-2004.0,2028.0,-196.0,-516.0,0.84792,-0.058269,0.526817,14934.0,-1882.0,4242.0,-126.0,36.0,-69.0
2815.0,2766.0,2899.0,3143.0,3039.0,0.873291,-0.033875,-0.485962,-0.000549,-3.0,1.0,-3.0,7519.0,-688.0,2257.0,565.0,-207.0,-2046.0,2027.0,-310.0,-583.0,0.84881,-0.058631,0.525331,14724.0,-1992.0,4292.0,-60.0,23.0,-56.0
2822.0,2800.0,2882.0,3109.0,3037.0,0.872437,-0.033875,-0.487549,-0.000732,1.0,0.0,-2.0,7481.0,-650.0,2288.0,511.0,-171.0,-1990.0,1955.0,-273.0,-594.0,0.85076,-0.058393,0.522295,14950.0,-768.0,4860.0,36.0,3.0,-36.0
2815.0,2765.0,2891.0,3147.0,3043.0,0.872009,-0.033691,-0.488342,-0.000854,0.0,-1.0,-2.0,7469.0,-553.0,2338.0,491.0,-78.0,-1928.0,1896.0,-177.0,-581.0,0.851736,-0.057924,0.520788,14876.0,-572.0,4980.0,3.0,0.0,-23.0
2819.0,2769.0,2899.0,3147.0,3047.0,0.871033,-0.034058,-0.48999,-0.00116,-3.0,-2.0,0.0,7471.0,-504.0,2376.0,477.0,-27.0,-1862.0,1836.0,-124.0,-554.0,0.853674,-0.058194,0.517449,15166.0,-1008.0,4900.0,-51.0,-32.0,7.0
2815.0,2769.0,2901.0,3143.0,3035.0,0.870544,-0.034302,-0.490845,-0.001282,-2.0,-1.0,-1.0,7504.0,-512.0,2386.0,502.0,-33.0,-1838.0,1829.0,-129.0,-516.0,0.854692,-0.058464,0.515744,15162.0,-1086.0,4824.0,-39.0,-16.0,-1.0
2811.0,2767.0,2903.0,3147.0,3043.0,0.86969,-0.034424,-0.492371,-0.001587,-1.0,0.0,-2.0,7532.0,-510.0,2412.0,515.0,-32.0,-1788.0,1795.0,-125.0,-473.0,0.856529,-0.058313,0.512749,15130.0,-988.0,4938.0,-9.0,3.0,-39.0
2819.0,2771.0,2894.0,3147.0,3039.0,0.869263,-0.034424,-0.493103,-0.00177,-1.0,0.0,-2.0,7543.0,-483.0,2419.0,519.0,-7.0,-1769.0,1782.0,-99.0,-459.0,0.857394,-0.058101,0.511285,15130.0,-772.0,4852.0,-5.0,5.0,-35.0
2823.0,2769.0,2895.0,3139.0,3039.0,0.868408,-0.034485,-0.494568,-0.002075,-1.0,-1.0,-1.0,7498.0,-468.0,2402.0,460.0,5.0,-1762.0,1748.0,-90.0,-500.0,0.859117,-0.057841,0.50835,14726.0,-958.0,4726.0,-19.0,-10.0,-9.0
2815.0,2764.0,2893.0,3149.0,3055.0,0.86792,-0.034607,-0.495422,-0.002136,-1.0,-2.0,0.0,7466.0,-475.0,2388.0,419.0,0.0,-1762.0,1728.0,-96.0,-532.0,0.860122,-0.057955,0.506649,14838.0,-982.0,4732.0,-12.0,-36.0,4.0
2815.0,2767.0,2895.0,3143.0,3039.0,0.866943,-0.034607,-0.497131,-0.002075,0.0,-1.0,-1.0,7512.0,-450.0,2381.0,449.0,24.0,-1741.0,1728.0,-70.0,-490.0,0.862113,-0.057941,0.503258,15156.0,-718.0,4716.0,8.0,-14.0,-2.0
2822.0,2767.0,2897.0,3147.0,3047.0,0.866516,-0.034607,-0.497925,-0.002136,-1.0,-1.0,-1.0,7510.0,-434.0,2368.0,439.0,39.0,-1742.0,1725.0,-55.0,-497.0,0.863068,-0.057848,0.501728,14976.0,-810.0,4640.0,-11.0,-5.0,-3.0
2812.0,2775.0,2900.0,3143.0,3043.0,0.865662,-0.034851,-0.49939,-0.002197,-1.0,-1.0,0.0,7479.0,-452.0,2344.0,394.0,24.0,-1741.0,1703.0,-72.0,-529.0,0.864758,-0.058144,0.49877,14904.0,-848.0,4662.0,-10.0,-14.0,3.0
2821.0,2768.0,2897.0,3143.0,3039.0,0.865173,-0.034973,-0.500183,-0.002258,-1.0,-1.0,-1.0,7499.0,-478.0,2331.0,407.0,0.0,-1741.0,1709.0,-96.0,-513.0,0.865648,-0.058257,0.497124,15152.0,-1198.0,4562.0,-17.0,-11.0,-2.0
2818.0,2767.0,2887.0,3139.0,3045.0,0.86438,-0.035034,-0.501587,-0.002197,0.0,0.0,-1.0,7495.0,-522.0,2312.0,390.0,-43.0,-1737.0,1697.0,-139.0,-517.0,0.867277,-0.058361,0.494341,14936.0,-1060.0,4624.0,22.0,3.0,-10.0
2815.0,2750.0,2897.0,3155.0,3041.0,0.864014,-0.034973,-0.502258,-0.002197,1.0,0.0,-1.0,7510.0,-508.0,2324.0,398.0,-31.0,-1714.0,1683.0,-125.0,-497.0,0.86807,-0.058227,0.493038,15138.0,-904.0,4754.0,23.0,6.0,-9.0
2819.0,2769.0,2898.0,3143.0,3043.0,0.863281,-0.034912,-0.50354,-0.002258,-1.0,0.0,-1.0,7502.0,-478.0,2332.0,378.0,-2.0,-1686.0,1651.0,-95.0,-498.0,0.869551,-0.058004,0.490488,15036.0,-910.0,4658.0,-4.0,8.0,-6.0
2819.0,2767.0,2887.0,3149.0,3043.0,0.862915,-0.034973,-0.50415,-0.002319,-1.0,0.0,-1.0,7511.0,-452.0,2343.0,381.0,23.0,-1664.0,1635.0,-69.0,-483.0,0.87024,-0.058019,0.489237,15078.0,-710.0,4710.0,-13.0,13.0,-1.0
2815.0,2765.0,2887.0,3135.0,3043.0,0.862183,-0.035278,-0.505371,-0.002502,-2.0,0.0,0.0,7497.0,-466.0,2326.0,356.0,11.0,-1661.0,1621.0,-83.0,-498.0,0.871621,-0.058303,0.486721,14902.0,-1132.0,4542.0,-34.0,15.0,5.0
2819.0,2769.0,2907.0,3152.0,3043.0,0.861816,-0.035461,-0.505981,-0.002502,-1.0,0.0,0.0,7485.0,-493.0,2331.0,339.0,-13.0,-1645.0,1599.0,-106.0,-502.0,0.872304,-0.05859,0.485459,14890.0,-1072.0,4722.0,-10.0,11.0,6.0
2814.0,2768.0,2906.0,3153.0,3047.0,0.861084,-0.035461,-0.507202,-0.002319,2.0,0.0,0.0,7482.0,-548.0,2329.0,325.0,-66.0,-1627.0,1576.0,-158.0,-497.0,0.873652,-0.058718,0.482959,15006.0,-1102.0,4726.0,48.0,3.0,6.0
2815.0,2767.0,2897.0,3143.0,3031.0,0.860718,-0.035278,-0.507874,-0.002136,2.0,-1.0,0.0,7483.0,-501.0,2351.0,319.0,-21.0,-1594.0,1546.0,-110.0,-487.0,0.874422,-0.058559,0.48166,15038.0,-664.0,4876.0,54.0,-5.0,12.0
2813.0,2770.0,2899.0,3147.0,3043.0,0.859985,-0.035156,-0.509094,-0.001953,-1.0,-1.0,0.0,7506.0,-441.0,2390.0,331.0,38.0,-1535.0,1504.0,-47.0,-447.0,0.875764,-0.058479,0.479166,15002.0,-828.0,4822.0,-6.0,-2.0,17.0
2819.0,2770.0,2903.0,3147.0,3039.0,0.859619,-0.035278,-0.509705,-0.001953,-1.0,-1.0,0.0,7510.0,-448.0,2398.0,330.0,32.0,-1517.0,1488.0,-52.0,-437.0,0.876441,-0.058661,0.477906,15032.0,-942.0,4878.0,-21.0,-3.0,18.0
2815.0,2767.0,2883.0,3143.0,3053.0,0.858887,-0.035645,-0.510925,-0.002014,-1.0,0.0,0.0,7528.0,-509.0,2382.0,337.0,-24.0,-1512.0,1486.0,-108.0,-421.0,0.877797,-0.059171,0.475375,15250.0,-1274.0,4688.0,-17.0,2.0,2.0
2815.0,2769.0,2899.0,3141.0,3029.0,0.858521,-0.035706,-0.511475,-0.002014,0.0,1.0,-1.0,7547.0,-519.0,2366.0,351.0,-33.0,-1518.0,1498.0,-117.0,-409.0,0.878367,-0.059248,0.47418,15132.0,-1008.0,4648.0,2.0,28.0,-12.0
2815.0,2767.0,2896.0,3143.0,3051.0,0.857971,-0.035706,-0.51239,-0.002258,0.0,1.0,-1.0,7498.0,-538.0,2358.0,294.0,-55.0,-1511.0,1465.0,-141.0,-451.0,0.879393,-0.058954,0.472301,14810.0,-1078.0,4726.0,2.0,26.0,-22.0
2823.0,2769.0,2890.0,3151.0,3045.0,0.857666,-0.035706,-0.512939,-0.002319,-1.0,0.0,-1.0,7479.0,-523.0,2365.0,269.0,-40.0,-1495.0,1440.0,-126.0,-465.0,0.880027,-0.058868,0.471215,14842.0,-956.0,4798.0,-1.0,11.0,-14.0
2815.0,2763.0,2896.0,3155.0,3035.0,0.856995,-0.035889,-0.514099,-0.00238,-2.0,-2.0,0.0,7420.0,-474.0,2377.0,200.0,9.0,-1463.0,1383.0,-78.0,-510.0,0.881331,-0.059065,0.46886,14652.0,-730.0,4778.0,-25.0,-24.0,2.0
2815.0,2765.0,2902.0,3147.0,3045.0,0.856506,-0.036072,-0.514832,-0.002502,-2.0,-3.0,0.0,7435.0,-456.0,2386.0,208.0,29.0,-1441.0,1369.0,-56.0,-491.0,0.882093,-0.059215,0.467257,15054.0,-796.0,4790.0,-45.0,-49.0,4.0
2821.0,2767.0,2887.0,3131.0,3039.0,0.85553,-0.036621,-0.516418,-0.002747,-3.0,-2.0,0.0,7477.0,-477.0,2365.0,236.0,13.0,-1435.0,1378.0,-73.0,-457.0,0.883824,-0.059824,0.46391,14922.0,-1036.0,4630.0,-56.0,-44.0,9.0
2819.0,2769.0,2877.0,3143.0,3043.0,0.855042,-0.036987,-0.517212,-0.002869,-3.0,-3.0,0.0,7464.0,-498.0,2347.0,216.0,-4.0,-1439.0,1372.0,-92.0,-473.0,0.884688,-0.060284,0.462228,14838.0,-1098.0,4562.0,-59.0,-58.0,13.0
2815.0,2767.0,2893.0,3155.0,3056.0,0.853943,-0.037842,-0.518982,-0.003113,-4.0,-3.0,0.0,7507.0,-483.0,2335.0,243.0,19.0,-1420.0,1371.0,-69.0,-436.0,0.886597,-0.061398,0.458454,15214.0,-938.0,4592.0,-88.0,-61.0,15.0
2814.0,2767.0,2877.0,3135.0,3043.0,0.853455,-0.03833,-0.519775,-0.003296,-4.0,-2.0,0.0,7529.0,-532.0,2323.0,258.0,-24.0,-1418.0,1375.0,-112.0,-417.0,0.887462,-0.062,0.45676,15000.0,-1510.0,4506.0,-90.0,-35.0,14.0
2819.0,2767.0,2893.0,3143.0,3039.0,0.8526,-0.038818,-0.521057,-0.003357,0.0,0.0,-1.0,7517.0,-642.0,2253.0,236.0,-128.0,-1465.0,1403.0,-221.0,-447.0,0.888767,-0.062695,0.453931,15038.0,-1370.0,4350.0,14.0,2.0,-17.0
2823.0,2779.0,2921.0,3127.0,3031.0,0.852295,-0.038696,-0.521606,-0.003296,1.0,0.0,-2.0,7496.0,-613.0,2257.0,210.0,-100.0,-1452.0,1381.0,-193.0,-464.0,0.88938,-0.062523,0.452847,14844.0,-948.0,4574.0,37.0,5.0,-26.0
2815.0,2768.0,2906.0,3151.0,3035.0,0.851562,-0.038391,-0.522766,-0.003662,-1.0,-1.0,-2.0,7500.0,-482.0,2323.0,204.0,22.0,-1366.0,1309.0,-65.0,-434.0,0.890617,-0.061556,0.450414,15180.0,-534.0,4882.0,-17.0,-20.0,-32.0
2811.0,2774.0,2911.0,3134.0,3037.0,0.851196,-0.038513,-0.523376,-0.003906,-3.0,-1.0,-1.0,7533.0,-447.0,2342.0,231.0,56.0,-1337.0,1297.0,-29.0,-398.0,0.891293,-0.061476,0.449144,15232.0,-768.0,4762.0,-61.0,-9.0,-17.0
2819.0,2778.0,2897.0,3139.0,3051.0,0.850586,-0.039062,-0.524353,-0.004395,-2.0,0.0,-1.0,7544.0,-493.0,2345.0,233.0,13.0,-1317.0,1279.0,-72.0,-381.0,0.892358,-0.061843,0.447044,15054.0,-1164.0,4694.0,-45.0,16.0,-13.0
2819.0,2761.0,2891.0,3135.0,3029.0,0.850281,-0.039185,-0.52478,-0.004517,-1.0,0.0,-1.0,7490.0,-499.0,2345.0,176.0,8.0,-1309.0,1247.0,-79.0,-427.0,0.892775,-0.061895,0.446068,14606.0,-1018.0,4656.0,-20.0,11.0,-20.0
2834.0,2761.0,2879.0,3139.0,3054.0,0.849609,-0.039185,-0.525879,-0.004761,-1.0,-1.0,-1.0,7505.0,-492.0,2372.0,181.0,12.0,-1263.0,1209.0,-72.0,-399.0,0.893956,-0.061576,0.443775,15032.0,-948.0,4746.0,-2.0,-12.0,-12.0
2813.0,2768.0,2903.0,3163.0,3043.0,0.849304,-0.039185,-0.526428,-0.004761,0.0,-1.0,-1.0,7507.0,-496.0,2374.0,178.0,8.0,-1252.0,1198.0,-75.0,-395.0,0.894569,-0.061547,0.442678,15026.0,-1010.0,4748.0,14.0,-18.0,-9.0
2819.0,2767.0,2875.0,3151.0,3025.0,0.848572,-0.038818,-0.527588,-0.004639,1.0,-1.0,-1.0,7531.0,-455.0,2374.0,192.0,44.0,-1232.0,1189.0,-36.0,-373.0,0.895753,-0.060986,0.44024,15182.0,-622.0,4810.0,41.0,-12.0,-6.0
2799.0,2768.0,2891.0,3167.0,3047.0,0.848328,-0.038635,-0.528076,-0.004639,0.0,0.0,-1.0,7552.0,-414.0,2374.0,209.0,82.0,-1224.0,1192.0,2.0,-355.0,0.896322,-0.060652,0.439324,15198.0,-608.0,4730.0,21.0,5.0,-3.0
2815.0,2767.0,2887.0,3167.0,3057.0,0.847778,-0.038635,-0.528931,-0.0047,-1.0,0.0,0.0,7548.0,-408.0,2352.0,198.0,87.0,-1231.0,1195.0,6.0,-366.0,0.897195,-0.060537,0.43749,15116.0,-880.0,4642.0,-4.0,18.0,7.0
2826.0,2769.0,2897.0,3143.0,3047.0,0.847534,-0.038635,-0.529297,-0.004761,-1.0,1.0,0.0,7528.0,-402.0,2338.0,175.0,93.0,-1239.0,1192.0,11.0,-389.0,0.897562,-0.06045,0.436689,14870.0,-790.0,4572.0,-10.0,27.0,10.0
2826.0,2759.0,2887.0,3149.0,3057.0,0.846924,-0.038879,-0.530273,-0.004639,0.0,-1.0,0.0,7448.0,-494.0,2293.0,86.0,5.0,-1267.0,1175.0,-81.0,-473.0,0.898563,-0.060936,0.4346,14810.0,-1228.0,4526.0,3.0,-19.0,14.0
2823.0,2759.0,2887.0,3151.0,3051.0,0.846558,-0.03894,-0.530823,-0.004517,0.0,-2.0,0.0,7460.0,-513.0,2299.0,94.0,-12.0,-1251.0,1164.0,-97.0,-456.0,0.899096,-0.061136,0.433391,15020.0,-1132.0,4624.0,19.0,-23.0,9.0
2832.0,2782.0,2896.0,3143.0,3061.0,0.845886,-0.038879,-0.531921,-0.004333,0.0,-1.0,0.0,7501.0,-497.0,2341.0,126.0,4.0,-1190.0,1125.0,-75.0,-399.0,0.900227,-0.061165,0.43109,15192.0,-868.0,4868.0,16.0,-16.0,14.0
2823.0,2765.0,2887.0,3158.0,3047.0,0.845581,-0.038879,-0.53241,-0.004211,0.0,-1.0,1.0,7535.0,-475.0,2356.0,156.0,26.0,-1166.0,1118.0,-50.0,-362.0,0.900719,-0.061267,0.430053,15256.0,-812.0,4786.0,4.0,-5.0,28.0
2818.0,2775.0,2903.0,3143.0,3055.0,0.845093,-0.039062,-0.533142,-0.004028,-1.0,1.0,0.0,7575.0,-457.0,2353.0,190.0,48.0,-1156.0,1125.0,-26.0,-326.0,0.901424,-0.061728,0.428432,15132.0,-942.0,4650.0,-8.0,35.0,21.0
2813.0,2767.0,2897.0,3149.0,3024.0,0.84491,-0.039185,-0.533386,-0.004028,-1.0,1.0,0.0,7541.0,-494.0,2334.0,154.0,13.0,-1170.0,1121.0,-64.0,-362.0,0.901642,-0.061918,0.427852,14834.0,-1270.0,4526.0,-8.0,36.0,13.0
2807.0,2774.0,2895.0,3152.0,3035.0,0.844421,-0.039246,-0.534241,-0.003723,1.0,-1.0,0.0,7468.0,-541.0,2311.0,74.0,-30.0,-1179.0,1093.0,-110.0,-433.0,0.902541,-0.062302,0.426108,14858.0,-1032.0,4594.0,39.0,-17.0,6.0
2811.0,2762.0,2890.0,3141.0,3047.0,0.844055,-0.039124,-0.53479,-0.003601,1.0,-2.0,0.0,7467.0,-531.0,2320.0,69.0,-21.0,-1160.0,1075.0,-99.0,-429.0,0.903066,-0.062193,0.424911,14906.0,-998.0,4678.0,33.0,-31.0,8.0
2815.0,2763.0,2907.0,3143.0,3043.0,0.843262,-0.039062,-0.536011,-0.003296,1.0,-3.0,0.0,7488.0,-529.0,2335.0,80.0,-18.0,-1124.0,1048.0,-93.0,-401.0,0.904252,-0.062347,0.422268,15142.0,-1002.0,4762.0,23.0,-46.0,14.0
2815.0,2771.0,2877.0,3139.0,3039.0,0.842896,-0.039001,-0.536621,-0.003235,0.0,-2.0,0.0,7527.0,-503.0,2353.0,114.0,7.0,-1095.0,1038.0,-64.0,-358.0,0.904883,-0.062277,0.421,15300.0,-888.0,4808.0,21.0,-24.0,6.0
2825.0,2768.0,2895.0,3155.0,3022.0,0.842468,-0.038818,-0.537354,-0.003296,0.0,1.0,-1.0,7576.0,-500.0,2342.0,156.0,6.0,-1094.0,1056.0,-63.0,-318.0,0.905662,-0.061864,0.419508,15154.0,-968.0,4610.0,12.0,35.0,-18.0
2819.0,2759.0,2896.0,3149.0,3047.0,0.842285,-0.038757,-0.537598,-0.003357,0.0,1.0,-1.0,7560.0,-488.0,2346.0,139.0,17.0,-1085.0,1041.0,-52.0,-329.0,0.905881,-0.06168,0.418942,15024.0,-932.0,4740.0,1.0,37.0,-18.0
2822.0,2746.0,2882.0,3151.0,3024.0,0.841858,-0.038879,-0.538269,-0.003479,-1.0,-1.0,0.0,7468.0,-486.0,2333.0,41.0,19.0,-1087.0,1002.0,-54.0,-417.0,0.906563,-0.061717,0.417492,14656.0,-1122.0,4590.0,-21.0,-12.0,10.0
2803.0,2759.0,2890.0,3147.0,3031.0,0.841492,-0.039062,-0.538879,-0.003357,0.0,-3.0,1.0,7439.0,-530.0,2329.0,7.0,-21.0,-1080.0,981.0,-95.0,-441.0,0.907187,-0.062124,0.416203,14744.0,-1318.0,4664.0,1.0,-49.0,28.0
2811.0,2737.0,2897.0,3147.0,3061.0,0.840637,-0.03894,-0.540222,-0.002869,2.0,-4.0,1.0,7434.0,-481.0,2387.0,-8.0,29.0,-998.0,904.0,-39.0,-421.0,0.908485,-0.06237,0.413323,14906.0,-494.0,5076.0,51.0,-82.0,26.0
2819.0,2775.0,2896.0,3159.0,3047.0,0.840149,-0.038879,-0.540955,-0.002686,0.0,-5.0,2.0,7407.0,-390.0,2429.0,-40.0,121.0,-943.0,846.0,54.0,-432.0,0.909174,-0.062423,0.411714,14578.0,-226.0,5098.0,2.0,-108.0,49.0
2827.0,2767.0,2879.0,3159.0,3047.0,0.838745,-0.039734,-0.54303,-0.002319,-4.0,-8.0,4.0,7501.0,-325.0,2463.0,37.0,200.0,-871.0,817.0,140.0,-333.0,0.911111,-0.064134,0.407039,15748.0,-648.0,4954.0,-91.0,-177.0,105.0
2832.0,2771.0,2911.0,3175.0,3055.0,0.838135,-0.040344,-0.543945,-0.002197,-4.0,-5.0,3.0,7619.0,-378.0,2443.0,148.0,156.0,-874.0,864.0,100.0,-229.0,0.911976,-0.065237,0.404971,15828.0,-1144.0,4668.0,-89.0,-110.0,78.0
2800.0,2753.0,2897.0,3154.0,3057.0,0.83728,-0.040833,-0.545227,-0.002014,2.0,-1.0,-1.0,7654.0,-659.0,2269.0,173.0,-116.0,-1025.0,1000.0,-180.0,-246.0,0.91318,-0.06618,0.402102,15038.0,-2120.0,3970.0,65.0,-2.0,-17.0
2814.0,2771.0,2896.0,3135.0,3051.0,0.837036,-0.040283,-0.545654,-0.001648,6.0,-1.0,-2.0,7627.0,-664.0,2241.0,142.0,-126.0,-1046.0,1006.0,-192.0,-281.0,0.913597,-0.065639,0.401271,15158.0,-1100.0,4484.0,149.0,-2.0,-42.0
2812.0,2757.0,2895.0,3166.0,3063.0,0.836609,-0.039062,-0.546387,-0.001526,1.0,0.0,-1.0,7582.0,-484.0,2241.0,91.0,37.0,-1034.0,983.0,-28.0,-332.0,0.914343,-0.063693,0.399852,14916.0,-534.0,4454.0,43.0,11.0,-21.0
2818.0,2743.0,2867.0,3131.0,3014.0,0.836365,-0.039062,-0.546753,-0.001587,-2.0,-1.0,0.0,7496.0,-467.0,2209.0,2.0,54.0,-1059.0,971.0,-17.0,-424.0,0.914694,-0.063606,0.399044,14364.0,-952.0,4136.0,-26.0,-5.0,6.0
2819.0,2769.0,2881.0,3155.0,3059.0,0.83551,-0.039795,-0.548035,-0.001404,-1.0,-3.0,1.0,7483.0,-588.0,2152.0,-19.0,-55.0,-1093.0,990.0,-129.0,-446.0,0.915889,-0.064959,0.396154,15244.0,-1366.0,4282.0,-17.0,-57.0,45.0
2815.0,2761.0,2875.0,3139.0,3043.0,0.835144,-0.039978,-0.548584,-0.001221,-1.0,-1.0,1.0,7505.0,-582.0,2147.0,-2.0,-45.0,-1088.0,993.0,-119.0,-428.0,0.916391,-0.065436,0.394924,15100.0,-1090.0,4224.0,-3.0,-22.0,30.0
2811.0,2766.0,2891.0,3135.0,3035.0,0.834595,-0.0401,-0.549377,-0.00116,-1.0,0.0,-1.0,7565.0,-570.0,2147.0,52.0,-32.0,-1073.0,1002.0,-102.0,-372.0,0.917108,-0.06566,0.393126,15296.0,-1132.0,4272.0,-1.0,21.0,-2.0
2827.0,2767.0,2894.0,3157.0,3030.0,0.834412,-0.0401,-0.549683,-0.001221,0.0,1.0,-1.0,7569.0,-566.0,2151.0,53.0,-28.0,-1064.0,995.0,-98.0,-367.0,0.917421,-0.065578,0.392485,15132.0,-1120.0,4366.0,4.0,38.0,-14.0
2807.0,2775.0,2891.0,3152.0,3029.0,0.834167,-0.040039,-0.549988,-0.001404,-1.0,2.0,-2.0,7564.0,-553.0,2194.0,46.0,-18.0,-1015.0,948.0,-85.0,-354.0,0.917676,-0.065254,0.391748,15078.0,-992.0,4540.0,-1.0,49.0,-24.0
2811.0,2763.0,2896.0,3142.0,3039.0,0.834106,-0.040039,-0.550171,-0.001587,-2.0,1.0,-1.0,7529.0,-533.0,2227.0,9.0,0.0,-979.0,901.0,-66.0,-374.0,0.917929,-0.065048,0.391445,14810.0,-1002.0,4604.0,-23.0,34.0,-18.0
2822.0,2768.0,2911.0,3135.0,3057.0,0.833618,-0.040466,-0.550842,-0.00177,-2.0,-1.0,0.0,7512.0,-570.0,2258.0,-12.0,-33.0,-935.0,852.0,-98.0,-373.0,0.918528,-0.065517,0.389858,15078.0,-1254.0,4632.0,-25.0,-12.0,6.0
2815.0,2755.0,2896.0,3157.0,3023.0,0.833374,-0.040527,-0.551147,-0.001709,-1.0,-1.0,0.0,7525.0,-567.0,2286.0,-1.0,-29.0,-901.0,825.0,-91.0,-349.0,0.918762,-0.065665,0.389109,15114.0,-1094.0,4714.0,-2.0,-7.0,1.0
2815.0,2763.0,2895.0,3155.0,3027.0,0.832947,-0.040466,-0.551819,-0.00177,-1.0,-1.0,-1.0,7535.0,-490.0,2345.0,3.0,46.0,-830.0,766.0,-11.0,-322.0,0.919415,-0.065459,0.387662,15108.0,-650.0,4834.0,-5.0,-11.0,-1.0
2810.0,2775.0,2891.0,3143.0,3051.0,0.832764,-0.040527,-0.552124,-0.001892,-1.0,-1.0,0.0,7573.0,-467.0,2358.0,38.0,68.0,-812.0,764.0,12.0,-283.0,0.919731,-0.06541,0.387016,15394.0,-880.0,4766.0,-21.0,-9.0,3.0
2815.0,2767.0,2895.0,3153.0,3039.0,0.832336,-0.040527,-0.552734,-0.001953,0.0,0.0,-1.0,7582.0,-488.0,2322.0,43.0,46.0,-837.0,788.0,-10.0,-286.0,0.92028,-0.065306,0.38563,15256.0,-1072.0,4614.0,13.0,16.0,-14.0
2813.0,2751.0,2879.0,3134.0,3051.0,0.832214,-0.040344,-0.552917,-0.002014,1.0,1.0,-2.0,7552.0,-505.0,2293.0,11.0,26.0,-862.0,798.0,-33.0,-323.0,0.920454,-0.064923,0.385239,14828.0,-1116.0,4386.0,29.0,26.0,-27.0
2815.0,2771.0,2903.0,3143.0,3053.0,0.831787,-0.039978,-0.55365,-0.001892,1.0,-1.0,-1.0,7523.0,-512.0,2273.0,-23.0,15.0,-870.0,792.0,-45.0,-356.0,0.921189,-0.064411,0.383747,15174.0,-930.0,4600.0,38.0,-20.0,-9.0
2813.0,2771.0,2895.0,3135.0,3054.0,0.831543,-0.039856,-0.554016,-0.001831,0.0,-1.0,-1.0,7502.0,-502.0,2257.0,-47.0,24.0,-880.0,793.0,-38.0,-381.0,0.921522,-0.064255,0.382945,14820.0,-960.0,4372.0,22.0,-13.0,-2.0
2815.0,2766.0,2901.0,3151.0,3023.0,0.830933,-0.039856,-0.554871,-0.00177,0.0,-1.0,-1.0,7535.0,-533.0,2246.0,-20.0,-6.0,-875.0,798.0,-66.0,-351.0,0.922261,-0.064271,0.380982,15188.0,-1092.0,4494.0,12.0,-10.0,-3.0
2815.0,2768.0,2879.0,3130.0,3051.0,0.83075,-0.039795,-0.555176,-0.001831,0.0,0.0,-1.0,7538.0,-524.0,2243.0,-19.0,0.0,-872.0,796.0,-60.0,-349.0,0.92257,-0.064086,0.380344,15074.0,-972.0,4484.0,12.0,5.0,-15.0
2829.0,2762.0,2891.0,3135.0,3051.0,0.830383,-0.039795,-0.555725,-0.002075,-2.0,0.0,-1.0,7552.0,-469.0,2264.0,-9.0,53.0,-841.0,775.0,-5.0,-330.0,0.923095,-0.063784,0.379127,15076.0,-874.0,4532.0,-34.0,17.0,-10.0
2819.0,2768.0,2906.0,3151.0,3039.0,0.8302,-0.039978,-0.555969,-0.002258,-2.0,0.0,-1.0,7514.0,-497.0,2248.0,-49.0,26.0,-852.0,768.0,-34.0,-369.0,0.923312,-0.063868,0.378537,14804.0,-1226.0,4404.0,-45.0,8.0,-4.0
2823.0,2763.0,2887.0,3152.0,3007.0,0.829773,-0.0401,-0.556641,-0.002197,1.0,0.0,-1.0,7524.0,-551.0,2260.0,-44.0,-25.0,-828.0,746.0,-83.0,-351.0,0.923947,-0.064102,0.377071,15104.0,-1110.0,4576.0,26.0,1.0,-10.0
2821.0,2771.0,2883.0,3135.0,3035.0,0.829651,-0.039917,-0.556885,-0.002136,1.0,-1.0,-1.0,7518.0,-525.0,2291.0,-53.0,-1.0,-794.0,713.0,-57.0,-347.0,0.92421,-0.063855,0.376611,14984.0,-862.0,4784.0,40.0,0.0,-15.0
2809.0,2765.0,2907.0,3147.0,3039.0,0.829163,-0.039612,-0.557556,-0.002136,0.0,-2.0,0.0,7514.0,-455.0,2321.0,-61.0,63.0,-751.0,674.0,9.0,-342.0,0.924779,-0.063307,0.375077,15024.0,-730.0,4674.0,10.0,-28.0,1.0
2819.0,2769.0,2910.0,3159.0,3031.0,0.828918,-0.039551,-0.557922,-0.002136,0.0,-2.0,-1.0,7538.0,-457.0,2323.0,-40.0,60.0,-743.0,674.0,7.0,-318.0,0.925113,-0.063185,0.374269,15226.0,-970.0,4604.0,1.0,-29.0,-2.0
2813.0,2770.0,2911.0,3141.0,3055.0,0.828369,-0.03949,-0.558777,-0.002136,0.0,-2.0,-1.0,7517.0,-483.0,2305.0,-68.0,33.0,-745.0,665.0,-20.0,-342.0,0.925916,-0.063037,0.372409,15164.0,-990.0,4628.0,6.0,-45.0,-5.0
2822.0,2780.0,2899.0,3125.0,3051.0,0.828064,-0.03949,-0.559204,-0.002197,0.0,-2.0,-1.0,7561.0,-470.0,2302.0,-27.0,45.0,-740.0,677.0,-6.0,-302.0,0.926287,-0.062943,0.371426,15388.0,-862.0,4566.0,4.0,-31.0,-4.0
2826.0,2773.0,2895.0,3135.0,3039.0,0.827637,-0.039429,-0.559875,-0.002319,-1.0,0.0,-1.0,7567.0,-494.0,2248.0,-26.0,19.0,-782.0,715.0,-35.0,-314.0,0.92693,-0.062668,0.369973,15130.0,-1130.0,4290.0,0.0,1.0,-16.0
2807.0,2763.0,2887.0,3159.0,3043.0,0.827454,-0.039368,-0.56012,-0.002319,0.0,0.0,-1.0,7566.0,-513.0,2233.0,-29.0,0.0,-793.0,724.0,-54.0,-319.0,0.927129,-0.062552,0.369401,15104.0,-1104.0,4374.0,20.0,10.0,-19.0
2815.0,2770.0,2883.0,3147.0,3013.0,0.827148,-0.039124,-0.560608,-0.002319,0.0,0.0,-1.0,7520.0,-494.0,2206.0,-78.0,14.0,-811.0,723.0,-43.0,-371.0,0.927593,-0.062121,0.368368,14886.0,-908.0,4356.0,17.0,13.0,-3.0
2834.0,2768.0,2877.0,3159.0,3045.0,0.826965,-0.039124,-0.560852,-0.002258,0.0,-1.0,0.0,7476.0,-481.0,2236.0,-124.0,28.0,-776.0,675.0,-29.0,-402.0,0.927787,-0.062174,0.367791,14630.0,-882.0,4626.0,2.0,-1.0,10.0
2827.0,2757.0,2885.0,3119.0,3031.0,0.826538,-0.03949,-0.561523,-0.002319,-2.0,-1.0,0.0,7470.0,-504.0,2213.0,-135.0,9.0,-787.0,680.0,-49.0,-414.0,0.928424,-0.062675,0.366303,14958.0,-1170.0,4278.0,-29.0,-19.0,11.0
2821.0,2759.0,2903.0,3155.0,3045.0,0.826233,-0.039612,-0.56189,-0.002258,-1.0,-1.0,0.0,7478.0,-530.0,2218.0,-129.0,-14.0,-775.0,671.0,-71.0,-402.0,0.928682,-0.062919,0.365377,14990.0,-1156.0,4514.0,-9.0,-21.0,9.0
2815.0,2765.0,2903.0,3147.0,3055.0,0.825867,-0.039551,-0.562439,-0.002258,0.0,0.0,-1.0,7545.0,-512.0,2253.0,-66.0,2.0,-730.0,653.0,-50.0,-327.0,0.929178,-0.062787,0.364159,15268.0,-856.0,4600.0,18.0,7.0,-11.0
2815.0,2762.0,2916.0,3135.0,3025.0,0.825745,-0.039429,-0.562683,-0.002258,0.0,0.0,-1.0,7577.0,-481.0,2268.0,-36.0,31.0,-711.0,648.0,-18.0,-293.0,0.929443,-0.062575,0.363692,15332.0,-768.0,4620.0,13.0,17.0,-10.0
2831.0,2763.0,2899.0,3127.0,3039.0,0.825562,-0.039307,-0.562866,-0.00238,-1.0,1.0,-1.0,7562.0,-463.0,2265.0,-52.0,46.0,-710.0,642.0,-4.0,-309.0,0.929549,-0.06222,0.363194,15006.0,-974.0,4484.0,-1.0,28.0,-10.0
2814.0,2775.0,2893.0,3151.0,3053.0,0.8255,-0.039307,-0.563049,-0.002441,0.0,0.0,-1.0,7544.0,-489.0,2261.0,-72.0,20.0,-711.0,635.0,-31.0,-326.0,0.929787,-0.062146,0.362888,14974.0,-1154.0,4484.0,1.0,22.0,-13.0
2811.0,2783.0,2864.0,3155.0,3027.0,0.825195,-0.039185,-0.563477,-0.002441,0.0,-1.0,-1.0,7473.0,-500.0,2266.0,-146.0,7.0,-698.0,596.0,-45.0,-388.0,0.930148,-0.061918,0.361912,14806.0,-946.0,4610.0,14.0,-18.0,-5.0
2815.0,2771.0,2887.0,3151.0,3019.0,0.824951,-0.039185,-0.563843,-0.002441,0.0,-2.0,0.0,7506.0,-492.0,2288.0,-116.0,15.0,-670.0,581.0,-34.0,-350.0,0.930477,-0.061898,0.361096,15240.0,-958.0,4660.0,3.0,-28.0,1.0
2821.0,2765.0,2883.0,3143.0,3031.0,0.824524,-0.039185,-0.564453,-0.00238,0.0,-1.0,0.0,7528.0,-481.0,2287.0,-98.0,26.0,-659.0,578.0,-22.0,-329.0,0.930997,-0.06193,0.359703,15178.0,-942.0,4554.0,10.0,-17.0,2.0
2807.0,2770.0,2898.0,3151.0,3043.0,0.824341,-0.039062,-0.564697,-0.002319,0.0,-1.0,-1.0,7552.0,-461.0,2282.0,-76.0,45.0,-660.0,588.0,-2.0,-310.0,0.931187,-0.061782,0.359134,15230.0,-772.0,4540.0,20.0,-1.0,-3.0
2815.0,2769.0,2901.0,3135.0,3053.0,0.824097,-0.03894,-0.565125,-0.002502,-1.0,0.0,-1.0,7567.0,-408.0,2276.0,-64.0,94.0,-658.0,594.0,47.0,-301.0,0.931629,-0.061353,0.35826,15116.0,-840.0,4474.0,-22.0,16.0,-7.0
2811.0,2763.0,2907.0,3135.0,3023.0,0.823975,-0.039062,-0.565308,-0.002625,-1.0,0.0,-1.0,7535.0,-439.0,2253.0,-98.0,64.0,-678.0,599.0,14.0,-337.0,0.931803,-0.061406,0.357842,14844.0,-1098.0,4358.0,-21.0,13.0,-4.0
2801.0,2759.0,2865.0,3153.0,3023.0,0.823608,-0.039124,-0.565796,-0.002625,0.0,-1.0,-1.0,7505.0,-493.0,2233.0,-131.0,10.0,-688.0,594.0,-41.0,-368.0,0.932194,-0.061475,0.356682,14960.0,-1026.0,4494.0,11.0,-2.0,-5.0
2819.0,2758.0,2897.0,3162.0,3055.0,0.823425,-0.039062,-0.56604,-0.002625,0.0,-1.0,-1.0,7481.0,-498.0,2229.0,-157.0,4.0,-688.0,585.0,-48.0,-391.0,0.932388,-0.061359,0.356109,14776.0,-994.0,4436.0,11.0,-12.0,-5.0
2818.0,2763.0,2895.0,3163.0,3047.0,0.822998,-0.039062,-0.566711,-0.002502,0.0,-2.0,0.0,7514.0,-493.0,2252.0,-129.0,10.0,-653.0,563.0,-39.0,-352.0,0.933,-0.06146,0.354644,15226.0,-904.0,4596.0,11.0,-23.0,6.0
2815.0,2769.0,2894.0,3127.0,3055.0,0.822815,-0.039001,-0.566956,-0.002502,0.0,-1.0,0.0,7539.0,-474.0,2267.0,-105.0,28.0,-633.0,554.0,-18.0,-323.0,0.933194,-0.061344,0.354071,15206.0,-858.0,4590.0,7.0,-8.0,1.0
2819.0,2763.0,2893.0,3143.0,3056.0,0.822571,-0.038879,-0.567383,-0.002563,0.0,0.0,-1.0,7558.0,-465.0,2255.0,-90.0,35.0,-638.0,565.0,-11.0,-311.0,0.933624,-0.061053,0.353194,15076.0,-884.0,4460.0,11.0,17.0,-10.0
2819.0,2769.0,2917.0,3151.0,3043.0,0.822449,-0.038818,-0.567505,-0.002563,0.0,0.0,-1.0,7549.0,-451.0,2261.0,-99.0,48.0,-629.0,554.0,1.0,-317.0,0.933686,-0.060943,0.35286,15036.0,-760.0,4610.0,12.0,21.0,-16.0
2815.0,2766.0,2891.0,3143.0,3045.0,0.822205,-0.038757,-0.567871,-0.002747,-1.0,-1.0,-1.0,7484.0,-464.0,2239.0,-167.0,32.0,-644.0,543.0,-17.0,-384.0,0.934025,-0.060613,0.352048,14798.0,-1060.0,4448.0,-13.0,-9.0,-5.0
2815.0,2761.0,2887.0,3135.0,3043.0,0.82196,-0.038879,-0.568176,-0.002747,-1.0,-2.0,0.0,7479.0,-488.0,2232.0,-174.0,10.0,-645.0,541.0,-40.0,-389.0,0.93425,-0.060794,0.351291,14978.0,-1132.0,4434.0,-10.0,-28.0,5.0
2819.0,2758.0,2878.0,3159.0,3031.0,0.821533,-0.038879,-0.568787,-0.002563,0.0,-2.0,0.0,7514.0,-499.0,2253.0,-143.0,0.0,-613.0,522.0,-46.0,-348.0,0.934754,-0.060965,0.349894,15136.0,-910.0,4600.0,19.0,-25.0,7.0
2819.0,2769.0,2895.0,3155.0,3047.0,0.82135,-0.038757,-0.569092,-0.002502,0.0,-1.0,0.0,7550.0,-466.0,2272.0,-109.0,32.0,-589.0,513.0,-11.0,-309.0,0.935041,-0.060818,0.349255,15308.0,-690.0,4628.0,20.0,-11.0,5.0
2815.0,2767.0,2879.0,3143.0,3047.0,0.821167,-0.038696,-0.569336,-0.002563,-1.0,1.0,0.0,7601.0,-417.0,2277.0,-60.0,79.0,-579.0,523.0,37.0,-262.0,0.935238,-0.060633,0.348681,15312.0,-784.0,4480.0,-10.0,29.0,2.0
2807.0,2754.0,2883.0,3143.0,3047.0,0.821167,-0.038757,-0.569397,-0.002625,-1.0,2.0,-1.0,7573.0,-435.0,2244.0,-89.0,61.0,-611.0,542.0,16.0,-299.0,0.935343,-0.060664,0.348607,14884.0,-1002.0,4288.0,-11.0,48.0,-6.0
2813.0,2763.0,2929.0,3127.0,3043.0,0.820984,-0.038696,-0.56958,-0.002686,0.0,0.0,-1.0,7504.0,-472.0,2227.0,-159.0,23.0,-624.0,528.0,-24.0,-367.0,0.93544,-0.060479,0.348103,14840.0,-942.0,4506.0,17.0,17.0,-11.0
2815.0,2763.0,2907.0,3163.0,3043.0,0.820862,-0.038574,-0.569763,-0.002686,0.0,-1.0,-1.0,7485.0,-456.0,2235.0,-179.0,37.0,-613.0,512.0,-10.0,-382.0,0.935601,-0.060268,0.347703,14914.0,-840.0,4492.0,9.0,-3.0,-3.0
2818.0,2767.0,2887.0,3151.0,3043.0,0.820557,-0.038635,-0.570251,-0.002563,0.0,-1.0,0.0,7501.0,-459.0,2265.0,-167.0,36.0,-574.0,480.0,-8.0,-357.0,0.936045,-0.060481,0.34664,15044.0,-860.0,4562.0,9.0,-12.0,15.0
2822.0,2764.0,2889.0,3147.0,3043.0,0.820435,-0.038635,-0.570435,-0.002502,0.0,-1.0,0.0,7536.0,-447.0,2284.0,-133.0,48.0,-552.0,472.0,5.0,-318.0,0.936202,-0.06054,0.346231,15332.0,-776.0,4696.0,15.0,-8.0,15.0
2819.0,2763.0,2895.0,3147.0,3043.0,0.820251,-0.038574,-0.57074,-0.002441,-1.0,0.0,0.0,7566.0,-395.0,2279.0,-105.0,100.0,-552.0,484.0,59.0,-295.0,0.936489,-0.060494,0.345587,15122.0,-758.0,4490.0,-17.0,22.0,11.0
2821.0,2765.0,2886.0,3151.0,3047.0,0.820129,-0.038696,-0.570801,-0.002502,-1.0,1.0,0.0,7547.0,-432.0,2259.0,-124.0,64.0,-569.0,492.0,21.0,-316.0,0.936455,-0.060615,0.345308,14954.0,-1120.0,4364.0,-20.0,24.0,7.0
2821.0,2769.0,2887.0,3143.0,3051.0,0.819946,-0.038757,-0.571106,-0.002441,0.0,0.0,-1.0,7515.0,-495.0,2255.0,-158.0,2.0,-568.0,477.0,-42.0,-343.0,0.936742,-0.060769,0.344654,15086.0,-1082.0,4596.0,22.0,2.0,-3.0
2815.0,2767.0,2890.0,3141.0,3031.0,0.819885,-0.038635,-0.571228,-0.002319,1.0,0.0,-1.0,7512.0,-505.0,2260.0,-162.0,-7.0,-561.0,468.0,-50.0,-344.0,0.936862,-0.060703,0.344423,14988.0,-1066.0,4550.0,36.0,9.0,-10.0
2819.0,2766.0,2889.0,3143.0,3039.0,0.819641,-0.038147,-0.571594,-0.002197,2.0,-1.0,-1.0,7500.0,-485.0,2273.0,-177.0,6.0,-542.0,446.0,-36.0,-352.0,0.937172,-0.060022,0.343641,14976.0,-894.0,4644.0,46.0,0.0,-14.0
2821.0,2769.0,2893.0,3143.0,3031.0,0.819519,-0.037903,-0.571777,-0.002075,2.0,-1.0,-1.0,7519.0,-486.0,2290.0,-159.0,3.0,-521.0,433.0,-36.0,-328.0,0.937322,-0.059751,0.34325,15172.0,-984.0,4710.0,49.0,-5.0,-14.0
2815.0,2767.0,2895.0,3143.0,3043.0,0.819336,-0.037415,-0.572083,-0.001892,1.0,-1.0,-1.0,7547.0,-452.0,2310.0,-133.0,32.0,-496.0,420.0,-4.0,-296.0,0.937597,-0.059145,0.342637,15248.0,-874.0,4678.0,41.0,-5.0,-10.0
2815.0,2767.0,2893.0,3143.0,3043.0,0.819214,-0.037231,-0.572266,-0.001831,1.0,0.0,-1.0,7555.0,-450.0,2298.0,-127.0,32.0,-505.0,431.0,-4.0,-293.0,0.937752,-0.058905,0.342241,15082.0,-808.0,4474.0,39.0,4.0,-7.0
2815.0,2768.0,2897.0,3147.0,3051.0,0.81897,-0.037109,-0.572632,-0.00177,0.0,-1.0,0.0,7578.0,-460.0,2280.0,-106.0,21.0,-516.0,448.0,-15.0,-276.0,0.938068,-0.058756,0.34143,15210.0,-1046.0,4454.0,1.0,0.0,4.0
2821.0,2769.0,2891.0,3147.0,3035.0,0.818848,-0.03717,-0.572815,-0.001709,0.0,0.0,0.0,7572.0,-493.0,2263.0,-113.0,-10.0,-530.0,457.0,-47.0,-286.0,0.938223,-0.058916,0.341016,15092.0,-1210.0,4412.0,3.0,12.0,3.0
2815.0,2765.0,2886.0,3143.0,3039.0,0.818665,-0.037048,-0.57312,-0.001648,1.0,-1.0,-1.0,7487.0,-530.0,2239.0,-201.0,-48.0,-549.0,443.0,-90.0,-372.0,0.938508,-0.058771,0.340375,14738.0,-1014.0,4534.0,32.0,-3.0,-15.0
2819.0,2763.0,2883.0,3134.0,3039.0,0.818481,-0.036865,-0.573303,-0.001587,1.0,-1.0,-1.0,7490.0,-489.0,2265.0,-198.0,-9.0,-519.0,418.0,-49.0,-361.0,0.938593,-0.058527,0.339879,15076.0,-662.0,4716.0,29.0,-20.0,-6.0
2820.0,2768.0,2897.0,3135.0,3043.0,0.818237,-0.036865,-0.57373,-0.001648,-1.0,-1.0,0.0,7509.0,-416.0,2284.0,-183.0,62.0,-493.0,403.0,23.0,-342.0,0.939017,-0.058438,0.338989,15012.0,-784.0,4502.0,-21.0,-9.0,11.0
2819.0,2765.0,2896.0,3155.0,3047.0,0.818054,-0.036987,-0.573914,-0.001709,-2.0,-1.0,0.0,7530.0,-424.0,2276.0,-163.0,55.0,-496.0,412.0,17.0,-324.0,0.939111,-0.058554,0.338471,15256.0,-930.0,4514.0,-26.0,-12.0,9.0
2815.0,2769.0,2903.0,3155.0,3051.0,0.81781,-0.03717,-0.57428,-0.001709,-1.0,0.0,-1.0,7539.0,-471.0,2242.0,-156.0,10.0,-523.0,438.0,-29.0,-323.0,0.939431,-0.058834,0.337637,15012.0,-1024.0,4374.0,-2.0,8.0,-1.0
2815.0,2768.0,2897.0,3135.0,3039.0,0.817688,-0.03717,-0.574463,-0.001709,0.0,0.0,-1.0,7548.0,-460.0,2255.0,-149.0,21.0,-507.0,426.0,-16.0,-312.0,0.93959,-0.058824,0.337227,15192.0,-850.0,4642.0,6.0,4.0,-8.0
2821.0,2767.0,2887.0,3143.0,3037.0,0.817566,-0.037109,-0.574646,-0.001831,-1.0,0.0,-1.0,7539.0,-447.0,2273.0,-159.0,32.0,-486.0,404.0,-4.0,-314.0,0.939758,-0.058574,0.336822,14986.0,-916.0,4598.0,-5.0,10.0,-4.0
2815.0,2769.0,2903.0,3147.0,3039.0,0.817505,-0.037109,-0.574707,-0.001831,-1.0,0.0,-1.0,7532.0,-465.0,2278.0,-166.0,14.0,-479.0,394.0,-22.0,-318.0,0.939788,-0.05857,0.336652,15024.0,-1064.0,4594.0,-3.0,11.0,-2.0
2823.0,2769.0,2895.0,3147.0,3039.0,0.817322,-0.037109,-0.574951,-0.00177,0.0,0.0,0.0,7525.0,-463.0,2311.0,-175.0,17.0,-442.0,356.0,-17.0,-314.0,0.939972,-0.058625,0.336072,15074.0,-816.0,4702.0,5.0,2.0,4.0
2815.0,2763.0,2899.0,3143.0,3045.0,0.817261,-0.03717,-0.575073,-0.001831,-1.0,-1.0,0.0,7526.0,-439.0,2322.0,-175.0,41.0,-429.0,345.0,6.0,-310.0,0.940106,-0.05865,0.335828,15020.0,-786.0,4700.0,-19.0,0.0,10.0
2821.0,2766.0,2899.0,3139.0,3046.0,0.816895,-0.037598,-0.5755,-0.001892,-3.0,-2.0,1.0,7481.0,-431.0,2316.0,-222.0,54.0,-425.0,327.0,17.0,-354.0,0.940389,-0.059249,0.334706,14926.0,-948.0,4612.0,-55.0,-44.0,29.0
2818.0,2773.0,2909.0,3143.0,3039.0,0.81665,-0.037964,-0.575867,-0.001892,-3.0,-3.0,1.0,7484.0,-439.0,2308.0,-222.0,51.0,-426.0,328.0,14.0,-354.0,0.940707,-0.059827,0.333858,15022.0,-898.0,4534.0,-46.0,-51.0,34.0
2821.0,2771.0,2891.0,3143.0,3039.0,0.816223,-0.038391,-0.576416,-0.001953,-2.0,-1.0,0.0,7579.0,-446.0,2316.0,-130.0,48.0,-407.0,341.0,16.0,-260.0,0.941118,-0.06042,0.332495,15412.0,-980.0,4612.0,-26.0,-14.0,8.0
2820.0,2765.0,2891.0,3147.0,3043.0,0.816162,-0.038391,-0.576538,-0.002014,-1.0,0.0,-1.0,7584.0,-471.0,2291.0,-126.0,23.0,-430.0,363.0,-10.0,-262.0,0.941252,-0.060344,0.332255,15104.0,-1090.0,4380.0,-6.0,17.0,-9.0
2815.0,2759.0,2887.0,3135.0,3045.0,0.81604,-0.038147,-0.576721,-0.002136,1.0,1.0,-2.0,7577.0,-519.0,2263.0,-135.0,-29.0,-455.0,381.0,-63.0,-276.0,0.941418,-0.059795,0.331863,15300.0,-1028.0,4514.0,33.0,25.0,-39.0
2815.0,2773.0,2893.0,3155.0,3039.0,0.816101,-0.037903,-0.576721,-0.002197,1.0,1.0,-2.0,7567.0,-496.0,2261.0,-145.0,-9.0,-458.0,382.0,-44.0,-288.0,0.941492,-0.059331,0.331982,14990.0,-826.0,4488.0,25.0,40.0,-38.0
2827.0,2768.0,2896.0,3138.0,3035.0,0.815979,-0.037964,-0.576782,-0.002563,-3.0,0.0,-1.0,7490.0,-466.0,2251.0,-222.0,17.0,-466.0,365.0,-22.0,-364.0,0.941479,-0.058998,0.331709,14792.0,-986.0,4430.0,-47.0,1.0,-2.0
2815.0,2768.0,2896.0,3143.0,3031.0,0.815857,-0.038269,-0.577026,-0.002625,-3.0,-1.0,0.0,7457.0,-482.0,2234.0,-257.0,4.0,-479.0,365.0,-37.0,-400.0,0.941743,-0.059415,0.331205,14724.0,-1044.0,4356.0,-51.0,-22.0,16.0
2823.0,2763.0,2891.0,3142.0,3039.0,0.815369,-0.038757,-0.577637,-0.002625,-1.0,-2.0,0.0,7496.0,-514.0,2222.0,-222.0,-21.0,-478.0,375.0,-61.0,-365.0,0.942177,-0.060171,0.329667,15298.0,-1084.0,4446.0,-15.0,-37.0,17.0
2823.0,2762.0,2898.0,3163.0,3051.0,0.815186,-0.038757,-0.577881,-0.002563,0.0,-1.0,0.0,7537.0,-480.0,2215.0,-182.0,13.0,-480.0,392.0,-26.0,-330.0,0.942359,-0.060226,0.329086,15290.0,-700.0,4346.0,7.0,-10.0,2.0
2819.0,2766.0,2891.0,3149.0,3043.0,0.815002,-0.038513,-0.578125,-0.002686,0.0,1.0,-1.0,7590.0,-427.0,2169.0,-131.0,61.0,-522.0,451.0,21.0,-298.0,0.942553,-0.059672,0.328524,15182.0,-612.0,4232.0,13.0,32.0,-19.0
2815.0,2770.0,2899.0,3147.0,3039.0,0.815002,-0.038391,-0.578186,-0.002808,-1.0,1.0,-1.0,7581.0,-397.0,2169.0,-141.0,89.0,-521.0,448.0,48.0,-309.0,0.942662,-0.059331,0.328464,15096.0,-628.0,4408.0,-4.0,33.0,-15.0
2827.0,2768.0,2890.0,3139.0,3035.0,0.815002,-0.038635,-0.578186,-0.003174,-3.0,1.0,0.0,7527.0,-354.0,2246.0,-195.0,131.0,-444.0,360.0,93.0,-337.0,0.942691,-0.059306,0.328447,14720.0,-620.0,4690.0,-68.0,29.0,17.0
2815.0,2767.0,2896.0,3152.0,3047.0,0.81488,-0.039185,-0.578247,-0.003357,-6.0,-1.0,1.0,7467.0,-367.0,2278.0,-255.0,124.0,-410.0,308.0,85.0,-382.0,0.942667,-0.059979,0.328136,14650.0,-890.0,4772.0,-116.0,-16.0,40.0
2818.0,2771.0,2903.0,3147.0,3043.0,0.814453,-0.040771,-0.578796,-0.00354,-6.0,-3.0,3.0,7510.0,-450.0,2327.0,-215.0,60.0,-349.0,261.0,26.0,-320.0,0.943094,-0.062315,0.326679,15200.0,-1202.0,4670.0,-133.0,-48.0,76.0
2826.0,2771.0,2887.0,3143.0,3045.0,0.814209,-0.041504,-0.579041,-0.003601,-5.0,-2.0,2.0,7553.0,-517.0,2305.0,-173.0,2.0,-365.0,287.0,-31.0,-282.0,0.943219,-0.063415,0.325939,15390.0,-1438.0,4432.0,-100.0,-27.0,61.0
2823.0,2767.0,2894.0,3143.0,3031.0,0.814148,-0.04187,-0.579163,-0.003418,2.0,2.0,-1.0,7580.0,-599.0,2205.0,-147.0,-72.0,-462.0,383.0,-111.0,-284.0,0.943334,-0.064218,0.325666,15046.0,-1280.0,4102.0,46.0,58.0,-16.0
2819.0,2768.0,2906.0,3155.0,3045.0,0.814209,-0.041443,-0.579041,-0.003296,4.0,3.0,-2.0,7564.0,-582.0,2161.0,-162.0,-60.0,-509.0,423.0,-102.0,-314.0,0.943193,-0.063669,0.325942,15062.0,-988.0,4146.0,98.0,73.0,-43.0
2822.0,2765.0,2883.0,3135.0,3051.0,0.814514,-0.0401,-0.578796,-0.003174,3.0,2.0,-2.0,7454.0,-378.0,2182.0,-272.0,127.0,-495.0,383.0,81.0,-426.0,0.94313,-0.06165,0.32683,14606.0,-52.0,4524.0,74.0,47.0,-31.0
2815.0,2767.0,2896.0,3139.0,3035.0,0.814514,-0.039856,-0.578796,-0.003235,0.0,0.0,0.0,7444.0,-277.0,2220.0,-282.0,224.0,-457.0,349.0,180.0,-429.0,0.943134,-0.061182,0.32685,14872.0,32.0,4680.0,5.0,14.0,19.0
2843.0,2768.0,2897.0,3135.0,3029.0,0.814331,-0.040466,-0.578979,-0.003296,-4.0,0.0,3.0,7474.0,-254.0,2215.0,-252.0,254.0,-457.0,361.0,210.0,-402.0,0.943229,-0.062089,0.326291,15104.0,-858.0,4272.0,-74.0,13.0,74.0
2821.0,2759.0,2913.0,3141.0,3039.0,0.814331,-0.040833,-0.578979,-0.003113,-2.0,1.0,2.0,7480.0,-319.0,2178.0,-246.0,196.0,-494.0,394.0,150.0,-405.0,0.943216,-0.062898,0.32626,14986.0,-956.0,4170.0,-23.0,40.0,66.0
2815.0,2768.0,2906.0,3157.0,3055.0,0.814575,-0.04071,-0.578613,-0.002808,1.0,4.0,0.0,7485.0,-291.0,2161.0,-239.0,225.0,-518.0,420.0,178.0,-408.0,0.942877,-0.063074,0.32709,14802.0,-360.0,4286.0,37.0,104.0,20.0
2823.0,2765.0,2879.0,3139.0,3051.0,0.814758,-0.040588,-0.578308,-0.002747,0.0,4.0,1.0,7438.0,-264.0,2177.0,-283.0,251.0,-507.0,396.0,202.0,-448.0,0.942586,-0.062963,0.327751,14644.0,-404.0,4470.0,12.0,93.0,30.0
2821.0,2757.0,2896.0,3135.0,3025.0,0.815125,-0.041077,-0.577759,-0.002441,-2.0,3.0,3.0,7428.0,-291.0,2247.0,-289.0,234.0,-447.0,336.0,189.0,-434.0,0.942091,-0.064144,0.328941,14906.0,-740.0,4596.0,-31.0,79.0,90.0
2827.0,2767.0,2891.0,3167.0,3023.0,0.815247,-0.041504,-0.577576,-0.002075,-2.0,2.0,4.0,7477.0,-344.0,2276.0,-239.0,190.0,-421.0,326.0,149.0,-376.0,0.941905,-0.065275,0.329315,15326.0,-1028.0,4738.0,-25.0,66.0,105.0
2827.0,2759.0,2910.0,3155.0,3045.0,0.815552,-0.042114,-0.577148,-0.001221,0.0,2.0,3.0,7524.0,-458.0,2369.0,-188.0,93.0,-336.0,258.0,60.0,-294.0,0.941492,-0.067284,0.330252,15074.0,-1382.0,5014.0,16.0,62.0,91.0
2807.0,2769.0,2875.0,3143.0,3043.0,0.815735,-0.042236,-0.576904,-0.000732,2.0,2.0,3.0,7526.0,-518.0,2433.0,-184.0,39.0,-277.0,201.0,10.0,-267.0,0.941264,-0.068062,0.330821,15068.0,-1318.0,5308.0,53.0,68.0,80.0
2827.0,2768.0,2885.0,3165.0,3021.0,0.816162,-0.042175,-0.576233,0.000183,1.0,2.0,2.0,7549.0,-540.0,2533.0,-156.0,25.0,-189.0,126.0,4.0,-211.0,0.940583,-0.069055,0.332297,15212.0,-1200.0,5318.0,40.0,63.0,63.0
2819.0,2754.0,2927.0,3135.0,3038.0,0.816284,-0.042297,-0.57605,0.000549,0.0,1.0,2.0,7519.0,-564.0,2558.0,-184.0,6.0,-167.0,95.0,-14.0,-229.0,0.940394,-0.069686,0.332698,14808.0,-1278.0,5246.0,20.0,31.0,65.0
2831.0,2754.0,2899.0,3150.0,3031.0,0.816223,-0.042725,-0.576172,0.001221,0.0,-1.0,2.0,7539.0,-698.0,2582.0,-165.0,-115.0,-141.0,71.0,-132.0,-193.0,0.940465,-0.071152,0.332422,15162.0,-1824.0,5188.0,21.0,-21.0,46.0
2819.0,2759.0,2896.0,3143.0,3056.0,0.816101,-0.042786,-0.576294,0.001587,1.0,-2.0,1.0,7539.0,-754.0,2576.0,-165.0,-166.0,-144.0,72.0,-183.0,-191.0,0.940492,-0.071664,0.332078,15076.0,-1758.0,5108.0,38.0,-26.0,30.0
2823.0,2754.0,2898.0,3131.0,3071.0,0.815796,-0.042969,-0.576782,0.002075,-1.0,-3.0,1.0,7576.0,-746.0,2556.0,-131.0,-152.0,-155.0,95.0,-168.0,-163.0,0.940895,-0.072501,0.331003,15208.0,-1462.0,4988.0,-4.0,-48.0,27.0
2813.0,2775.0,2911.0,3151.0,3023.0,0.815552,-0.043213,-0.577026,0.002136,-2.0,-3.0,1.0,7571.0,-762.0,2529.0,-137.0,-164.0,-176.0,112.0,-182.0,-175.0,0.941005,-0.07295,0.330302,15112.0,-1648.0,4918.0,-32.0,-54.0,26.0
2815.0,2745.0,2909.0,3135.0,3046.0,0.815186,-0.043823,-0.577515,0.002075,-3.0,-1.0,-1.0,7565.0,-770.0,2475.0,-146.0,-165.0,-220.0,150.0,-187.0,-197.0,0.941381,-0.073845,0.329088,14982.0,-1520.0,4692.0,-47.0,-16.0,-7.0
2801.0,2759.0,2887.0,3135.0,3061.0,0.815063,-0.044067,-0.577637,0.001892,-3.0,-1.0,-1.0,7527.0,-754.0,2429.0,-185.0,-147.0,-263.0,179.0,-174.0,-249.0,0.941454,-0.074021,0.328726,14846.0,-1366.0,4634.0,-57.0,-16.0,-16.0
2815.0,2771.0,2891.0,3145.0,3034.0,0.814697,-0.0448,-0.578125,0.001343,-5.0,-2.0,0.0,7459.0,-692.0,2347.0,-256.0,-81.0,-335.0,226.0,-118.0,-344.0,0.941873,-0.074549,0.327498,14676.0,-1254.0,4456.0,-109.0,-43.0,4.0
2812.0,2759.0,2909.0,3142.0,3031.0,0.814392,-0.04541,-0.578491,0.001038,-6.0,-3.0,0.0,7444.0,-686.0,2315.0,-274.0,-70.0,-359.0,244.0,-110.0,-370.0,0.942143,-0.075164,0.326521,14868.0,-1392.0,4422.0,-123.0,-57.0,16.0
2827.0,2751.0,2907.0,3151.0,3039.0,0.813843,-0.04657,-0.579163,0.000732,-4.0,-2.0,1.0,7456.0,-703.0,2242.0,-265.0,-75.0,-418.0,302.0,-120.0,-379.0,0.942626,-0.076649,0.324742,15110.0,-1508.0,4256.0,-83.0,-39.0,23.0
2827.0,2773.0,2885.0,3135.0,3039.0,0.81366,-0.046875,-0.579407,0.000732,-2.0,-1.0,0.0,7495.0,-709.0,2227.0,-228.0,-77.0,-428.0,324.0,-121.0,-347.0,0.942811,-0.077129,0.324133,15186.0,-1376.0,4422.0,-27.0,-10.0,17.0
2811.0,2769.0,2913.0,3153.0,3027.0,0.813538,-0.046814,-0.57959,0.000732,0.0,1.0,0.0,7513.0,-561.0,2238.0,-211.0,69.0,-413.0,323.0,25.0,-337.0,0.942968,-0.077019,0.323728,14968.0,-542.0,4680.0,1.0,24.0,4.0
2815.0,2767.0,2887.0,3139.0,3037.0,0.813538,-0.046814,-0.57959,0.00061,-2.0,0.0,0.0,7490.0,-483.0,2267.0,-234.0,146.0,-384.0,293.0,103.0,-356.0,0.942979,-0.076877,0.323728,14872.0,-506.0,4724.0,-37.0,17.0,12.0
2807.0,2755.0,2917.0,3159.0,3055.0,0.813354,-0.047546,-0.579773,0.000122,-5.0,-1.0,1.0,7487.0,-431.0,2331.0,-238.0,203.0,-316.0,231.0,164.0,-342.0,0.94311,-0.077486,0.323148,15058.0,-964.0,4818.0,-111.0,-21.0,35.0
2815.0,2755.0,2883.0,3155.0,3026.0,0.813232,-0.048096,-0.579956,-0.000122,-5.0,-2.0,1.0,7495.0,-470.0,2339.0,-232.0,169.0,-304.0,220.0,131.0,-330.0,0.94329,-0.078084,0.322685,15032.0,-1192.0,4730.0,-102.0,-23.0,31.0
2821.0,2780.0,2821.0,3139.0,3071.0,0.812988,-0.048828,-0.580261,-0.000305,-2.0,-1.0,0.0,7523.0,-579.0,2358.0,-206.0,68.0,-278.0,198.0,33.0,-289.0,0.943521,-0.079039,0.321863,15124.0,-1560.0,4684.0,-39.0,-12.0,11.0
2831.0,2779.0,2879.0,3123.0,3046.0,0.812927,-0.048889,-0.580322,-0.000305,0.0,-1.0,0.0,7512.0,-596.0,2362.0,-217.0,52.0,-273.0,189.0,17.0,-296.0,0.943549,-0.079132,0.321687,14882.0,-1162.0,4748.0,11.0,-6.0,1.0
2823.0,2768.0,2875.0,3149.0,3024.0,0.812683,-0.048828,-0.580688,-0.000244,-1.0,-2.0,0.0,7501.0,-560.0,2399.0,-231.0,87.0,-229.0,145.0,55.0,-298.0,0.943855,-0.07908,0.320871,15036.0,-1076.0,4850.0,-12.0,-41.0,8.0
2835.0,2779.0,2879.0,3143.0,3039.0,0.8125,-0.048889,-0.580872,-0.000305,-1.0,-2.0,0.0,7522.0,-564.0,2408.0,-210.0,83.0,-216.0,140.0,53.0,-273.0,0.943946,-0.07909,0.320354,15158.0,-1164.0,4818.0,-21.0,-35.0,10.0
2807.0,2775.0,2891.0,3139.0,3055.0,0.812195,-0.049194,-0.581299,-0.000366,-2.0,-2.0,0.0,7521.0,-570.0,2373.0,-214.0,81.0,-242.0,163.0,49.0,-285.0,0.944292,-0.079485,0.319332,15028.0,-1226.0,4602.0,-29.0,-29.0,20.0
2815.0,2770.0,2897.0,3139.0,3053.0,0.812012,-0.049377,-0.581482,-0.000305,-1.0,-2.0,1.0,7506.0,-587.0,2332.0,-230.0,67.0,-279.0,192.0,31.0,-311.0,0.94437,-0.079835,0.318804,14920.0,-1296.0,4378.0,-22.0,-32.0,25.0
2795.0,2759.0,2891.0,3155.0,3035.0,0.811646,-0.049622,-0.582031,-0.000122,-1.0,-1.0,1.0,7510.0,-613.0,2263.0,-229.0,45.0,-338.0,248.0,4.0,-327.0,0.944818,-0.080408,0.317546,14934.0,-1268.0,4256.0,0.0,-21.0,23.0
2815.0,2770.0,2896.0,3154.0,3028.0,0.811523,-0.049683,-0.582214,0.0,0.0,-1.0,0.0,7501.0,-630.0,2223.0,-240.0,30.0,-374.0,277.0,-14.0,-347.0,0.944961,-0.080637,0.317128,15004.0,-1358.0,4214.0,9.0,-17.0,15.0
2811.0,2779.0,2896.0,3147.0,3027.0,0.81134,-0.049622,-0.582458,0.000122,0.0,0.0,-1.0,7494.0,-637.0,2202.0,-248.0,23.0,-391.0,291.0,-22.0,-360.0,0.945132,-0.080662,0.316553,14838.0,-1244.0,4360.0,13.0,15.0,-4.0
2827.0,2771.0,2882.0,3123.0,3056.0,0.811279,-0.049561,-0.58252,0.000122,0.0,0.0,-1.0,7493.0,-643.0,2221.0,-249.0,16.0,-370.0,270.0,-28.0,-353.0,0.94516,-0.080557,0.316389,14962.0,-1320.0,4600.0,10.0,14.0,-8.0
2821.0,2743.0,2877.0,3150.0,3024.0,0.811279,-0.049683,-0.582581,6.1e-05,-3.0,-1.0,1.0,7475.0,-591.0,2286.0,-268.0,69.0,-305.0,206.0,28.0,-355.0,0.945265,-0.080684,0.316306,15028.0,-1300.0,4864.0,-50.0,-5.0,23.0
2823.0,2764.0,2897.0,3143.0,3015.0,0.811218,-0.050049,-0.582642,6.1e-05,-2.0,-1.0,1.0,7474.0,-643.0,2287.0,-269.0,22.0,-302.0,200.0,-18.0,-351.0,0.945293,-0.081272,0.316099,14900.0,-1588.0,4548.0,-43.0,-8.0,38.0
2807.0,2771.0,2891.0,3155.0,3037.0,0.810913,-0.050415,-0.582947,0.000366,0.0,-2.0,0.0,7494.0,-711.0,2303.0,-250.0,-37.0,-279.0,181.0,-74.0,-321.0,0.945401,-0.082191,0.315212,15116.0,-1504.0,4710.0,18.0,-24.0,15.0
2823.0,2759.0,2896.0,3153.0,3039.0,0.810852,-0.050293,-0.583069,0.000488,1.0,-2.0,0.0,7518.0,-693.0,2333.0,-227.0,-20.0,-247.0,159.0,-53.0,-290.0,0.945516,-0.08213,0.314983,15182.0,-1192.0,4864.0,37.0,-23.0,2.0
2826.0,2755.0,2899.0,3139.0,3039.0,0.810669,-0.050049,-0.583374,0.000549,0.0,-1.0,-1.0,7567.0,-632.0,2379.0,-180.0,37.0,-196.0,130.0,10.0,-234.0,0.945791,-0.081787,0.314354,15170.0,-1182.0,4786.0,6.0,-15.0,-6.0
2818.0,2762.0,2883.0,3147.0,3053.0,0.810547,-0.050049,-0.583496,0.000488,-1.0,-2.0,-1.0,7558.0,-633.0,2376.0,-190.0,36.0,-196.0,126.0,8.0,-244.0,0.945853,-0.081704,0.314014,15056.0,-1302.0,4756.0,-5.0,-23.0,-4.0
2823.0,2773.0,2911.0,3135.0,3047.0,0.810303,-0.050232,-0.583862,0.000488,-2.0,-2.0,0.0,7542.0,-631.0,2341.0,-208.0,40.0,-224.0,148.0,9.0,-270.0,0.946161,-0.081976,0.313172,14992.0,-1204.0,4560.0,-27.0,-30.0,10.0
2823.0,2770.0,2907.0,3123.0,3031.0,0.81012,-0.050415,-0.584045,0.000427,-2.0,-2.0,0.0,7537.0,-666.0,2304.0,-214.0,7.0,-257.0,175.0,-26.0,-283.0,0.94625,-0.082183,0.312643,15076.0,-1614.0,4386.0,-39.0,-25.0,10.0
2815.0,2763.0,2897.0,3153.0,3031.0,0.809875,-0.05072,-0.584412,0.000427,0.0,-1.0,-1.0,7463.0,-734.0,2211.0,-291.0,-56.0,-343.0,229.0,-101.0,-377.0,0.946558,-0.082653,0.311789,14814.0,-1610.0,4214.0,1.0,-17.0,-3.0
2811.0,2763.0,2893.0,3151.0,3047.0,0.809753,-0.050659,-0.584595,0.000549,1.0,-1.0,-1.0,7478.0,-760.0,2181.0,-277.0,-82.0,-369.0,256.0,-128.0,-370.0,0.9467,-0.082685,0.311384,15064.0,-1614.0,4198.0,35.0,-2.0,-9.0
2823.0,2774.0,2899.0,3149.0,3051.0,0.809692,-0.049988,-0.584717,0.000854,3.0,0.0,-1.0,7445.0,-666.0,2112.0,-311.0,5.0,-437.0,315.0,-48.0,-430.0,0.946796,-0.081949,0.31121,14914.0,-892.0,4116.0,77.0,13.0,-7.0
2825.0,2766.0,2882.0,3135.0,3055.0,0.809631,-0.049683,-0.584839,0.001099,2.0,0.0,1.0,7459.0,-586.0,2102.0,-297.0,83.0,-445.0,332.0,29.0,-426.0,0.946899,-0.081734,0.310999,14990.0,-702.0,4150.0,62.0,22.0,27.0
2819.0,2761.0,2896.0,3143.0,3055.0,0.809692,-0.049561,-0.584717,0.001526,0.0,1.0,2.0,7452.0,-469.0,2107.0,-303.0,203.0,-442.0,334.0,148.0,-441.0,0.94673,-0.082042,0.311254,14870.0,-684.0,4270.0,12.0,40.0,60.0
2815.0,2763.0,2895.0,3127.0,3051.0,0.809753,-0.049683,-0.584656,0.001709,-1.0,1.0,2.0,7478.0,-461.0,2129.0,-277.0,214.0,-422.0,323.0,162.0,-411.0,0.946684,-0.08246,0.311413,15196.0,-936.0,4402.0,-12.0,42.0,61.0
2829.0,2771.0,2907.0,3135.0,3055.0,0.809998,-0.05011,-0.584229,0.001892,-2.0,3.0,1.0,7525.0,-515.0,2180.0,-226.0,168.0,-378.0,295.0,123.0,-345.0,0.946258,-0.083389,0.312266,15094.0,-1374.0,4536.0,-23.0,82.0,44.0
2819.0,2768.0,2883.0,3142.0,3051.0,0.810242,-0.050232,-0.583923,0.002014,-1.0,3.0,1.0,7514.0,-584.0,2210.0,-235.0,102.0,-354.0,265.0,58.0,-341.0,0.946036,-0.083752,0.313006,14922.0,-1578.0,4646.0,-1.0,88.0,27.0
2811.0,2757.0,2891.0,3155.0,3023.0,0.810669,-0.050232,-0.583374,0.002319,1.0,2.0,0.0,7498.0,-620.0,2338.0,-248.0,69.0,-237.0,148.0,34.0,-314.0,0.945613,-0.084149,0.314341,14994.0,-1236.0,5076.0,28.0,59.0,16.0
2830.0,2768.0,2886.0,3134.0,3043.0,0.810791,-0.050171,-0.58313,0.002441,0.0,1.0,1.0,7511.0,-622.0,2407.0,-233.0,67.0,-172.0,91.0,38.0,-280.0,0.945348,-0.084204,0.31483,15148.0,-1244.0,5266.0,18.0,39.0,23.0
2819.0,2774.0,2881.0,3135.0,3047.0,0.810974,-0.050354,-0.582886,0.002686,-1.0,0.0,1.0,7513.0,-621.0,2529.0,-229.0,73.0,-54.0,-18.0,53.0,-239.0,0.94514,-0.084802,0.315395,14952.0,-1430.0,5338.0,-19.0,2.0,39.0
2819.0,2767.0,2887.0,3151.0,3035.0,0.810974,-0.050537,-0.582886,0.002808,-1.0,-2.0,1.0,7519.0,-664.0,2571.0,-223.0,34.0,-12.0,-58.0,18.0,-217.0,0.945127,-0.085242,0.315377,15084.0,-1580.0,5372.0,-19.0,-25.0,40.0
2815.0,2762.0,2907.0,3151.0,3035.0,0.810791,-0.050842,-0.58313,0.003052,-1.0,-2.0,0.0,7565.0,-700.0,2599.0,-178.0,4.0,20.0,-75.0,-5.0,-162.0,0.945283,-0.086004,0.314766,15354.0,-1432.0,5150.0,-12.0,-42.0,14.0
2831.0,2773.0,2903.0,3145.0,3051.0,0.810669,-0.051025,-0.583252,0.002991,-2.0,-2.0,-1.0,7599.0,-726.0,2580.0,-145.0,-19.0,4.0,-51.0,-27.0,-134.0,0.945343,-0.086218,0.314407,15350.0,-1624.0,5018.0,-26.0,-36.0,-2.0
2838.0,2769.0,2910.0,3123.0,3061.0,0.810425,-0.051208,-0.583618,0.002747,-1.0,-2.0,-2.0,7565.0,-809.0,2475.0,-181.0,-102.0,-93.0,24.0,-120.0,-191.0,0.945676,-0.086207,0.313563,14854.0,-1872.0,4524.0,-17.0,-28.0,-28.0
2827.0,2767.0,2905.0,3143.0,3039.0,0.810242,-0.05127,-0.583801,0.002686,0.0,-2.0,-2.0,7530.0,-848.0,2428.0,-217.0,-141.0,-136.0,51.0,-165.0,-235.0,0.945765,-0.086217,0.313046,14880.0,-1902.0,4560.0,4.0,-39.0,-37.0
2813.0,2755.0,2923.0,3141.0,3051.0,0.809875,-0.051147,-0.584351,0.002563,-1.0,-3.0,-2.0,7500.0,-773.0,2356.0,-251.0,-69.0,-198.0,104.0,-100.0,-293.0,0.94624,-0.085842,0.311823,14980.0,-1194.0,4548.0,-19.0,-52.0,-26.0
2815.0,2765.0,2891.0,3143.0,3055.0,0.809631,-0.05127,-0.584656,0.002319,-3.0,-3.0,-1.0,7486.0,-766.0,2316.0,-267.0,-63.0,-232.0,131.0,-98.0,-319.0,0.946473,-0.085731,0.311057,14842.0,-1610.0,4352.0,-49.0,-53.0,-15.0
2803.0,2759.0,2877.0,3135.0,3037.0,0.809082,-0.051514,-0.585449,0.002136,-1.0,-4.0,-2.0,7468.0,-801.0,2263.0,-290.0,-97.0,-270.0,159.0,-136.0,-349.0,0.947133,-0.085859,0.309214,15106.0,-1542.0,4524.0,-5.0,-71.0,-29.0
2807.0,2745.0,2895.0,3155.0,3011.0,0.808838,-0.051392,-0.585754,0.001953,-1.0,-3.0,-3.0,7509.0,-752.0,2271.0,-251.0,-52.0,-256.0,160.0,-88.0,-312.0,0.94736,-0.085423,0.308473,15248.0,-1184.0,4600.0,-2.0,-51.0,-46.0
2805.0,2778.0,2917.0,3141.0,3031.0,0.808533,-0.051331,-0.586243,0.001282,-3.0,-2.0,-3.0,7532.0,-676.0,2280.0,-232.0,16.0,-238.0,154.0,-17.0,-294.0,0.947861,-0.084508,0.307411,15076.0,-1266.0,4588.0,-50.0,-32.0,-47.0
2814.0,2767.0,2899.0,3151.0,3029.0,0.80835,-0.051392,-0.586426,0.000916,-3.0,-2.0,-3.0,7522.0,-685.0,2265.0,-243.0,4.0,-249.0,160.0,-31.0,-307.0,0.94798,-0.084159,0.306894,14990.0,-1470.0,4462.0,-47.0,-30.0,-50.0
2805.0,2775.0,2899.0,3150.0,3051.0,0.808044,-0.05127,-0.586914,0.000427,0.0,-2.0,-3.0,7501.0,-682.0,2251.0,-268.0,0.0,-254.0,157.0,-37.0,-331.0,0.948461,-0.083358,0.305839,15080.0,-1214.0,4528.0,2.0,-43.0,-49.0
2807.0,2778.0,2883.0,3151.0,3029.0,0.807861,-0.051025,-0.587158,0.000305,0.0,-2.0,-2.0,7488.0,-648.0,2258.0,-283.0,30.0,-242.0,143.0,-7.0,-344.0,0.948654,-0.082801,0.305282,14842.0,-1090.0,4538.0,15.0,-39.0,-40.0
2821.0,2769.0,2886.0,3143.0,3035.0,0.807434,-0.050598,-0.587769,0.000244,1.0,-3.0,-1.0,7514.0,-614.0,2263.0,-261.0,57.0,-226.0,137.0,22.0,-321.0,0.949144,-0.081996,0.303918,15270.0,-1148.0,4610.0,38.0,-54.0,-18.0
2823.0,2768.0,2898.0,3153.0,3047.0,0.807312,-0.050293,-0.587952,0.000305,2.0,-2.0,-1.0,7533.0,-585.0,2271.0,-243.0,83.0,-215.0,133.0,50.0,-302.0,0.94929,-0.081563,0.303536,15138.0,-992.0,4560.0,54.0,-28.0,-17.0
2828.0,2763.0,2910.0,3167.0,3047.0,0.807129,-0.049744,-0.588257,0.000244,0.0,-2.0,-1.0,7553.0,-515.0,2266.0,-225.0,145.0,-215.0,143.0,113.0,-290.0,0.949574,-0.080586,0.302937,15496.0,-1164.0,4614.0,13.0,-35.0,-10.0
2819.0,2771.0,2896.0,3125.0,3023.0,0.807007,-0.049622,-0.58844,0.000305,1.0,-1.0,-1.0,7501.0,-551.0,2191.0,-279.0,108.0,-287.0,193.0,68.0,-360.0,0.94972,-0.080449,0.302536,14594.0,-1214.0,3758.0,27.0,-13.0,-10.0
2799.0,2763.0,2903.0,3171.0,3023.0,0.806763,-0.049072,-0.588806,0.000366,3.0,-1.0,-2.0,7514.0,-626.0,2164.0,-268.0,26.0,-308.0,211.0,-14.0,-349.0,0.950018,-0.079611,0.301765,15042.0,-1292.0,4262.0,78.0,-7.0,-42.0
2822.0,2771.0,2887.0,3151.0,3049.0,0.806763,-0.048523,-0.588867,0.000427,3.0,0.0,-3.0,7509.0,-587.0,2174.0,-274.0,58.0,-297.0,201.0,18.0,-354.0,0.950111,-0.078796,0.301747,15030.0,-880.0,4426.0,83.0,11.0,-55.0
2821.0,2763.0,2883.0,3141.0,3038.0,0.806763,-0.047791,-0.588928,0.000244,0.0,0.0,-2.0,7501.0,-492.0,2193.0,-283.0,142.0,-278.0,185.0,103.0,-363.0,0.950227,-0.077399,0.301746,14946.0,-710.0,4444.0,15.0,14.0,-24.0
2823.0,2758.0,2882.0,3111.0,3019.0,0.806763,-0.047668,-0.588989,6.1e-05,-1.0,0.0,-1.0,7503.0,-488.0,2194.0,-282.0,142.0,-277.0,184.0,104.0,-362.0,0.950343,-0.076986,0.301685,15040.0,-1012.0,4454.0,-11.0,10.0,-9.0
2809.0,2763.0,2903.0,3147.0,3057.0,0.806763,-0.047607,-0.588928,6.1e-05,0.0,0.0,0.0,7506.0,-525.0,2198.0,-278.0,104.0,-274.0,181.0,66.0,-354.0,0.950245,-0.076888,0.301763,15126.0,-1208.0,4456.0,12.0,15.0,9.0
2827.0,2767.0,2887.0,3139.0,3055.0,0.806763,-0.047546,-0.588928,0.000183,1.0,1.0,0.0,7500.0,-524.0,2204.0,-284.0,106.0,-268.0,173.0,69.0,-358.0,0.950233,-0.076933,0.301769,14896.0,-998.0,4450.0,28.0,24.0,14.0
2827.0,2766.0,2898.0,3147.0,3027.0,0.806763,-0.047424,-0.588989,0.000488,1.0,-1.0,1.0,7484.0,-554.0,2237.0,-300.0,77.0,-234.0,134.0,41.0,-361.0,0.950303,-0.077096,0.301709,15060.0,-1106.0,4650.0,35.0,-10.0,23.0
2807.0,2757.0,2869.0,3143.0,3037.0,0.806702,-0.047302,-0.58905,0.000671,1.0,-1.0,0.0,7515.0,-552.0,2260.0,-269.0,79.0,-210.0,121.0,47.0,-325.0,0.950312,-0.077109,0.30155,15244.0,-1154.0,4516.0,34.0,-9.0,19.0
2827.0,2763.0,2890.0,3135.0,3027.0,0.806702,-0.047119,-0.58905,0.000671,-2.0,0.0,0.0,7532.0,-474.0,2337.0,-252.0,155.0,-133.0,57.0,130.0,-291.0,0.950312,-0.076813,0.301568,15040.0,-918.0,4736.0,-23.0,1.0,1.0
2815.0,2775.0,2894.0,3143.0,3047.0,0.806702,-0.047241,-0.58905,0.000549,-2.0,-1.0,0.0,7521.0,-520.0,2332.0,-264.0,109.0,-138.0,56.0,83.0,-300.0,0.950324,-0.076866,0.301556,15022.0,-1380.0,4650.0,-37.0,-9.0,2.0
2823.0,2770.0,2891.0,3155.0,3057.0,0.80658,-0.047241,-0.589172,0.00061,1.0,0.0,-1.0,7568.0,-598.0,2326.0,-217.0,32.0,-141.0,69.0,8.0,-251.0,0.950371,-0.076927,0.301215,15350.0,-1260.0,4668.0,32.0,3.0,-11.0
2815.0,2765.0,2879.0,3151.0,3027.0,0.806641,-0.046997,-0.589172,0.000671,2.0,1.0,-1.0,7579.0,-597.0,2319.0,-206.0,30.0,-149.0,80.0,7.0,-242.0,0.950438,-0.076611,0.301337,15122.0,-1144.0,4552.0,46.0,23.0,-12.0
2819.0,2768.0,2896.0,3135.0,3031.0,0.806641,-0.046753,-0.589233,0.000732,-1.0,-1.0,0.0,7504.0,-536.0,2297.0,-282.0,88.0,-171.0,81.0,58.0,-326.0,0.950531,-0.076289,0.301288,14918.0,-1072.0,4574.0,-3.0,-21.0,10.0
2817.0,2769.0,2905.0,3143.0,3061.0,0.806458,-0.046875,-0.589417,0.000793,-1.0,-2.0,1.0,7494.0,-553.0,2287.0,-293.0,74.0,-176.0,81.0,43.0,-337.0,0.950604,-0.076541,0.300765,14950.0,-1224.0,4500.0,-19.0,-39.0,32.0
2821.0,2767.0,2890.0,3151.0,3051.0,0.806152,-0.047302,-0.589783,0.001038,-1.0,-2.0,1.0,7496.0,-599.0,2267.0,-293.0,35.0,-188.0,91.0,3.0,-337.0,0.950811,-0.07749,0.299802,14932.0,-1418.0,4358.0,-17.0,-30.0,36.0
2815.0,2758.0,2879.0,3135.0,3051.0,0.80603,-0.047485,-0.589966,0.001221,0.0,-2.0,1.0,7498.0,-655.0,2236.0,-292.0,-16.0,-216.0,115.0,-49.0,-341.0,0.950945,-0.07799,0.299372,15028.0,-1640.0,4312.0,3.0,-32.0,26.0
2815.0,2751.0,2895.0,3135.0,3038.0,0.805847,-0.047302,-0.590271,0.001709,3.0,0.0,0.0,7563.0,-722.0,2201.0,-229.0,-80.0,-246.0,160.0,-111.0,-285.0,0.951175,-0.078254,0.298735,15310.0,-1496.0,4334.0,76.0,1.0,6.0
2819.0,2767.0,2897.0,3141.0,3049.0,0.805847,-0.046936,-0.590271,0.002014,3.0,0.0,-1.0,7558.0,-685.0,2187.0,-233.0,-45.0,-260.0,174.0,-77.0,-295.0,0.951147,-0.078024,0.298771,14962.0,-1086.0,4318.0,85.0,21.0,-3.0
2820.0,2766.0,2897.0,3152.0,3043.0,0.805664,-0.046509,-0.590515,0.002319,1.0,-2.0,0.0,7439.0,-657.0,2161.0,-354.0,-20.0,-282.0,160.0,-61.0,-419.0,0.951298,-0.07768,0.298229,14570.0,-1446.0,4198.0,25.0,-44.0,12.0
2814.0,2766.0,2897.0,3139.0,3043.0,0.80542,-0.04657,-0.590881,0.002563,1.0,-4.0,1.0,7415.0,-721.0,2138.0,-380.0,-81.0,-298.0,164.0,-124.0,-443.0,0.951576,-0.078046,0.297398,14748.0,-1866.0,4170.0,35.0,-81.0,25.0
2819.0,2768.0,2895.0,3142.0,3039.0,0.804749,-0.046082,-0.591797,0.00354,4.0,-4.0,0.0,7505.0,-702.0,2183.0,-295.0,-60.0,-235.0,132.0,-93.0,-345.0,0.952169,-0.078358,0.295286,15614.0,-898.0,4716.0,114.0,-85.0,12.0
2822.0,2764.0,2895.0,3143.0,3047.0,0.804626,-0.045532,-0.59198,0.003723,3.0,-1.0,-1.0,7616.0,-587.0,2231.0,-185.0,49.0,-185.0,123.0,24.0,-234.0,0.952306,-0.077681,0.294924,15826.0,-480.0,4740.0,84.0,-22.0,-12.0
2823.0,2767.0,2887.0,3143.0,3044.0,0.804871,-0.045105,-0.591736,0.003357,-2.0,2.0,-1.0,7693.0,-460.0,2277.0,-107.0,167.0,-144.0,113.0,150.0,-157.0,0.952239,-0.07658,0.295642,15482.0,-620.0,4690.0,-32.0,62.0,-21.0
2821.0,2767.0,2883.0,3147.0,3061.0,0.805054,-0.045166,-0.591431,0.00293,-4.0,3.0,-2.0,7668.0,-440.0,2283.0,-130.0,184.0,-144.0,107.0,165.0,-180.0,0.952002,-0.076188,0.29629,15086.0,-834.0,4542.0,-74.0,85.0,-29.0
2819.0,2763.0,2899.0,3127.0,3023.0,0.80542,-0.045776,-0.590942,0.002075,-4.0,2.0,-2.0,7524.0,-569.0,2244.0,-272.0,55.0,-192.0,103.0,25.0,-320.0,0.951724,-0.076191,0.297397,14572.0,-1646.0,4388.0,-80.0,49.0,-25.0
2827.0,2768.0,2896.0,3151.0,3039.0,0.80542,-0.046021,-0.590881,0.001953,-2.0,0.0,-1.0,7457.0,-653.0,2212.0,-338.0,-26.0,-224.0,109.0,-61.0,-386.0,0.951635,-0.07644,0.297446,14576.0,-1766.0,4270.0,-39.0,8.0,-15.0
2815.0,2768.0,2899.0,3151.0,3047.0,0.805237,-0.046021,-0.591187,0.002197,2.0,-2.0,0.0,7448.0,-673.0,2256.0,-349.0,-44.0,-175.0,59.0,-76.0,-380.0,0.951888,-0.076713,0.296792,15024.0,-962.0,4804.0,47.0,-43.0,5.0
2815.0,2768.0,2896.0,3147.0,3047.0,0.805115,-0.045776,-0.591309,0.002258,1.0,-2.0,0.0,7505.0,-584.0,2312.0,-293.0,41.0,-116.0,24.0,15.0,-316.0,0.951936,-0.076381,0.296474,15400.0,-616.0,4960.0,32.0,-39.0,1.0
2822.0,2767.0,2895.0,3143.0,3041.0,0.805054,-0.045654,-0.59137,0.002014,-2.0,0.0,-1.0,7620.0,-496.0,2353.0,-178.0,125.0,-74.0,23.0,109.0,-200.0,0.951985,-0.075891,0.296313,15480.0,-892.0,4734.0,-37.0,12.0,-12.0
2820.0,2771.0,2899.0,3147.0,3043.0,0.805176,-0.045776,-0.591309,0.001709,-2.0,1.0,-2.0,7611.0,-514.0,2328.0,-188.0,106.0,-101.0,45.0,87.0,-216.0,0.952058,-0.075737,0.29657,15062.0,-1242.0,4464.0,-45.0,35.0,-23.0
2819.0,2771.0,2897.0,3155.0,3055.0,0.805176,-0.045776,-0.591187,0.001343,0.0,0.0,-2.0,7546.0,-603.0,2265.0,-251.0,13.0,-165.0,82.0,-13.0,-288.0,0.951895,-0.075304,0.296713,14936.0,-1292.0,4440.0,3.0,16.0,-36.0
2815.0,2763.0,2899.0,3151.0,3047.0,0.805237,-0.045654,-0.591187,0.001221,0.0,0.0,-2.0,7508.0,-602.0,2249.0,-290.0,12.0,-182.0,86.0,-17.0,-330.0,0.951979,-0.074968,0.296822,14722.0,-1188.0,4388.0,6.0,12.0,-36.0
2821.0,2771.0,2896.0,3143.0,3047.0,0.804993,-0.045593,-0.591492,0.001221,0.0,-2.0,0.0,7454.0,-648.0,2216.0,-346.0,-34.0,-209.0,93.0,-68.0,-388.0,0.952182,-0.074849,0.296074,14960.0,-1206.0,4470.0,20.0,-41.0,2.0
2819.0,2768.0,2902.0,3154.0,3043.0,0.804871,-0.045532,-0.591675,0.001282,0.0,-2.0,-1.0,7486.0,-599.0,2232.0,-315.0,13.0,-190.0,87.0,-18.0,-357.0,0.952327,-0.074812,0.295666,15188.0,-902.0,4552.0,12.0,-33.0,-1.0
2819.0,2768.0,2902.0,3152.0,3055.0,0.804749,-0.045532,-0.591858,0.001038,-2.0,0.0,-1.0,7568.0,-530.0,2234.0,-234.0,80.0,-184.0,109.0,53.0,-283.0,0.952499,-0.074512,0.295252,15378.0,-850.0,4498.0,-32.0,15.0,-14.0
2820.0,2763.0,2896.0,3151.0,3039.0,0.80481,-0.045593,-0.591736,0.000732,-2.0,2.0,-2.0,7584.0,-516.0,2231.0,-218.0,92.0,-189.0,119.0,65.0,-270.0,0.952403,-0.074255,0.295489,15232.0,-970.0,4428.0,-43.0,48.0,-31.0
2815.0,2763.0,2896.0,3139.0,3042.0,0.805115,-0.045654,-0.59137,6.1e-05,-2.0,2.0,-2.0,7562.0,-544.0,2212.0,-238.0,58.0,-216.0,137.0,29.0,-294.0,0.952235,-0.073586,0.296407,14914.0,-1260.0,4386.0,-29.0,65.0,-40.0
2826.0,2767.0,2895.0,3151.0,3053.0,0.805237,-0.045593,-0.591187,-0.000122,-1.0,2.0,-2.0,7516.0,-557.0,2209.0,-283.0,43.0,-222.0,128.0,11.0,-338.0,0.952101,-0.073282,0.296826,14768.0,-1212.0,4460.0,-12.0,47.0,-44.0
2799.0,2768.0,2897.0,3153.0,3047.0,0.805359,-0.045349,-0.591064,-0.000427,0.0,0.0,-2.0,7488.0,-596.0,2235.0,-311.0,-1.0,-199.0,95.0,-32.0,-355.0,0.952077,-0.07254,0.297189,14922.0,-1334.0,4540.0,16.0,14.0,-31.0
2819.0,2763.0,2896.0,3143.0,3043.0,0.805359,-0.045166,-0.591064,-0.000366,1.0,-1.0,-1.0,7486.0,-601.0,2263.0,-313.0,-8.0,-171.0,68.0,-37.0,-348.0,0.952071,-0.072317,0.297206,14994.0,-1184.0,4722.0,42.0,0.0,-20.0
2823.0,2767.0,2897.0,3147.0,3045.0,0.80542,-0.044617,-0.591064,-0.000244,1.0,-1.0,0.0,7520.0,-470.0,2347.0,-279.0,116.0,-88.0,5.0,94.0,-300.0,0.952132,-0.071582,0.297353,15160.0,-360.0,4942.0,26.0,-4.0,0.0
2821.0,2765.0,2891.0,3153.0,3053.0,0.80542,-0.044556,-0.591064,-0.000366,-2.0,-1.0,0.0,7528.0,-420.0,2357.0,-271.0,164.0,-78.0,1.0,143.0,-292.0,0.952143,-0.071339,0.297359,15106.0,-664.0,4710.0,-30.0,-9.0,14.0
2797.0,2768.0,2895.0,3150.0,3054.0,0.805359,-0.044861,-0.591064,-0.000549,-1.0,0.0,-1.0,7567.0,-488.0,2323.0,-232.0,98.0,-111.0,41.0,77.0,-260.0,0.952087,-0.071609,0.297234,15130.0,-1220.0,4450.0,-21.0,15.0,-3.0
2815.0,2765.0,2901.0,3142.0,3039.0,0.805359,-0.044861,-0.591064,-0.00061,-1.0,0.0,-1.0,7540.0,-525.0,2277.0,-259.0,61.0,-157.0,74.0,35.0,-297.0,0.952093,-0.071537,0.297234,14880.0,-1270.0,4290.0,-1.0,19.0,-19.0
2815.0,2768.0,2899.0,3147.0,3043.0,0.805298,-0.044739,-0.591187,-0.000732,0.0,-1.0,-2.0,7497.0,-587.0,2225.0,-303.0,-3.0,-208.0,106.0,-33.0,-350.0,0.952228,-0.07119,0.297002,14996.0,-1314.0,4396.0,16.0,-12.0,-23.0
2825.0,2766.0,2883.0,3159.0,3051.0,0.805237,-0.044556,-0.591309,-0.000732,1.0,-1.0,-2.0,7510.0,-589.0,2223.0,-291.0,-8.0,-208.0,110.0,-38.0,-338.0,0.952352,-0.07089,0.296776,15110.0,-1150.0,4454.0,25.0,-9.0,-23.0
2818.0,2771.0,2902.0,3151.0,3039.0,0.805237,-0.044312,-0.591309,-0.000793,0.0,0.0,-1.0,7516.0,-571.0,2246.0,-285.0,5.0,-185.0,90.0,-22.0,-326.0,0.952357,-0.070424,0.296798,14886.0,-1148.0,4492.0,5.0,17.0,-15.0
2817.0,2767.0,2898.0,3143.0,3053.0,0.805237,-0.04425,-0.591309,-0.000854,0.0,0.0,-1.0,7506.0,-572.0,2255.0,-295.0,3.0,-176.0,79.0,-24.0,-333.0,0.952363,-0.070254,0.296803,14992.0,-1170.0,4590.0,4.0,3.0,-5.0
2815.0,2768.0,2897.0,3146.0,3043.0,0.805237,-0.044067,-0.591248,-0.000793,0.0,0.0,-1.0,7511.0,-548.0,2285.0,-289.0,25.0,-147.0,54.0,0.0,-320.0,0.952259,-0.070031,0.296891,14994.0,-908.0,4722.0,22.0,9.0,-18.0
2819.0,2770.0,2891.0,3151.0,3047.0,0.805298,-0.043884,-0.591248,-0.000916,0.0,-1.0,-2.0,7515.0,-539.0,2296.0,-286.0,31.0,-137.0,46.0,6.0,-315.0,0.952341,-0.069597,0.297006,15056.0,-1078.0,4658.0,15.0,-2.0,-27.0
2815.0,2771.0,2901.0,3153.0,3047.0,0.805176,-0.043335,-0.591431,-0.000977,2.0,-1.0,-3.0,7546.0,-583.0,2286.0,-256.0,-20.0,-144.0,59.0,-42.0,-285.0,0.952496,-0.068629,0.296641,15278.0,-1258.0,4534.0,63.0,-11.0,-51.0
2818.0,2768.0,2899.0,3149.0,3043.0,0.805176,-0.042786,-0.591492,-0.000977,3.0,0.0,-3.0,7567.0,-574.0,2283.0,-236.0,-19.0,-146.0,67.0,-40.0,-266.0,0.952593,-0.067745,0.296616,15260.0,-1088.0,4526.0,81.0,2.0,-66.0
2819.0,2768.0,2885.0,3143.0,3043.0,0.805298,-0.041382,-0.59137,-0.001099,5.0,2.0,-5.0,7608.0,-632.0,2226.0,-195.0,-96.0,-207.0,133.0,-118.0,-240.0,0.952548,-0.06535,0.297075,15206.0,-1498.0,4204.0,134.0,56.0,-113.0
2823.0,2766.0,2895.0,3143.0,3057.0,0.805542,-0.040283,-0.591187,-0.001038,8.0,3.0,-7.0,7592.0,-637.0,2217.0,-211.0,-115.0,-222.0,142.0,-139.0,-259.0,0.952535,-0.063673,0.297775,15082.0,-1174.0,4460.0,185.0,75.0,-141.0
2818.0,2766.0,2907.0,3155.0,3039.0,0.806091,-0.038025,-0.590576,-0.001404,3.0,3.0,-5.0,7558.0,-381.0,2318.0,-242.0,107.0,-135.0,60.0,87.0,-277.0,0.952223,-0.059645,0.299559,14942.0,172.0,4936.0,82.0,69.0,-105.0
2823.0,2768.0,2898.0,3143.0,3043.0,0.806274,-0.037659,-0.590393,-0.001892,-3.0,1.0,-3.0,7523.0,-276.0,2349.0,-277.0,203.0,-109.0,29.0,184.0,-308.0,0.95218,-0.058492,0.3001,14902.0,-130.0,4854.0,-47.0,38.0,-53.0
2811.0,2771.0,2896.0,3151.0,3047.0,0.806396,-0.03833,-0.590149,-0.002869,-4.0,1.0,-2.0,7458.0,-423.0,2306.0,-340.0,55.0,-156.0,48.0,30.0,-373.0,0.952008,-0.058433,0.300539,14594.0,-1580.0,4418.0,-86.0,25.0,-29.0
2803.0,2769.0,2898.0,3151.0,3047.0,0.806396,-0.038513,-0.590149,-0.002991,-1.0,0.0,-2.0,7426.0,-525.0,2275.0,-372.0,-45.0,-186.0,61.0,-72.0,-407.0,0.952018,-0.058584,0.300525,14728.0,-1596.0,4404.0,-21.0,8.0,-34.0
2821.0,2759.0,2887.0,3147.0,3055.0,0.806274,-0.038086,-0.590271,-0.002991,1.0,-1.0,-2.0,7460.0,-468.0,2282.0,-339.0,6.0,-177.0,65.0,-19.0,-376.0,0.952069,-0.057885,0.300217,15152.0,-502.0,4650.0,40.0,-6.0,-33.0
2819.0,2766.0,2895.0,3139.0,3035.0,0.806274,-0.037842,-0.590271,-0.003113,0.0,0.0,-1.0,7498.0,-412.0,2301.0,-301.0,57.0,-158.0,61.0,34.0,-337.0,0.952076,-0.057347,0.300236,15196.0,-512.0,4720.0,11.0,2.0,-21.0
2823.0,2759.0,2884.0,3151.0,3051.0,0.806274,-0.037781,-0.590271,-0.003418,-1.0,0.0,-1.0,7540.0,-368.0,2319.0,-259.0,98.0,-140.0,59.0,78.0,-294.0,0.952099,-0.056888,0.300243,15206.0,-712.0,4642.0,-17.0,9.0,-13.0
2825.0,2769.0,2903.0,3143.0,3057.0,0.806335,-0.03772,-0.59021,-0.00354,-1.0,1.0,-1.0,7547.0,-365.0,2327.0,-252.0,99.0,-134.0,56.0,80.0,-285.0,0.952082,-0.056651,0.300419,15070.0,-694.0,4716.0,-7.0,27.0,-19.0
2823.0,2775.0,2901.0,3155.0,3037.0,0.806458,-0.037598,-0.590088,-0.003845,-1.0,0.0,-1.0,7509.0,-348.0,2348.0,-290.0,111.0,-115.0,26.0,92.0,-316.0,0.952051,-0.056104,0.300771,14954.0,-650.0,4792.0,-10.0,11.0,-10.0
2815.0,2768.0,2902.0,3149.0,3056.0,0.806458,-0.037598,-0.590027,-0.003906,-1.0,-1.0,0.0,7473.0,-329.0,2339.0,-325.0,130.0,-125.0,26.0,109.0,-354.0,0.951957,-0.056032,0.300844,14756.0,-540.0,4594.0,-12.0,-8.0,4.0
2826.0,2767.0,2891.0,3135.0,3051.0,0.806274,-0.037781,-0.590332,-0.003845,-1.0,-2.0,1.0,7500.0,-336.0,2346.0,-300.0,125.0,-113.0,22.0,105.0,-326.0,0.95223,-0.056383,0.300174,15042.0,-670.0,4708.0,-12.0,-29.0,26.0
2817.0,2769.0,2919.0,3151.0,3047.0,0.806152,-0.037842,-0.590454,-0.003845,-1.0,-2.0,1.0,7509.0,-334.0,2341.0,-292.0,128.0,-115.0,27.0,108.0,-319.0,0.952283,-0.056472,0.299828,15108.0,-690.0,4682.0,-17.0,-29.0,25.0
2814.0,2768.0,2887.0,3159.0,3027.0,0.80603,-0.038086,-0.590637,-0.003906,-1.0,-1.0,0.0,7545.0,-367.0,2308.0,-257.0,98.0,-144.0,64.0,78.0,-293.0,0.952441,-0.056782,0.299397,15174.0,-846.0,4446.0,-20.0,-5.0,5.0
2826.0,2768.0,2887.0,3154.0,3056.0,0.80603,-0.038147,-0.590637,-0.003967,-1.0,0.0,-1.0,7562.0,-389.0,2287.0,-240.0,76.0,-165.0,88.0,55.0,-282.0,0.952446,-0.056809,0.299393,15210.0,-920.0,4424.0,-20.0,14.0,-6.0
2810.0,2780.0,2881.0,3159.0,3031.0,0.806152,-0.038208,-0.590515,-0.004272,-1.0,1.0,-2.0,7541.0,-431.0,2242.0,-261.0,32.0,-213.0,125.0,7.0,-314.0,0.952417,-0.056557,0.299732,14998.0,-1074.0,4356.0,-22.0,38.0,-28.0
2821.0,2751.0,2902.0,3139.0,3021.0,0.806213,-0.038208,-0.590393,-0.004456,-1.0,1.0,-2.0,7530.0,-440.0,2236.0,-271.0,21.0,-221.0,129.0,-4.0,-325.0,0.952306,-0.056347,0.299976,14978.0,-880.0,4496.0,-17.0,40.0,-30.0
2826.0,2771.0,2858.0,3163.0,3024.0,0.806396,-0.038269,-0.590088,-0.005005,-2.0,2.0,-2.0,7519.0,-440.0,2269.0,-280.0,17.0,-193.0,99.0,-6.0,-325.0,0.952073,-0.055813,0.300632,15000.0,-1070.0,4530.0,-40.0,47.0,-41.0
2829.0,2769.0,2887.0,3135.0,3061.0,0.806519,-0.03833,-0.589905,-0.005188,-1.0,1.0,-2.0,7491.0,-490.0,2280.0,-307.0,-33.0,-186.0,81.0,-56.0,-346.0,0.951936,-0.055707,0.301042,14740.0,-1210.0,4578.0,-19.0,37.0,-30.0
2815.0,2765.0,2902.0,3151.0,3055.0,0.80658,-0.03833,-0.589905,-0.00531,-1.0,-1.0,-1.0,7484.0,-421.0,2347.0,-314.0,34.0,-119.0,19.0,14.0,-336.0,0.952017,-0.055568,0.301142,15090.0,-626.0,4894.0,-18.0,-11.0,-2.0
2821.0,2765.0,2887.0,3165.0,3056.0,0.806519,-0.038391,-0.589966,-0.005432,-2.0,-1.0,0.0,7506.0,-396.0,2368.0,-293.0,58.0,-97.0,6.0,40.0,-311.0,0.952054,-0.055517,0.300968,15160.0,-636.0,4854.0,-32.0,-17.0,11.0
2822.0,2763.0,2901.0,3135.0,3043.0,0.806396,-0.038696,-0.590027,-0.005615,-2.0,-1.0,0.0,7549.0,-386.0,2380.0,-249.0,70.0,-83.0,7.0,54.0,-265.0,0.952026,-0.055783,0.300678,15142.0,-798.0,4694.0,-29.0,-9.0,4.0
2811.0,2771.0,2899.0,3147.0,3047.0,0.806396,-0.038757,-0.590088,-0.005676,-1.0,-1.0,0.0,7551.0,-391.0,2369.0,-248.0,66.0,-93.0,16.0,50.0,-267.0,0.95213,-0.055809,0.300602,15104.0,-798.0,4678.0,-15.0,-5.0,0.0
2831.0,2769.0,2879.0,3149.0,3055.0,0.806335,-0.038879,-0.590149,-0.005798,-2.0,-1.0,0.0,7535.0,-363.0,2348.0,-265.0,94.0,-113.0,32.0,76.0,-291.0,0.952167,-0.055856,0.300423,14958.0,-586.0,4726.0,-26.0,-6.0,3.0
2801.0,2763.0,2879.0,3134.0,3055.0,0.806274,-0.039001,-0.59021,-0.005981,-2.0,-1.0,-1.0,7506.0,-378.0,2334.0,-294.0,79.0,-125.0,34.0,59.0,-321.0,0.952209,-0.055831,0.300245,14842.0,-952.0,4534.0,-43.0,-9.0,-2.0
2822.0,2768.0,2863.0,3153.0,3038.0,0.806091,-0.039307,-0.590393,-0.006104,-1.0,-1.0,-1.0,7483.0,-413.0,2303.0,-318.0,47.0,-152.0,50.0,24.0,-351.0,0.952301,-0.056163,0.299711,15050.0,-780.0,4582.0,-19.0,-17.0,-3.0
2827.0,2767.0,2929.0,3139.0,3047.0,0.82019,-0.047302,-0.569275,-0.030457,0.0,-1.0,-2.0,7350.0,-360.0,2747.0,-323.0,-8.0,-98.0,-22.0,-20.0,-336.0,0.936709,-0.042917,0.347329,14660.0,-600.0,5540.0,18.0,-13.0,-27.0
2822.0,2770.0,2895.0,3143.0,3031.0,0.82019,-0.04718,-0.569336,-0.030518,0.0,-2.0,-2.0,7368.0,-341.0,2752.0,-306.0,8.0,-92.0,-20.0,-3.0,-318.0,0.936807,-0.042644,0.347274,14954.0,-572.0,5506.0,9.0,-27.0,-31.0
2813.0,2768.0,2901.0,3139.0,3031.0,0.820129,-0.046753,-0.569397,-0.030762,0.0,0.0,-2.0,7399.0,-305.0,2755.0,-275.0,36.0,-88.0,-10.0,25.0,-289.0,0.936835,-0.041656,0.34716,14844.0,-488.0,5498.0,20.0,6.0,-29.0
2823.0,2770.0,2891.0,3151.0,3047.0,0.82019,-0.04657,-0.569336,-0.030884,-1.0,0.0,-2.0,7389.0,-258.0,2752.0,-285.0,79.0,-93.0,-4.0,67.0,-302.0,0.936804,-0.041226,0.347354,14762.0,-268.0,5494.0,0.0,11.0,-29.0
2820.0,2768.0,2896.0,3147.0,3047.0,0.82019,-0.046448,-0.569275,-0.031372,-2.0,0.0,-2.0,7372.0,-249.0,2738.0,-301.0,82.0,-108.0,3.0,68.0,-322.0,0.936742,-0.040473,0.347465,14594.0,-578.0,5404.0,-27.0,12.0,-32.0
2815.0,2763.0,2883.0,3151.0,3035.0,0.82019,-0.046448,-0.569275,-0.031555,-1.0,-1.0,-2.0,7327.0,-274.0,2722.0,-346.0,55.0,-124.0,0.0,40.0,-369.0,0.936759,-0.040265,0.347477,14374.0,-706.0,5360.0,-12.0,-1.0,-30.0
2823.0,2767.0,2895.0,3147.0,3039.0,0.82019,-0.046204,-0.569336,-0.031677,1.0,-1.0,-1.0,7344.0,-276.0,2758.0,-330.0,49.0,-88.0,-28.0,38.0,-341.0,0.936855,-0.039722,0.347438,14746.0,-480.0,5616.0,28.0,-3.0,-21.0
2823.0,2768.0,2892.0,3147.0,3047.0,0.82019,-0.045898,-0.569336,-0.031677,2.0,-1.0,-2.0,7318.0,-291.0,2752.0,-356.0,30.0,-94.0,-33.0,19.0,-367.0,0.936836,-0.039221,0.347466,14436.0,-710.0,5466.0,49.0,-6.0,-25.0
2823.0,2767.0,2871.0,3147.0,3039.0,0.820007,-0.045227,-0.569702,-0.031433,2.0,-3.0,-1.0,7347.0,-235.0,2806.0,-330.0,79.0,-34.0,-75.0,74.0,-324.0,0.937163,-0.038358,0.346794,15042.0,-184.0,5876.0,61.0,-57.0,-9.0
2819.0,2768.0,2895.0,3147.0,3039.0,0.819885,-0.044922,-0.569885,-0.031311,1.0,-3.0,0.0,7379.0,-202.0,2822.0,-299.0,109.0,-15.0,-79.0,106.0,-289.0,0.937294,-0.037974,0.346405,14852.0,-208.0,5624.0,37.0,-47.0,8.0
2819.0,2767.0,2887.0,3142.0,3043.0,0.819702,-0.044861,-0.57019,-0.031311,-1.0,-2.0,0.0,7430.0,-162.0,2841.0,-250.0,147.0,8.0,-79.0,147.0,-237.0,0.937582,-0.037839,0.345762,15094.0,-420.0,5624.0,-16.0,-33.0,7.0
2819.0,2768.0,2896.0,3151.0,3047.0,0.819641,-0.044861,-0.570251,-0.031372,-1.0,-1.0,-1.0,7428.0,-203.0,2803.0,-252.0,106.0,-28.0,-50.0,102.0,-249.0,0.937618,-0.03776,0.345597,14782.0,-676.0,5338.0,-7.0,-9.0,-7.0
2821.0,2769.0,2895.0,3147.0,3045.0,0.81958,-0.044617,-0.570374,-0.031433,0.0,-1.0,-2.0,7400.0,-240.0,2768.0,-281.0,65.0,-61.0,-34.0,58.0,-286.0,0.937738,-0.037277,0.345383,14796.0,-514.0,5536.0,21.0,-18.0,-29.0
2821.0,2767.0,2891.0,3143.0,3047.0,0.819519,-0.044434,-0.570435,-0.031494,0.0,-1.0,-2.0,7395.0,-233.0,2756.0,-287.0,69.0,-72.0,-25.0,61.0,-296.0,0.937763,-0.036898,0.345233,14708.0,-392.0,5434.0,18.0,-13.0,-29.0
2822.0,2767.0,2893.0,3143.0,3043.0,0.819336,-0.04425,-0.570679,-0.031616,0.0,-2.0,-1.0,7402.0,-220.0,2727.0,-281.0,78.0,-96.0,0.0,67.0,-299.0,0.937953,-0.036427,0.344679,14930.0,-424.0,5408.0,4.0,-26.0,-5.0
2823.0,2768.0,2896.0,3151.0,3043.0,0.819275,-0.044189,-0.570801,-0.031616,0.0,-1.0,-1.0,7413.0,-225.0,2708.0,-271.0,72.0,-113.0,18.0,59.0,-295.0,0.93808,-0.036314,0.344445,14878.0,-496.0,5332.0,16.0,-10.0,-11.0
2825.0,2768.0,2896.0,3149.0,3039.0,0.819275,-0.043762,-0.570862,-0.031555,1.0,-1.0,-1.0,7366.0,-207.0,2696.0,-319.0,85.0,-125.0,14.0,71.0,-345.0,0.938147,-0.035679,0.344409,14504.0,-290.0,5346.0,32.0,-11.0,-4.0
2819.0,2767.0,2895.0,3143.0,3047.0,0.819214,-0.04364,-0.570984,-0.031494,0.0,-2.0,0.0,7358.0,-179.0,2704.0,-328.0,112.0,-115.0,5.0,99.0,-351.0,0.938265,-0.035536,0.344176,14726.0,-202.0,5482.0,20.0,-29.0,10.0
2821.0,2767.0,2895.0,3143.0,3039.0,0.819031,-0.043579,-0.571228,-0.031372,0.0,-2.0,1.0,7358.0,-169.0,2679.0,-329.0,122.0,-135.0,24.0,107.0,-359.0,0.938441,-0.035544,0.343595,14678.0,-344.0,5188.0,7.0,-25.0,24.0
2823.0,2767.0,2895.0,3147.0,3039.0,0.818909,-0.043579,-0.57135,-0.03125,0.0,-2.0,1.0,7354.0,-177.0,2661.0,-334.0,115.0,-150.0,36.0,98.0,-369.0,0.938491,-0.035665,0.343248,14694.0,-432.0,5226.0,7.0,-27.0,29.0
2821.0,2768.0,2895.0,3143.0,3039.0,0.818787,-0.043579,-0.571655,-0.030884,0.0,-1.0,1.0,7358.0,-163.0,2629.0,-332.0,132.0,-178.0,65.0,112.0,-377.0,0.938819,-0.036054,0.342676,14758.0,-196.0,5256.0,20.0,-17.0,36.0
2819.0,2767.0,2896.0,3147.0,3045.0,0.818726,-0.043579,-0.571716,-0.030762,0.0,-1.0,1.0,7359.0,-144.0,2622.0,-331.0,152.0,-183.0,72.0,131.0,-378.0,0.938839,-0.036185,0.342499,14736.0,-254.0,5210.0,2.0,-9.0,38.0
2823.0,2768.0,2893.0,3141.0,3039.0,0.818665,-0.043884,-0.571777,-0.030457,-1.0,-1.0,1.0,7364.0,-189.0,2619.0,-327.0,114.0,-184.0,70.0,93.0,-374.0,0.938861,-0.037024,0.342284,14718.0,-560.0,5242.0,-7.0,-4.0,43.0
2823.0,2769.0,2895.0,3147.0,3046.0,0.818604,-0.044006,-0.571838,-0.030334,-1.0,-1.0,1.0,7367.0,-218.0,2627.0,-324.0,88.0,-175.0,60.0,68.0,-367.0,0.938888,-0.037355,0.342096,14782.0,-600.0,5352.0,0.0,-6.0,37.0
2826.0,2767.0,2895.0,3143.0,3039.0,0.818604,-0.044189,-0.571838,-0.030029,-1.0,-1.0,1.0,7385.0,-251.0,2649.0,-306.0,60.0,-153.0,43.0,42.0,-341.0,0.938872,-0.038003,0.342062,14814.0,-610.0,5352.0,-7.0,-4.0,34.0
2821.0,2767.0,2895.0,3139.0,3039.0,0.818604,-0.044373,-0.571838,-0.029846,-1.0,-1.0,1.0,7406.0,-269.0,2655.0,-285.0,46.0,-146.0,42.0,29.0,-319.0,0.938866,-0.038513,0.342034,14936.0,-622.0,5342.0,-4.0,0.0,40.0
2819.0,2767.0,2894.0,3141.0,3039.0,0.818726,-0.044495,-0.571716,-0.029602,-1.0,1.0,1.0,7408.0,-270.0,2678.0,-282.0,49.0,-126.0,25.0,34.0,-309.0,0.938792,-0.03901,0.342349,14752.0,-614.0,5412.0,-2.0,29.0,28.0
2821.0,2768.0,2896.0,3147.0,3043.0,0.818848,-0.044556,-0.571533,-0.02948,0.0,1.0,0.0,7400.0,-297.0,2681.0,-289.0,24.0,-126.0,20.0,9.0,-315.0,0.938624,-0.039271,0.342745,14780.0,-768.0,5388.0,10.0,33.0,21.0
2821.0,2769.0,2897.0,3149.0,3047.0,0.819092,-0.044495,-0.571228,-0.029236,0.0,1.0,0.0,7370.0,-296.0,2716.0,-317.0,27.0,-97.0,-16.0,15.0,-331.0,0.938378,-0.03949,0.343485,14620.0,-462.0,5526.0,20.0,26.0,15.0
2815.0,2768.0,2893.0,3143.0,3037.0,0.819092,-0.044495,-0.571167,-0.029175,-1.0,-1.0,1.0,7347.0,-288.0,2718.0,-339.0,36.0,-96.0,-24.0,24.0,-352.0,0.938273,-0.039563,0.343551,14686.0,-562.0,5472.0,-8.0,-5.0,26.0
2819.0,2768.0,2896.0,3147.0,3043.0,0.819031,-0.0448,-0.571228,-0.02887,0.0,-1.0,1.0,7400.0,-350.0,2720.0,-286.0,-19.0,-92.0,-14.0,-29.0,-299.0,0.938293,-0.040403,0.343336,14910.0,-812.0,5484.0,13.0,-2.0,23.0
2823.0,2767.0,2895.0,3152.0,3045.0,0.819092,-0.044739,-0.571228,-0.028748,0.0,0.0,0.0,7410.0,-358.0,2726.0,-276.0,-26.0,-87.0,-16.0,-36.0,-287.0,0.938349,-0.040447,0.343435,14888.0,-754.0,5508.0,21.0,9.0,10.0
2823.0,2769.0,2896.0,3151.0,3039.0,0.819214,-0.044617,-0.570984,-0.028564,0.0,1.0,-1.0,7449.0,-355.0,2732.0,-235.0,-23.0,-85.0,-4.0,-32.0,-248.0,0.938065,-0.040482,0.343914,14824.0,-728.0,5412.0,19.0,38.0,-3.0
2821.0,2768.0,2898.0,3143.0,3039.0,0.819336,-0.044495,-0.570862,-0.028564,1.0,1.0,-1.0,7424.0,-366.0,2731.0,-260.0,-35.0,-89.0,-10.0,-45.0,-273.0,0.937997,-0.040299,0.344264,14688.0,-788.0,5498.0,23.0,31.0,-13.0
2823.0,2769.0,2896.0,3143.0,3038.0,0.819519,-0.04425,-0.570679,-0.028503,0.0,0.0,-1.0,7370.0,-340.0,2753.0,-313.0,-12.0,-71.0,-43.0,-20.0,-317.0,0.937887,-0.039996,0.344792,14618.0,-498.0,5602.0,17.0,7.0,-13.0
2819.0,2767.0,2896.0,3151.0,3045.0,0.819519,-0.044189,-0.570618,-0.028564,-1.0,-1.0,-1.0,7362.0,-320.0,2760.0,-320.0,6.0,-65.0,-49.0,-2.0,-322.0,0.937789,-0.039829,0.34487,14678.0,-552.0,5500.0,-5.0,-9.0,-7.0
2822.0,2771.0,2897.0,3149.0,3039.0,0.819397,-0.044373,-0.570801,-0.028564,-1.0,-2.0,0.0,7366.0,-326.0,2745.0,-317.0,2.0,-76.0,-38.0,-7.0,-323.0,0.93796,-0.040108,0.344445,14802.0,-716.0,5432.0,-15.0,-29.0,14.0
2819.0,2768.0,2896.0,3143.0,3039.0,0.819275,-0.044434,-0.570923,-0.028564,-1.0,-1.0,0.0,7391.0,-326.0,2735.0,-293.0,3.0,-83.0,-23.0,-6.0,-303.0,0.938024,-0.04019,0.3441,14958.0,-624.0,5442.0,-7.0,-19.0,12.0
2819.0,2767.0,2895.0,3141.0,3043.0,0.819336,-0.044373,-0.570862,-0.028564,0.0,0.0,-1.0,7397.0,-304.0,2709.0,-287.0,24.0,-111.0,6.0,11.0,-308.0,0.93799,-0.040099,0.344275,14652.0,-568.0,5328.0,2.0,17.0,-9.0
2819.0,2767.0,2896.0,3151.0,3047.0,0.819336,-0.044373,-0.570862,-0.028625,-1.0,0.0,-1.0,7398.0,-304.0,2697.0,-286.0,23.0,-123.0,17.0,8.0,-311.0,0.937996,-0.04003,0.344279,14844.0,-598.0,5350.0,0.0,13.0,-11.0
2820.0,2771.0,2897.0,3151.0,3051.0,0.819397,-0.044373,-0.57074,-0.028809,-1.0,0.0,-1.0,7378.0,-273.0,2676.0,-305.0,53.0,-146.0,35.0,36.0,-338.0,0.937881,-0.039833,0.344529,14660.0,-474.0,5266.0,-20.0,13.0,-6.0
2821.0,2768.0,2895.0,3143.0,3039.0,0.819458,-0.044434,-0.57074,-0.028931,-2.0,0.0,0.0,7374.0,-261.0,2685.0,-309.0,65.0,-138.0,27.0,49.0,-339.0,0.937966,-0.039799,0.34463,14756.0,-460.0,5476.0,-28.0,8.0,1.0
2821.0,2768.0,2891.0,3143.0,3039.0,0.819397,-0.044739,-0.570679,-0.029053,-2.0,-1.0,0.0,7331.0,-263.0,2679.0,-351.0,65.0,-143.0,18.0,48.0,-381.0,0.937824,-0.040158,0.34458,14554.0,-586.0,5338.0,-38.0,-15.0,14.0
2823.0,2770.0,2897.0,3151.0,3047.0,0.819336,-0.044983,-0.570801,-0.029053,-2.0,-2.0,1.0,7342.0,-274.0,2691.0,-341.0,58.0,-129.0,7.0,42.0,-366.0,0.937969,-0.040546,0.344318,14774.0,-578.0,5478.0,-31.0,-24.0,23.0
2826.0,2770.0,2896.0,3135.0,3043.0,0.819275,-0.045166,-0.570862,-0.028992,-1.0,-1.0,0.0,7374.0,-263.0,2699.0,-310.0,72.0,-120.0,11.0,57.0,-335.0,0.938004,-0.040906,0.344129,14840.0,-476.0,5360.0,-4.0,0.0,21.0
2823.0,2769.0,2895.0,3143.0,3039.0,0.819336,-0.045166,-0.570801,-0.028931,0.0,0.0,0.0,7395.0,-248.0,2712.0,-288.0,87.0,-108.0,9.0,73.0,-310.0,0.937969,-0.040985,0.344295,14910.0,-388.0,5516.0,10.0,22.0,9.0
2817.0,2767.0,2898.0,3143.0,3047.0,0.81958,-0.044983,-0.570435,-0.028931,0.0,2.0,0.0,7409.0,-215.0,2714.0,-272.0,118.0,-113.0,22.0,104.0,-298.0,0.937636,-0.040728,0.345129,14874.0,-380.0,5462.0,8.0,48.0,1.0
2821.0,2767.0,2895.0,3149.0,3051.0,0.819763,-0.044861,-0.570251,-0.028931,0.0,2.0,0.0,7383.0,-210.0,2707.0,-297.0,122.0,-124.0,24.0,106.0,-326.0,0.937538,-0.040555,0.345649,14554.0,-420.0,5372.0,8.0,50.0,1.0
2823.0,2768.0,2891.0,3143.0,3045.0,0.819885,-0.0448,-0.570007,-0.028931,-1.0,0.0,0.0,7346.0,-207.0,2732.0,-332.0,124.0,-103.0,-7.0,111.0,-351.0,0.937273,-0.04048,0.346133,14650.0,-358.0,5550.0,-1.0,8.0,18.0
2821.0,2764.0,2889.0,3151.0,3045.0,0.819885,-0.044922,-0.570007,-0.02887,-1.0,-1.0,1.0,7342.0,-199.0,2738.0,-336.0,134.0,-97.0,-13.0,121.0,-353.0,0.937275,-0.04075,0.346119,14698.0,-396.0,5496.0,-17.0,-11.0,29.0
2823.0,2765.0,2898.0,3151.0,3043.0,0.819824,-0.045288,-0.570129,-0.028687,-1.0,-1.0,2.0,7378.0,-254.0,2743.0,-301.0,86.0,-90.0,-12.0,74.0,-316.0,0.93741,-0.041546,0.345836,14786.0,-724.0,5494.0,-13.0,-14.0,46.0
2821.0,2768.0,2891.0,3120.0,3047.0,0.819763,-0.045471,-0.570129,-0.028442,0.0,-1.0,1.0,7391.0,-277.0,2750.0,-287.0,68.0,-82.0,-16.0,57.0,-300.0,0.937329,-0.04212,0.345706,14890.0,-678.0,5546.0,2.0,-11.0,45.0
2822.0,2762.0,2896.0,3147.0,3045.0,0.819885,-0.045532,-0.570068,-0.028076,0.0,0.0,1.0,7412.0,-311.0,2745.0,-266.0,38.0,-89.0,-6.0,26.0,-281.0,0.937338,-0.042652,0.345949,14790.0,-660.0,5466.0,21.0,16.0,25.0
2827.0,2771.0,2899.0,3146.0,3038.0,0.819946,-0.045471,-0.570007,-0.027954,0.0,0.0,0.0,7420.0,-313.0,2753.0,-258.0,36.0,-82.0,-10.0,25.0,-271.0,0.937293,-0.0427,0.346117,14906.0,-626.0,5598.0,22.0,19.0,13.0
2827.0,2767.0,2895.0,3141.0,3039.0,0.820129,-0.045349,-0.569702,-0.027893,-1.0,1.0,0.0,7404.0,-321.0,2755.0,-271.0,28.0,-85.0,-12.0,17.0,-284.0,0.936989,-0.042603,0.346773,14728.0,-762.0,5466.0,-1.0,25.0,1.0
2827.0,2768.0,2901.0,3153.0,3055.0,0.820129,-0.04541,-0.569641,-0.027893,-1.0,0.0,0.0,7383.0,-368.0,2738.0,-292.0,-18.0,-103.0,-7.0,-30.0,-308.0,0.936892,-0.042706,0.346837,14636.0,-1030.0,5368.0,-5.0,15.0,2.0
2831.0,2767.0,2891.0,3151.0,3042.0,0.820129,-0.045471,-0.569641,-0.02771,0.0,-1.0,0.0,7372.0,-428.0,2726.0,-302.0,-75.0,-115.0,-5.0,-88.0,-319.0,0.936879,-0.043015,0.346821,14758.0,-916.0,5522.0,21.0,-2.0,4.0
2827.0,2765.0,2897.0,3147.0,3039.0,0.82019,-0.045471,-0.569641,-0.027588,0.0,-1.0,0.0,7365.0,-405.0,2749.0,-310.0,-51.0,-92.0,-27.0,-62.0,-320.0,0.936937,-0.04316,0.346915,14694.0,-656.0,5656.0,17.0,-6.0,5.0
2825.0,2769.0,2891.0,3147.0,3043.0,0.82019,-0.045471,-0.56958,-0.027527,-1.0,-1.0,0.0,7372.0,-379.0,2783.0,-302.0,-24.0,-59.0,-52.0,-32.0,-302.0,0.936832,-0.043233,0.346981,14732.0,-678.0,5614.0,-2.0,-2.0,6.0
2823.0,2771.0,2896.0,3138.0,3039.0,0.82019,-0.045532,-0.56958,-0.027527,-1.0,0.0,-1.0,7383.0,-379.0,2786.0,-291.0,-24.0,-56.0,-51.0,-31.0,-291.0,0.936835,-0.043333,0.346975,14858.0,-788.0,5622.0,-10.0,3.0,-1.0
2823.0,2768.0,2879.0,3151.0,3047.0,0.820312,-0.045471,-0.569458,-0.027649,-1.0,0.0,-2.0,7377.0,-388.0,2784.0,-297.0,-34.0,-61.0,-50.0,-42.0,-297.0,0.936782,-0.043111,0.347327,14698.0,-806.0,5552.0,-2.0,10.0,-26.0
2821.0,2762.0,2896.0,3147.0,3043.0,0.820312,-0.04541,-0.569397,-0.027832,-1.0,0.0,-2.0,7380.0,-384.0,2792.0,-293.0,-33.0,-54.0,-55.0,-40.0,-291.0,0.936695,-0.042806,0.347412,14824.0,-724.0,5660.0,-1.0,2.0,-32.0
2827.0,2768.0,2883.0,3139.0,3039.0,0.820374,-0.045227,-0.569397,-0.028076,0.0,0.0,-2.0,7391.0,-391.0,2796.0,-283.0,-45.0,-51.0,-55.0,-51.0,-280.0,0.936776,-0.042233,0.347543,14744.0,-842.0,5592.0,4.0,5.0,-37.0
2815.0,2767.0,2895.0,3141.0,3043.0,0.820374,-0.045044,-0.569336,-0.028198,0.0,-1.0,-2.0,7393.0,-388.0,2802.0,-280.0,-45.0,-45.0,-60.0,-50.0,-276.0,0.936677,-0.041797,0.347636,14836.0,-736.0,5684.0,22.0,-1.0,-42.0
2819.0,2764.0,2893.0,3153.0,3031.0,0.820374,-0.044617,-0.569336,-0.028381,0.0,-1.0,-2.0,7385.0,-329.0,2821.0,-288.0,5.0,-27.0,-75.0,0.0,-279.0,0.936669,-0.040888,0.347684,14748.0,-430.0,5692.0,13.0,-15.0,-31.0
2815.0,2768.0,2899.0,3139.0,3039.0,0.820312,-0.044495,-0.569458,-0.028503,-1.0,-2.0,-1.0,7391.0,-303.0,2840.0,-283.0,29.0,-6.0,-90.0,27.0,-268.0,0.936804,-0.040536,0.347463,14826.0,-500.0,5794.0,-10.0,-30.0,-19.0
2827.0,2771.0,2898.0,3143.0,3043.0,0.820251,-0.044434,-0.56958,-0.028809,0.0,-1.0,-2.0,7394.0,-313.0,2814.0,-281.0,15.0,-30.0,-68.0,10.0,-274.0,0.936958,-0.040076,0.347247,14734.0,-650.0,5474.0,4.0,-18.0,-27.0
2815.0,2767.0,2887.0,3157.0,3055.0,0.82019,-0.04425,-0.569641,-0.02887,0.0,-1.0,-2.0,7395.0,-294.0,2799.0,-280.0,31.0,-44.0,-53.0,25.0,-278.0,0.936983,-0.039697,0.347097,14802.0,-442.0,5536.0,21.0,-18.0,-33.0
2819.0,2767.0,2896.0,3141.0,3045.0,0.820068,-0.043823,-0.569824,-0.029114,0.0,-2.0,-2.0,7365.0,-272.0,2752.0,-312.0,45.0,-88.0,-22.0,34.0,-324.0,0.937141,-0.038697,0.34674,14610.0,-578.0,5284.0,19.0,-24.0,-36.0
2822.0,2762.0,2895.0,3151.0,3031.0,0.819946,-0.043579,-0.570007,-0.029175,1.0,-2.0,-2.0,7376.0,-271.0,2734.0,-302.0,41.0,-103.0,-5.0,29.0,-320.0,0.937294,-0.038205,0.346356,14912.0,-476.0,5400.0,30.0,-30.0,-32.0
2822.0,2767.0,2896.0,3135.0,3045.0,0.819885,-0.042969,-0.57019,-0.029236,1.0,0.0,-2.0,7403.0,-237.0,2698.0,-276.0,67.0,-137.0,38.0,52.0,-308.0,0.937494,-0.037119,0.346103,14804.0,-328.0,5326.0,42.0,2.0,-37.0
2823.0,2771.0,2887.0,3141.0,3023.0,0.819885,-0.042664,-0.57019,-0.029358,1.0,0.0,-2.0,7393.0,-209.0,2687.0,-286.0,89.0,-148.0,47.0,73.0,-322.0,0.937486,-0.036479,0.346136,14746.0,-248.0,5320.0,39.0,12.0,-34.0
2815.0,2763.0,2883.0,3135.0,3047.0,0.819946,-0.042114,-0.570129,-0.029419,1.0,0.0,-1.0,7351.0,-191.0,2668.0,-328.0,99.0,-169.0,52.0,81.0,-369.0,0.937429,-0.035518,0.346356,14602.0,-360.0,5326.0,36.0,6.0,-21.0
2818.0,2767.0,2899.0,3151.0,3043.0,0.819946,-0.041809,-0.57019,-0.029419,1.0,0.0,-1.0,7345.0,-186.0,2672.0,-335.0,100.0,-164.0,45.0,82.0,-374.0,0.937511,-0.035014,0.346312,14642.0,-314.0,5390.0,41.0,5.0,-16.0
2823.0,2769.0,2887.0,3135.0,3051.0,0.819946,-0.041443,-0.57019,-0.029358,1.0,-1.0,0.0,7347.0,-167.0,2683.0,-332.0,115.0,-154.0,39.0,99.0,-368.0,0.937484,-0.034483,0.346339,14720.0,-402.0,5404.0,23.0,-6.0,6.0
2815.0,2763.0,2899.0,3143.0,3047.0,0.819885,-0.041321,-0.570251,-0.029236,1.0,-1.0,0.0,7358.0,-187.0,2689.0,-321.0,94.0,-146.0,33.0,79.0,-354.0,0.937498,-0.034413,0.346172,14806.0,-500.0,5444.0,25.0,-6.0,14.0
2821.0,2767.0,2899.0,3135.0,3043.0,0.819946,-0.041077,-0.570251,-0.028992,1.0,0.0,-1.0,7365.0,-225.0,2688.0,-315.0,55.0,-148.0,33.0,40.0,-348.0,0.937533,-0.034296,0.346278,14742.0,-560.0,5424.0,38.0,9.0,-8.0
2823.0,2770.0,2902.0,3148.0,3039.0,0.820007,-0.040833,-0.57019,-0.028931,1.0,0.0,-1.0,7359.0,-238.0,2696.0,-320.0,40.0,-142.0,24.0,25.0,-350.0,0.937483,-0.033974,0.346465,14644.0,-554.0,5436.0,43.0,14.0,-12.0
2823.0,2768.0,2895.0,3135.0,3051.0,0.820007,-0.040466,-0.57019,-0.02887,0.0,0.0,-1.0,7361.0,-209.0,2713.0,-318.0,64.0,-125.0,11.0,51.0,-343.0,0.937457,-0.033443,0.346491,14800.0,-328.0,5440.0,19.0,2.0,-3.0
2829.0,2768.0,2907.0,3150.0,3039.0,0.820007,-0.040405,-0.57019,-0.028809,0.0,-1.0,0.0,7351.0,-201.0,2711.0,-328.0,72.0,-127.0,11.0,59.0,-353.0,0.937449,-0.033412,0.346492,14606.0,-372.0,5412.0,4.0,0.0,10.0
2831.0,2767.0,2897.0,3139.0,3043.0,0.819946,-0.040466,-0.570251,-0.028687,0.0,-1.0,0.0,7361.0,-251.0,2714.0,-318.0,24.0,-122.0,5.0,12.0,-341.0,0.937473,-0.033643,0.346311,14830.0,-638.0,5464.0,12.0,-10.0,12.0
2819.0,2791.0,2895.0,3143.0,3053.0,0.819946,-0.040466,-0.570251,-0.028564,0.0,-1.0,0.0,7382.0,-251.0,2724.0,-297.0,25.0,-112.0,3.0,14.0,-318.0,0.937463,-0.033783,0.346304,14870.0,-460.0,5524.0,19.0,-1.0,7.0
2823.0,2768.0,2899.0,3139.0,3053.0,0.819946,-0.040405,-0.570251,-0.028503,-1.0,0.0,0.0,7417.0,-258.0,2734.0,-262.0,18.0,-102.0,5.0,8.0,-281.0,0.937455,-0.033752,0.346305,14978.0,-592.0,5450.0,-3.0,4.0,10.0
2819.0,2767.0,2886.0,3155.0,3045.0,0.820007,-0.040466,-0.57019,-0.028503,-1.0,1.0,-1.0,7450.0,-270.0,2741.0,-229.0,7.0,-97.0,11.0,-2.0,-248.0,0.937428,-0.033861,0.34647,15108.0,-652.0,5522.0,-2.0,26.0,-4.0
2821.0,2767.0,2895.0,3151.0,3037.0,0.820374,-0.040161,-0.569702,-0.028564,1.0,2.0,-2.0,7410.0,-326.0,2740.0,-266.0,-52.0,-107.0,2.0,-61.0,-284.0,0.937032,-0.033348,0.347655,14450.0,-746.0,5480.0,40.0,66.0,-36.0
2822.0,2769.0,2881.0,3147.0,3039.0,0.820557,-0.039856,-0.569458,-0.028564,1.0,1.0,-2.0,7328.0,-317.0,2744.0,-346.0,-47.0,-108.0,-24.0,-56.0,-360.0,0.936822,-0.032876,0.348258,14220.0,-552.0,5536.0,43.0,29.0,-40.0
2822.0,2767.0,2893.0,3141.0,3037.0,0.820557,-0.039429,-0.569458,-0.028687,0.0,-1.0,-2.0,7344.0,-266.0,2791.0,-330.0,-3.0,-62.0,-57.0,-8.0,-330.0,0.936807,-0.032035,0.348299,14720.0,-372.0,5668.0,15.0,-13.0,-24.0
2823.0,2767.0,2895.0,3143.0,3039.0,0.820496,-0.039307,-0.56958,-0.028809,0.0,-2.0,-1.0,7350.0,-252.0,2798.0,-325.0,7.0,-53.0,-63.0,2.0,-323.0,0.936941,-0.031684,0.348077,14762.0,-446.0,5672.0,7.0,-25.0,-19.0
2823.0,2763.0,2894.0,3143.0,3039.0,0.820435,-0.039062,-0.569702,-0.02887,0.0,-1.0,-1.0,7413.0,-210.0,2817.0,-263.0,45.0,-32.0,-57.0,42.0,-258.0,0.937062,-0.031202,0.34786,15052.0,-232.0,5660.0,19.0,-8.0,-21.0
2819.0,2767.0,2896.0,3143.0,3047.0,0.820435,-0.038818,-0.569641,-0.028931,0.0,0.0,-2.0,7429.0,-207.0,2802.0,-246.0,44.0,-48.0,-37.0,39.0,-248.0,0.936953,-0.030736,0.347952,14904.0,-424.0,5508.0,20.0,20.0,-30.0
2827.0,2768.0,2889.0,3151.0,3055.0,0.820618,-0.038269,-0.569397,-0.029114,1.0,1.0,-2.0,7410.0,-187.0,2784.0,-263.0,55.0,-71.0,-20.0,49.0,-272.0,0.936743,-0.029654,0.348584,14662.0,-254.0,5558.0,36.0,34.0,-37.0
2823.0,2767.0,2894.0,3151.0,3039.0,0.82074,-0.038025,-0.569336,-0.029236,0.0,0.0,-2.0,7356.0,-158.0,2785.0,-318.0,80.0,-73.0,-35.0,74.0,-325.0,0.936777,-0.029127,0.348879,14420.0,-190.0,5586.0,13.0,12.0,-32.0
2823.0,2765.0,2895.0,3151.0,3046.0,0.820618,-0.037903,-0.569458,-0.029358,-1.0,-2.0,-1.0,7333.0,-183.0,2785.0,-341.0,52.0,-70.0,-49.0,46.0,-345.0,0.93684,-0.028771,0.348556,14612.0,-478.0,5510.0,-2.0,-42.0,-5.0
2819.0,2768.0,2890.0,3141.0,3051.0,0.820435,-0.037903,-0.569702,-0.029358,0.0,-3.0,-1.0,7351.0,-196.0,2775.0,-325.0,39.0,-75.0,-39.0,33.0,-331.0,0.937032,-0.028743,0.347978,14904.0,-460.0,5538.0,7.0,-52.0,-1.0
2829.0,2768.0,2895.0,3147.0,3043.0,0.820251,-0.037781,-0.570007,-0.029358,0.0,-1.0,-1.0,7408.0,-175.0,2761.0,-270.0,58.0,-84.0,-10.0,51.0,-283.0,0.937317,-0.028511,0.347339,14860.0,-394.0,5416.0,4.0,-15.0,-10.0
2822.0,2767.0,2895.0,3151.0,3045.0,0.82019,-0.037659,-0.570068,-0.029419,0.0,-1.0,-1.0,7409.0,-186.0,2742.0,-269.0,45.0,-102.0,5.0,36.0,-288.0,0.937345,-0.028233,0.347182,14846.0,-406.0,5418.0,14.0,-6.0,-11.0
2818.0,2767.0,2897.0,3139.0,3045.0,0.820312,-0.037231,-0.569946,-0.029419,1.0,1.0,-1.0,7403.0,-163.0,2732.0,-275.0,62.0,-115.0,17.0,52.0,-299.0,0.937259,-0.027548,0.347553,14668.0,-226.0,5430.0,35.0,25.0,-21.0
2823.0,2768.0,2901.0,3143.0,3043.0,0.820374,-0.036987,-0.569885,-0.029419,1.0,1.0,-1.0,7375.0,-146.0,2720.0,-302.0,76.0,-128.0,20.0,65.0,-329.0,0.937214,-0.027156,0.347741,14560.0,-180.0,5384.0,29.0,25.0,-20.0
2819.0,2765.0,2893.0,3139.0,3039.0,0.820435,-0.036682,-0.569824,-0.029541,0.0,-1.0,-1.0,7321.0,-151.0,2710.0,-356.0,66.0,-140.0,12.0,54.0,-384.0,0.937174,-0.026524,0.34794,14578.0,-462.0,5402.0,15.0,-7.0,-15.0
2823.0,2768.0,2893.0,3147.0,3035.0,0.820374,-0.03656,-0.569885,-0.02948,0.0,-1.0,-1.0,7317.0,-156.0,2707.0,-360.0,60.0,-141.0,11.0,48.0,-388.0,0.937193,-0.026385,0.347776,14594.0,-280.0,5372.0,22.0,-12.0,-7.0
2826.0,2770.0,2895.0,3147.0,3039.0,0.82019,-0.036499,-0.570129,-0.029419,-1.0,-2.0,0.0,7306.0,-150.0,2701.0,-372.0,65.0,-143.0,9.0,53.0,-400.0,0.937377,-0.026327,0.347198,14564.0,-374.0,5326.0,-4.0,-37.0,19.0
2827.0,2769.0,2903.0,3143.0,3047.0,0.820068,-0.03656,-0.570374,-0.029297,0.0,-3.0,1.0,7314.0,-186.0,2686.0,-367.0,31.0,-154.0,18.0,18.0,-398.0,0.937633,-0.026543,0.346708,14708.0,-608.0,5330.0,16.0,-47.0,23.0
2823.0,2772.0,2903.0,3147.0,3035.0,0.819885,-0.036255,-0.570618,-0.02887,1.0,-1.0,0.0,7417.0,-148.0,2723.0,-265.0,69.0,-112.0,18.0,59.0,-289.0,0.937775,-0.026503,0.346126,15052.0,-58.0,5506.0,45.0,-4.0,13.0
2827.0,2765.0,2895.0,3159.0,3007.0,0.819946,-0.036133,-0.570557,-0.028748,0.0,0.0,0.0,7440.0,-130.0,2722.0,-241.0,86.0,-114.0,30.0,76.0,-267.0,0.937729,-0.02645,0.346298,14990.0,-200.0,5414.0,17.0,17.0,10.0
2819.0,2768.0,2879.0,3155.0,3033.0,0.820068,-0.036011,-0.570374,-0.028687,0.0,1.0,0.0,7398.0,-192.0,2694.0,-282.0,23.0,-146.0,40.0,11.0,-315.0,0.937557,-0.026338,0.346712,14472.0,-664.0,5142.0,19.0,25.0,1.0
2823.0,2769.0,2864.0,3147.0,3043.0,0.820068,-0.035889,-0.570374,-0.028564,1.0,0.0,-1.0,7367.0,-206.0,2693.0,-313.0,9.0,-147.0,29.0,-2.0,-344.0,0.937541,-0.026278,0.346714,14594.0,-468.0,5346.0,37.0,2.0,-3.0
2831.0,2768.0,2895.0,3141.0,3053.0,0.820007,-0.035645,-0.570496,-0.028381,0.0,-1.0,0.0,7356.0,-173.0,2711.0,-325.0,40.0,-127.0,9.0,30.0,-349.0,0.937644,-0.026075,0.346482,14694.0,-228.0,5430.0,13.0,-15.0,8.0
2819.0,2767.0,2887.0,3159.0,3055.0,0.820007,-0.035645,-0.570557,-0.02832,-1.0,-1.0,0.0,7374.0,-159.0,2713.0,-307.0,55.0,-124.0,13.0,45.0,-332.0,0.93774,-0.026141,0.346409,14890.0,-262.0,5410.0,-3.0,-13.0,14.0
2825.0,2767.0,2899.0,3131.0,3047.0,0.820068,-0.035706,-0.570496,-0.028259,0.0,1.0,0.0,7410.0,-163.0,2713.0,-271.0,52.0,-126.0,27.0,41.0,-299.0,0.937709,-0.026318,0.346571,14864.0,-308.0,5398.0,7.0,30.0,12.0
2827.0,2767.0,2899.0,3152.0,3043.0,0.82019,-0.035645,-0.570312,-0.028259,0.0,1.0,0.0,7402.0,-158.0,2714.0,-278.0,56.0,-128.0,27.0,45.0,-306.0,0.937544,-0.026237,0.346984,14752.0,-322.0,5468.0,4.0,44.0,1.0
2820.0,2769.0,2890.0,3149.0,3045.0,0.820435,-0.035645,-0.569946,-0.02832,-1.0,1.0,-1.0,7365.0,-174.0,2712.0,-312.0,40.0,-137.0,22.0,29.0,-341.0,0.937226,-0.026206,0.347806,14632.0,-488.0,5392.0,-8.0,40.0,-2.0
2819.0,2764.0,2887.0,3143.0,3039.0,0.820496,-0.035706,-0.569763,-0.02832,-1.0,1.0,0.0,7343.0,-207.0,2715.0,-332.0,8.0,-136.0,11.0,-2.0,-358.0,0.936999,-0.026321,0.34811,14526.0,-606.0,5426.0,-1.0,26.0,4.0
2821.0,2771.0,2899.0,3151.0,3039.0,0.820618,-0.035645,-0.569702,-0.028137,1.0,0.0,0.0,7347.0,-220.0,2738.0,-329.0,-3.0,-115.0,-7.0,-11.0,-348.0,0.937021,-0.026441,0.348374,14762.0,-360.0,5574.0,23.0,3.0,6.0
2823.0,2765.0,2919.0,3151.0,3055.0,0.820618,-0.035522,-0.569641,-0.028076,0.0,-1.0,0.0,7361.0,-200.0,2762.0,-314.0,15.0,-92.0,-22.0,8.0,-326.0,0.93691,-0.026314,0.348449,14786.0,-254.0,5676.0,13.0,0.0,4.0
2822.0,2770.0,2902.0,3155.0,3050.0,0.820679,-0.035583,-0.56958,-0.028198,-2.0,0.0,-1.0,7448.0,-172.0,2823.0,-227.0,43.0,-32.0,-45.0,41.0,-224.0,0.936891,-0.026283,0.348621,15248.0,-348.0,5786.0,-23.0,16.0,-7.0
2828.0,2763.0,2897.0,3135.0,3047.0,0.820801,-0.035583,-0.569397,-0.02832,-2.0,2.0,-1.0,7468.0,-186.0,2830.0,-205.0,28.0,-29.0,-42.0,26.0,-202.0,0.936738,-0.026163,0.349037,14942.0,-484.0,5696.0,-23.0,50.0,-19.0
2823.0,2765.0,2895.0,3143.0,3039.0,0.821167,-0.035583,-0.568848,-0.028625,-1.0,2.0,-2.0,7397.0,-221.0,2815.0,-272.0,-9.0,-54.0,-45.0,-12.0,-273.0,0.936275,-0.025873,0.350281,14528.0,-540.0,5614.0,-5.0,51.0,-29.0
2819.0,2769.0,2895.0,3153.0,3047.0,0.821289,-0.035522,-0.568726,-0.028748,0.0,1.0,-2.0,7347.0,-252.0,2802.0,-322.0,-41.0,-70.0,-51.0,-45.0,-324.0,0.936219,-0.025649,0.350632,14380.0,-700.0,5548.0,10.0,27.0,-31.0
2823.0,2770.0,2895.0,3151.0,3051.0,0.821289,-0.035095,-0.568665,-0.028748,1.0,-1.0,-2.0,7335.0,-222.0,2822.0,-333.0,-17.0,-51.0,-71.0,-19.0,-329.0,0.936094,-0.024951,0.350731,14756.0,-212.0,5776.0,33.0,-9.0,-29.0
2815.0,2763.0,2891.0,3142.0,3031.0,0.821289,-0.034912,-0.568665,-0.02887,0.0,-1.0,-2.0,7358.0,-186.0,2839.0,-310.0,14.0,-34.0,-76.0,13.0,-302.0,0.936092,-0.024512,0.350751,14862.0,-152.0,5782.0,15.0,-13.0,-28.0
2822.0,2768.0,2887.0,3135.0,3029.0,0.821289,-0.03479,-0.568726,-0.029114,-1.0,-1.0,-1.0,7387.0,-168.0,2841.0,-282.0,28.0,-31.0,-67.0,27.0,-275.0,0.936202,-0.02403,0.350704,14850.0,-358.0,5690.0,-10.0,-9.0,-15.0
2822.0,2767.0,2895.0,3147.0,3046.0,0.821289,-0.034729,-0.568726,-0.029175,0.0,-1.0,-1.0,7399.0,-169.0,2837.0,-270.0,26.0,-36.0,-59.0,24.0,-266.0,0.936203,-0.02386,0.350712,14874.0,-294.0,5658.0,5.0,-2.0,-13.0
2827.0,2768.0,2895.0,3149.0,3047.0,0.82135,-0.034485,-0.568604,-0.029297,-1.0,0.0,-1.0,7397.0,-115.0,2810.0,-271.0,76.0,-65.0,-28.0,72.0,-278.0,0.936066,-0.023332,0.350975,14704.0,-146.0,5468.0,-5.0,17.0,-12.0
2819.0,2762.0,2895.0,3151.0,3039.0,0.821411,-0.034485,-0.568542,-0.029419,-1.0,0.0,-1.0,7373.0,-125.0,2786.0,-295.0,65.0,-90.0,-14.0,59.0,-309.0,0.936043,-0.023201,0.351152,14638.0,-332.0,5452.0,-7.0,12.0,-17.0
2819.0,2768.0,2896.0,3139.0,3035.0,0.821411,-0.034241,-0.568542,-0.029602,0.0,0.0,-2.0,7362.0,-177.0,2753.0,-306.0,8.0,-123.0,7.0,0.0,-329.0,0.936041,-0.022591,0.35118,14730.0,-544.0,5424.0,20.0,7.0,-30.0
2822.0,2771.0,2902.0,3150.0,3051.0,0.821411,-0.034058,-0.568542,-0.029602,1.0,0.0,-2.0,7353.0,-188.0,2746.0,-314.0,-5.0,-130.0,10.0,-13.0,-339.0,0.936031,-0.022291,0.351192,14622.0,-400.0,5456.0,37.0,8.0,-39.0
2823.0,2768.0,2899.0,3149.0,3039.0,0.821411,-0.033508,-0.568542,-0.029724,1.0,0.0,-2.0,7365.0,-142.0,2761.0,-302.0,32.0,-116.0,4.0,24.0,-324.0,0.936006,-0.021249,0.351236,14800.0,-130.0,5566.0,25.0,1.0,-28.0
2821.0,2769.0,2891.0,3139.0,3045.0,0.821411,-0.033325,-0.568542,-0.029846,0.0,0.0,-1.0,7366.0,-124.0,2752.0,-301.0,46.0,-125.0,14.0,38.0,-326.0,0.936004,-0.02081,0.351256,14728.0,-182.0,5420.0,10.0,5.0,-21.0
2821.0,2767.0,2891.0,3139.0,3042.0,0.821472,-0.033081,-0.568481,-0.029846,1.0,0.0,-1.0,7381.0,-149.0,2752.0,-286.0,18.0,-127.0,19.0,9.0,-312.0,0.935958,-0.020416,0.351442,14880.0,-312.0,5570.0,31.0,17.0,-15.0
2823.0,2771.0,2898.0,3143.0,3047.0,0.821594,-0.032837,-0.568359,-0.029846,1.0,1.0,-2.0,7373.0,-115.0,2753.0,-293.0,49.0,-128.0,20.0,40.0,-320.0,0.935882,-0.020031,0.351797,14682.0,-14.0,5564.0,35.0,37.0,-24.0
2820.0,2768.0,2896.0,3151.0,3045.0,0.821716,-0.032471,-0.568176,-0.030029,0.0,0.0,-1.0,7330.0,-104.0,2725.0,-335.0,53.0,-160.0,35.0,42.0,-370.0,0.93571,-0.01924,0.352241,14552.0,-168.0,5394.0,13.0,15.0,-14.0
2823.0,2767.0,2895.0,3143.0,3042.0,0.821716,-0.03241,-0.568176,-0.030029,0.0,0.0,-1.0,7325.0,-102.0,2732.0,-340.0,54.0,-153.0,27.0,44.0,-373.0,0.935706,-0.019139,0.352245,14680.0,-224.0,5532.0,8.0,2.0,-10.0
2821.0,2766.0,2895.0,3143.0,3045.0,0.821716,-0.032227,-0.568176,-0.03009,0.0,0.0,-1.0,7351.0,-90.0,2759.0,-314.0,63.0,-126.0,12.0,55.0,-339.0,0.935699,-0.018769,0.35226,14774.0,-102.0,5576.0,11.0,1.0,-8.0
2821.0,2771.0,2896.0,3151.0,3047.0,0.821716,-0.032104,-0.568176,-0.030151,0.0,0.0,-1.0,7364.0,-85.0,2776.0,-301.0,66.0,-109.0,1.0,60.0,-321.0,0.935695,-0.018499,0.352272,14780.0,-166.0,5658.0,6.0,3.0,-7.0
2827.0,2768.0,2895.0,3151.0,3043.0,0.821838,-0.031921,-0.568054,-0.030151,0.0,0.0,-1.0,7393.0,-93.0,2802.0,-271.0,56.0,-86.0,-10.0,51.0,-284.0,0.935622,-0.018213,0.352623,14892.0,-264.0,5704.0,11.0,17.0,-9.0
2819.0,2767.0,2895.0,3147.0,3046.0,0.821899,-0.031799,-0.567932,-0.030151,1.0,1.0,-1.0,7391.0,-116.0,2806.0,-272.0,31.0,-84.0,-15.0,27.0,-284.0,0.935484,-0.018024,0.35287,14708.0,-352.0,5622.0,23.0,27.0,-13.0
2819.0,2768.0,2893.0,3147.0,3039.0,0.822083,-0.031372,-0.567749,-0.03009,1.0,0.0,-1.0,7368.0,-112.0,2825.0,-294.0,30.0,-70.0,-36.0,27.0,-300.0,0.935361,-0.017413,0.353402,14694.0,-126.0,5710.0,39.0,18.0,-20.0
2826.0,2768.0,2897.0,3143.0,3047.0,0.822144,-0.031128,-0.567627,-0.030151,1.0,0.0,-1.0,7353.0,-95.0,2827.0,-308.0,43.0,-70.0,-40.0,41.0,-313.0,0.935219,-0.016954,0.35366,14642.0,-114.0,5660.0,27.0,10.0,-22.0
2823.0,2769.0,2896.0,3149.0,3042.0,0.822144,-0.030823,-0.567627,-0.030212,0.0,-1.0,-1.0,7328.0,-102.0,2839.0,-333.0,32.0,-58.0,-61.0,31.0,-332.0,0.935204,-0.016383,0.353682,14596.0,-218.0,5762.0,15.0,-17.0,-11.0
2823.0,2767.0,2893.0,3149.0,3041.0,0.822083,-0.030762,-0.567688,-0.030151,0.0,-2.0,-1.0,7341.0,-98.0,2856.0,-320.0,35.0,-39.0,-73.0,36.0,-313.0,0.935228,-0.016344,0.353513,14774.0,-138.0,5786.0,10.0,-25.0,-4.0
2823.0,2768.0,2893.0,3147.0,3047.0,0.822021,-0.030701,-0.56781,-0.030212,0.0,-1.0,-1.0,7361.0,-131.0,2873.0,-301.0,1.0,-21.0,-86.0,3.0,-288.0,0.935359,-0.016163,0.353281,14766.0,-462.0,5870.0,5.0,-16.0,-3.0
2823.0,2768.0,2895.0,3151.0,3039.0,0.822021,-0.030701,-0.56781,-0.030212,0.0,-1.0,-1.0,7373.0,-123.0,2843.0,-289.0,9.0,-51.0,-53.0,8.0,-288.0,0.935359,-0.016163,0.353281,14976.0,-156.0,5728.0,5.0,-6.0,-13.0
2823.0,2767.0,2896.0,3151.0,3039.0,0.822083,-0.030396,-0.567688,-0.030396,1.0,0.0,-2.0,7362.0,-168.0,2809.0,-299.0,-41.0,-87.0,-28.0,-43.0,-309.0,0.935221,-0.015465,0.35355,14524.0,-476.0,5480.0,31.0,22.0,-38.0
2817.0,2767.0,2896.0,3147.0,3043.0,0.822144,-0.03009,-0.567627,-0.030396,2.0,0.0,-2.0,7352.0,-162.0,2809.0,-308.0,-39.0,-88.0,-30.0,-41.0,-318.0,0.935171,-0.014971,0.353738,14698.0,-250.0,5642.0,48.0,12.0,-43.0
2823.0,2769.0,2896.0,3143.0,3043.0,0.822266,-0.029419,-0.567566,-0.030518,1.0,0.0,-2.0,7354.0,-115.0,2804.0,-306.0,-2.0,-96.0,-19.0,-4.0,-320.0,0.935175,-0.013739,0.354056,14732.0,-26.0,5592.0,39.0,10.0,-38.0
2853.0,2768.0,2896.0,3150.0,3047.0,0.822266,-0.029175,-0.567505,-0.03064,0.0,0.0,-2.0,7351.0,-81.0,2812.0,-309.0,27.0,-89.0,-24.0,24.0,-320.0,0.935067,-0.013203,0.354147,14654.0,2.0,5650.0,20.0,6.0,-35.0
2821.0,2768.0,2895.0,3151.0,3047.0,0.822266,-0.02887,-0.567566,-0.030884,0.0,-1.0,-2.0,7341.0,-84.0,2789.0,-319.0,17.0,-111.0,-8.0,13.0,-337.0,0.935163,-0.01242,0.35411,14568.0,-206.0,5564.0,4.0,-7.0,-30.0
2819.0,2767.0,2897.0,3143.0,3039.0,0.822205,-0.028748,-0.567627,-0.031006,0.0,-1.0,-2.0,7338.0,-75.0,2788.0,-323.0,23.0,-111.0,-8.0,19.0,-341.0,0.935194,-0.012073,0.353955,14690.0,-36.0,5636.0,6.0,-17.0,-34.0
2821.0,2763.0,2897.0,3147.0,3047.0,0.822144,-0.028503,-0.567749,-0.03125,0.0,-1.0,-2.0,7355.0,-102.0,2783.0,-307.0,-8.0,-114.0,-2.0,-11.0,-327.0,0.935324,-0.011383,0.353745,14520.0,-240.0,5558.0,19.0,-2.0,-29.0
2826.0,2769.0,2896.0,3151.0,3047.0,0.822083,-0.02832,-0.56781,-0.03125,1.0,-1.0,-2.0,7330.0,-88.0,2789.0,-332.0,2.0,-107.0,-17.0,0.0,-348.0,0.935343,-0.011075,0.353586,14570.0,-76.0,5630.0,23.0,-21.0,-27.0
2819.0,2768.0,2899.0,3151.0,3047.0,0.82196,-0.028015,-0.567993,-0.031433,-1.0,-2.0,-1.0,7359.0,-21.0,2810.0,-304.0,63.0,-83.0,-24.0,62.0,-314.0,0.935497,-0.010347,0.353206,14780.0,150.0,5628.0,-3.0,-27.0,-16.0
2823.0,2767.0,2887.0,3147.0,3045.0,0.821838,-0.028015,-0.568115,-0.031616,-1.0,-2.0,-1.0,7374.0,-3.0,2807.0,-290.0,79.0,-83.0,-18.0,77.0,-301.0,0.935569,-0.010125,0.352878,14846.0,74.0,5560.0,-20.0,-25.0,-13.0
2819.0,2768.0,2895.0,3147.0,3046.0,0.821777,-0.028015,-0.568237,-0.03186,-1.0,-1.0,-1.0,7387.0,-1.0,2777.0,-278.0,79.0,-111.0,12.0,75.0,-300.0,0.935714,-0.009836,0.352655,14792.0,8.0,5428.0,-10.0,-3.0,-19.0
2823.0,2768.0,2896.0,3149.0,3045.0,0.821716,-0.027954,-0.568237,-0.031982,-1.0,0.0,-1.0,7377.0,10.0,2761.0,-287.0,88.0,-127.0,24.0,83.0,-314.0,0.935648,-0.009593,0.352566,14674.0,108.0,5450.0,-5.0,1.0,-16.0
2823.0,2758.0,2895.0,3151.0,3045.0,0.821777,-0.027893,-0.568237,-0.032227,-1.0,0.0,-1.0,7353.0,38.0,2743.0,-312.0,113.0,-146.0,35.0,107.0,-344.0,0.935727,-0.009219,0.352685,14550.0,110.0,5376.0,-21.0,12.0,-5.0
2823.0,2766.0,2893.0,3147.0,3043.0,0.821777,-0.027893,-0.568176,-0.032349,-1.0,0.0,-1.0,7330.0,31.0,2737.0,-334.0,105.0,-152.0,32.0,99.0,-367.0,0.935633,-0.009084,0.352762,14546.0,-16.0,5468.0,-20.0,4.0,-5.0
2821.0,2781.0,2891.0,3139.0,3039.0,0.821716,-0.028015,-0.568237,-0.032532,-2.0,-1.0,0.0,7307.0,45.0,2749.0,-358.0,119.0,-139.0,13.0,114.0,-385.0,0.935682,-0.009069,0.352598,14558.0,216.0,5618.0,-23.0,-11.0,6.0
2823.0,2769.0,2895.0,3151.0,3039.0,0.821655,-0.028198,-0.568298,-0.032593,-2.0,-1.0,0.0,7316.0,45.0,2752.0,-349.0,121.0,-135.0,13.0,116.0,-375.0,0.935729,-0.009294,0.352422,14704.0,88.0,5510.0,-45.0,-20.0,22.0
2823.0,2768.0,2896.0,3147.0,3039.0,0.821533,-0.028687,-0.568481,-0.032593,-2.0,-1.0,1.0,7358.0,0.0,2740.0,-309.0,82.0,-143.0,31.0,76.0,-340.0,0.935923,-0.010077,0.351985,14862.0,-188.0,5410.0,-31.0,-8.0,35.0
2821.0,2767.0,2895.0,3139.0,3043.0,0.821594,-0.02887,-0.56842,-0.032471,-1.0,0.0,1.0,7383.0,-8.0,2737.0,-283.0,78.0,-147.0,44.0,71.0,-317.0,0.935897,-0.010524,0.352136,14880.0,-22.0,5432.0,-13.0,12.0,37.0
2821.0,2768.0,2895.0,3143.0,3038.0,0.821716,-0.029053,-0.568176,-0.032288,-1.0,1.0,1.0,7380.0,-12.0,2742.0,-284.0,78.0,-146.0,42.0,71.0,-318.0,0.935636,-0.011056,0.352592,14614.0,-64.0,5450.0,-9.0,37.0,35.0
2823.0,2771.0,2885.0,3149.0,3043.0,0.821838,-0.029236,-0.568054,-0.032166,-1.0,1.0,1.0,7363.0,-21.0,2751.0,-301.0,73.0,-140.0,30.0,66.0,-331.0,0.935578,-0.011511,0.352913,14708.0,-112.0,5710.0,-15.0,24.0,39.0
2823.0,2766.0,2896.0,3151.0,3045.0,0.82196,-0.029541,-0.567871,-0.031921,-1.0,0.0,1.0,7325.0,-45.0,2769.0,-337.0,55.0,-125.0,2.0,50.0,-360.0,0.935421,-0.012309,0.353288,14500.0,-170.0,5628.0,-15.0,11.0,42.0
2811.0,2767.0,2895.0,3143.0,3043.0,0.82196,-0.029724,-0.56781,-0.031799,-1.0,-1.0,1.0,7318.0,-67.0,2779.0,-344.0,37.0,-115.0,-11.0,33.0,-362.0,0.935325,-0.012752,0.353338,14620.0,-274.0,5628.0,-13.0,-7.0,41.0
2819.0,2768.0,2895.0,3143.0,3039.0,0.821899,-0.030029,-0.567932,-0.031555,-1.0,-2.0,1.0,7371.0,-68.0,2827.0,-292.0,42.0,-65.0,-38.0,41.0,-296.0,0.935461,-0.01352,0.353066,15052.0,-198.0,5874.0,-21.0,-24.0,35.0
2826.0,2768.0,2896.0,3147.0,3045.0,0.821899,-0.030273,-0.567932,-0.031433,-2.0,-1.0,1.0,7403.0,-94.0,2823.0,-260.0,21.0,-69.0,-25.0,19.0,-267.0,0.935469,-0.01406,0.353043,14964.0,-340.0,5580.0,-24.0,-7.0,40.0
2823.0,2768.0,2895.0,3151.0,3046.0,0.82196,-0.030518,-0.567871,-0.031189,0.0,0.0,0.0,7415.0,-133.0,2804.0,-248.0,-12.0,-89.0,-5.0,-15.0,-263.0,0.935439,-0.014746,0.353183,14724.0,-266.0,5544.0,13.0,22.0,15.0
2821.0,2769.0,2895.0,3143.0,3043.0,0.822021,-0.030457,-0.567749,-0.031128,0.0,0.0,0.0,7391.0,-126.0,2800.0,-270.0,-5.0,-95.0,-7.0,-8.0,-286.0,0.9353,-0.014726,0.353422,14650.0,-206.0,5562.0,13.0,21.0,6.0
2821.0,2768.0,2897.0,3135.0,3047.0,0.822144,-0.030518,-0.567627,-0.031067,-1.0,0.0,0.0,7371.0,-116.0,2793.0,-290.0,6.0,-104.0,-5.0,1.0,-308.0,0.935238,-0.014911,0.353753,14700.0,-256.0,5564.0,-8.0,16.0,8.0
2823.0,2768.0,2897.0,3153.0,3039.0,0.822205,-0.030579,-0.567566,-0.031067,-1.0,0.0,0.0,7342.0,-133.0,2789.0,-319.0,-9.0,-110.0,-11.0,-13.0,-337.0,0.935211,-0.015019,0.353919,14472.0,-382.0,5566.0,-10.0,11.0,7.0
2815.0,2768.0,2895.0,3149.0,3049.0,0.822144,-0.030701,-0.567627,-0.031006,-1.0,-2.0,0.0,7319.0,-145.0,2803.0,-342.0,-19.0,-94.0,-35.0,-21.0,-352.0,0.935246,-0.015281,0.353738,14682.0,-320.0,5642.0,-8.0,-25.0,9.0
2823.0,2767.0,2895.0,3143.0,3043.0,0.822021,-0.030823,-0.567749,-0.031006,-1.0,-2.0,0.0,7335.0,-151.0,2807.0,-327.0,-24.0,-87.0,-36.0,-26.0,-336.0,0.935315,-0.015467,0.353392,14778.0,-338.0,5652.0,-12.0,-32.0,12.0
2819.0,2768.0,2896.0,3143.0,3039.0,0.821899,-0.031128,-0.567993,-0.030945,-2.0,-2.0,0.0,7401.0,-149.0,2837.0,-263.0,-17.0,-53.0,-44.0,-17.0,-264.0,0.935593,-0.016015,0.352891,15122.0,-394.0,5768.0,-24.0,-27.0,16.0
2819.0,2769.0,2897.0,3147.0,3043.0,0.821838,-0.031311,-0.567993,-0.030884,-1.0,-1.0,1.0,7420.0,-172.0,2822.0,-243.0,-37.0,-67.0,-26.0,-38.0,-250.0,0.935531,-0.016382,0.352776,14892.0,-462.0,5504.0,-14.0,-11.0,24.0
2825.0,2768.0,2899.0,3147.0,3047.0,0.821838,-0.031433,-0.567993,-0.030579,0.0,0.0,1.0,7464.0,-183.0,2832.0,-199.0,-44.0,-57.0,-20.0,-45.0,-205.0,0.93552,-0.016929,0.352749,14990.0,-186.0,5708.0,20.0,18.0,24.0
2823.0,2769.0,2896.0,3147.0,3051.0,0.82196,-0.031433,-0.56781,-0.030457,0.0,1.0,0.0,7459.0,-164.0,2833.0,-203.0,-24.0,-60.0,-17.0,-26.0,-210.0,0.93535,-0.017086,0.35315,14832.0,-302.0,5642.0,10.0,38.0,15.0
2827.0,2767.0,2895.0,3139.0,3043.0,0.822144,-0.031433,-0.567566,-0.030334,-1.0,-1.0,0.0,7336.0,-133.0,2829.0,-324.0,8.0,-68.0,-50.0,6.0,-327.0,0.935148,-0.017251,0.353721,14330.0,-212.0,5700.0,-2.0,0.0,10.0
2822.0,2769.0,2901.0,3151.0,3039.0,0.822144,-0.031433,-0.567627,-0.030334,-1.0,-2.0,-1.0,7311.0,-105.0,2847.0,-350.0,36.0,-50.0,-74.0,36.0,-345.0,0.935249,-0.017248,0.353652,14550.0,-28.0,5816.0,-5.0,-28.0,-1.0
2825.0,2767.0,2896.0,3147.0,3051.0,0.821899,-0.031494,-0.567871,-0.030701,-2.0,-2.0,-1.0,7332.0,-71.0,2846.0,-330.0,67.0,-45.0,-68.0,67.0,-325.0,0.9354,-0.016902,0.352992,14784.0,-150.0,5630.0,-37.0,-40.0,-18.0
2823.0,2769.0,2899.0,3143.0,3039.0,0.821777,-0.031555,-0.568054,-0.030884,-2.0,-2.0,-2.0,7358.0,-79.0,2831.0,-306.0,58.0,-57.0,-49.0,57.0,-307.0,0.935577,-0.016775,0.352591,14916.0,-236.0,5572.0,-33.0,-36.0,-26.0
2815.0,2769.0,2896.0,3143.0,3043.0,0.821655,-0.031433,-0.568237,-0.03125,0.0,-1.0,-2.0,7367.0,-119.0,2803.0,-298.0,13.0,-82.0,-27.0,10.0,-307.0,0.935755,-0.01614,0.352212,14652.0,-234.0,5524.0,9.0,-11.0,-45.0
2821.0,2767.0,2896.0,3152.0,3043.0,0.821594,-0.03125,-0.568298,-0.031433,0.0,-1.0,-3.0,7355.0,-108.0,2798.0,-310.0,19.0,-86.0,-27.0,16.0,-320.0,0.935786,-0.015623,0.352066,14674.0,-154.0,5572.0,7.0,-15.0,-51.0
2821.0,2768.0,2895.0,3152.0,3047.0,0.821533,-0.030945,-0.568481,-0.031738,0.0,-1.0,-2.0,7361.0,-145.0,2775.0,-306.0,-24.0,-106.0,-10.0,-27.0,-323.0,0.936017,-0.014759,0.351795,14636.0,-370.0,5412.0,19.0,-16.0,-36.0
2818.0,2767.0,2895.0,3149.0,3039.0,0.821472,-0.030762,-0.568542,-0.031799,1.0,-1.0,-2.0,7366.0,-141.0,2769.0,-302.0,-23.0,-111.0,-4.0,-27.0,-321.0,0.93604,-0.014381,0.351641,14760.0,-222.0,5496.0,36.0,-15.0,-32.0
2818.0,2767.0,2899.0,3139.0,3051.0,0.82135,-0.030212,-0.568726,-0.03186,0.0,-2.0,-1.0,7343.0,-44.0,2770.0,-326.0,65.0,-107.0,-9.0,61.0,-343.0,0.936171,-0.01339,0.351269,14692.0,230.0,5570.0,21.0,-24.0,-19.0
2830.0,2765.0,2887.0,3151.0,3055.0,0.821289,-0.030029,-0.568787,-0.031921,-1.0,-1.0,-1.0,7352.0,-3.0,2771.0,-317.0,103.0,-105.0,-4.0,99.0,-334.0,0.936194,-0.013013,0.351115,14766.0,256.0,5546.0,-1.0,-20.0,-14.0
2823.0,2767.0,2899.0,3153.0,3051.0,0.821228,-0.029968,-0.568909,-0.032288,-1.0,-1.0,-1.0,7366.0,-16.0,2750.0,-304.0,86.0,-124.0,16.0,80.0,-329.0,0.936343,-0.012484,0.350903,14698.0,-234.0,5348.0,-17.0,0.0,-21.0
2827.0,2774.0,2896.0,3142.0,3047.0,0.821167,-0.029968,-0.568909,-0.032349,0.0,-1.0,-1.0,7339.0,-55.0,2728.0,-330.0,46.0,-145.0,23.0,39.0,-360.0,0.936277,-0.012411,0.350806,14514.0,-336.0,5380.0,6.0,-6.0,-20.0
2818.0,2768.0,2901.0,3142.0,3047.0,0.821106,-0.029541,-0.569092,-0.03241,1.0,-1.0,-2.0,7365.0,-51.0,2735.0,-306.0,44.0,-136.0,23.0,38.0,-334.0,0.936484,-0.011624,0.350527,14964.0,-84.0,5552.0,30.0,-5.0,-34.0
2829.0,2770.0,2887.0,3143.0,3047.0,0.821106,-0.029297,-0.569092,-0.032471,1.0,0.0,-1.0,7366.0,-43.0,2736.0,-305.0,48.0,-135.0,23.0,42.0,-333.0,0.936472,-0.011154,0.350546,14660.0,-28.0,5486.0,28.0,9.0,-22.0
2827.0,2768.0,2895.0,3150.0,3050.0,0.821167,-0.028992,-0.569031,-0.032471,0.0,0.0,-1.0,7377.0,-16.0,2742.0,-294.0,71.0,-131.0,25.0,65.0,-322.0,0.936421,-0.01066,0.350733,14846.0,76.0,5508.0,21.0,9.0,-6.0
2826.0,2762.0,2886.0,3141.0,3051.0,0.821228,-0.028809,-0.56897,-0.032532,0.0,1.0,-1.0,7383.0,3.0,2753.0,-287.0,87.0,-121.0,19.0,82.0,-312.0,0.936382,-0.010298,0.350917,14774.0,118.0,5564.0,13.0,24.0,-12.0
2825.0,2768.0,2895.0,3135.0,3039.0,0.82135,-0.028625,-0.568787,-0.032654,0.0,1.0,-1.0,7372.0,-17.0,2746.0,-297.0,63.0,-132.0,24.0,57.0,-325.0,0.936215,-0.009877,0.351345,14710.0,-120.0,5490.0,3.0,25.0,-19.0
2823.0,2767.0,2895.0,3142.0,3046.0,0.821411,-0.028564,-0.568665,-0.032776,0.0,1.0,-1.0,7352.0,-15.0,2747.0,-316.0,64.0,-133.0,18.0,59.0,-343.0,0.936087,-0.009649,0.351595,14550.0,0.0,5528.0,3.0,23.0,-18.0
2815.0,2769.0,2891.0,3151.0,3051.0,0.821411,-0.028503,-0.568604,-0.032837,0.0,-1.0,0.0,7326.0,-58.0,2754.0,-341.0,19.0,-126.0,0.0,15.0,-363.0,0.935986,-0.009484,0.351672,14652.0,-230.0,5544.0,5.0,-7.0,1.0
2827.0,2771.0,2894.0,3147.0,3046.0,0.821411,-0.028442,-0.568665,-0.032776,0.0,-1.0,0.0,7342.0,-41.0,2767.0,-326.0,36.0,-113.0,-5.0,33.0,-345.0,0.936079,-0.009449,0.351602,14782.0,116.0,5610.0,20.0,-6.0,4.0
2821.0,2767.0,2891.0,3149.0,3039.0,0.821411,-0.02832,-0.568665,-0.032776,-1.0,-1.0,0.0,7357.0,-17.0,2778.0,-311.0,58.0,-102.0,-9.0,55.0,-327.0,0.936071,-0.009248,0.351609,14798.0,-146.0,5578.0,-5.0,-3.0,4.0
2821.0,2763.0,2864.0,3143.0,3051.0,0.821411,-0.02832,-0.568665,-0.032776,0.0,0.0,0.0,7367.0,-33.0,2776.0,-301.0,42.0,-104.0,-5.0,39.0,-318.0,0.936071,-0.009248,0.351609,14742.0,-150.0,5556.0,9.0,5.0,5.0
2815.0,2769.0,2903.0,3159.0,3047.0,0.821533,-0.028076,-0.568542,-0.032654,1.0,0.0,-1.0,7376.0,-46.0,2767.0,-291.0,27.0,-116.0,8.0,23.0,-313.0,0.935987,-0.009001,0.351954,14718.0,-126.0,5486.0,30.0,17.0,-9.0
2815.0,2767.0,2897.0,3151.0,3045.0,0.821594,-0.027893,-0.568481,-0.032654,1.0,0.0,-1.0,7383.0,-53.0,2765.0,-284.0,18.0,-119.0,12.0,14.0,-307.0,0.935944,-0.008707,0.352134,14850.0,-164.0,5546.0,36.0,22.0,-19.0
2821.0,2768.0,2897.0,3151.0,3039.0,0.821777,-0.027405,-0.568237,-0.032654,0.0,1.0,-2.0,7362.0,-32.0,2781.0,-303.0,32.0,-108.0,-3.0,29.0,-321.0,0.935719,-0.007931,0.35274,14540.0,-30.0,5562.0,19.0,29.0,-23.0
2815.0,2765.0,2890.0,3153.0,3031.0,0.821777,-0.027283,-0.568176,-0.032776,0.0,0.0,-2.0,7348.0,-55.0,2776.0,-316.0,7.0,-114.0,-4.0,4.0,-335.0,0.935617,-0.007596,0.352824,14684.0,-300.0,5504.0,13.0,12.0,-25.0
2815.0,2767.0,2879.0,3139.0,3035.0,0.821899,-0.026855,-0.567993,-0.032837,1.0,1.0,-2.0,7372.0,-75.0,2784.0,-291.0,-18.0,-109.0,-2.0,-19.0,-310.0,0.93543,-0.006843,0.353259,14710.0,-104.0,5536.0,40.0,29.0,-41.0
2821.0,2769.0,2899.0,3151.0,3047.0,0.82196,-0.02655,-0.567932,-0.032898,1.0,1.0,-2.0,7359.0,-73.0,2789.0,-303.0,-21.0,-106.0,-9.0,-22.0,-320.0,0.935382,-0.006279,0.353449,14662.0,-134.0,5626.0,43.0,24.0,-45.0
2832.0,2773.0,2901.0,3143.0,3047.0,0.822144,-0.02594,-0.567749,-0.03302,1.0,0.0,-2.0,7363.0,-43.0,2818.0,-298.0,0.0,-81.0,-29.0,0.0,-307.0,0.935255,-0.005159,0.353999,14780.0,58.0,5730.0,34.0,17.0,-38.0
2827.0,2765.0,2898.0,3139.0,3043.0,0.822205,-0.025696,-0.567627,-0.033081,0.0,0.0,-2.0,7366.0,-21.0,2829.0,-294.0,17.0,-73.0,-34.0,18.0,-300.0,0.935111,-0.004699,0.354254,14704.0,96.0,5680.0,22.0,21.0,-34.0
2829.0,2768.0,2895.0,3131.0,3039.0,0.822327,-0.02533,-0.567444,-0.033386,0.0,0.0,-2.0,7360.0,-7.0,2836.0,-299.0,23.0,-69.0,-39.0,25.0,-304.0,0.93494,-0.003769,0.354702,14662.0,18.0,5768.0,6.0,22.0,-38.0
2827.0,2767.0,2896.0,3151.0,3051.0,0.822388,-0.025208,-0.567322,-0.033569,-1.0,0.0,-2.0,7348.0,-10.0,2832.0,-309.0,17.0,-75.0,-38.0,19.0,-315.0,0.934809,-0.003371,0.354959,14622.0,-78.0,5608.0,0.0,17.0,-39.0
2822.0,2767.0,2895.0,3143.0,3043.0,0.822449,-0.024963,-0.567261,-0.033875,0.0,-1.0,-2.0,7338.0,-1.0,2848.0,-319.0,20.0,-61.0,-54.0,23.0,-319.0,0.934777,-0.002631,0.355162,14714.0,88.0,5744.0,2.0,-1.0,-31.0
2823.0,2765.0,2891.0,3151.0,3039.0,0.822449,-0.024841,-0.567261,-0.033997,-1.0,-1.0,-2.0,7345.0,11.0,2852.0,-312.0,29.0,-57.0,-54.0,33.0,-311.0,0.934775,-0.002292,0.355176,14720.0,82.0,5678.0,-7.0,-3.0,-26.0
2822.0,2769.0,2896.0,3139.0,3039.0,0.822449,-0.02478,-0.567261,-0.034241,-1.0,-1.0,-1.0,7344.0,4.0,2838.0,-313.0,19.0,-71.0,-43.0,22.0,-317.0,0.934783,-0.001914,0.355196,14652.0,18.0,5644.0,-1.0,-10.0,-15.0
2825.0,2768.0,2887.0,3147.0,3051.0,0.822388,-0.024719,-0.567322,-0.034302,0.0,-1.0,-1.0,7356.0,15.0,2844.0,-301.0,29.0,-64.0,-44.0,32.0,-304.0,0.934813,-0.001737,0.355033,14814.0,104.0,5744.0,7.0,-11.0,-13.0
2825.0,2769.0,2896.0,3143.0,3045.0,0.822388,-0.024536,-0.567322,-0.034424,-1.0,0.0,-1.0,7369.0,65.0,2831.0,-288.0,75.0,-77.0,-23.0,76.0,-296.0,0.934806,-0.001298,0.355051,14736.0,288.0,5594.0,-3.0,2.0,-12.0
2814.0,2768.0,2895.0,3147.0,3045.0,0.822449,-0.024475,-0.567322,-0.034546,-1.0,0.0,-1.0,7363.0,61.0,2817.0,-295.0,69.0,-92.0,-12.0,70.0,-308.0,0.934877,-0.001062,0.355162,14680.0,24.0,5502.0,-13.0,4.0,-10.0
2822.0,2769.0,2896.0,3149.0,3043.0,0.822449,-0.024353,-0.5672,-0.034668,0.0,1.0,-2.0,7357.0,51.0,2783.0,-299.0,56.0,-127.0,17.0,54.0,-324.0,0.934674,-0.000731,0.355315,14596.0,104.0,5470.0,4.0,27.0,-24.0
2823.0,2769.0,2879.0,3147.0,3037.0,0.82251,-0.024231,-0.567139,-0.03479,0.0,0.0,-2.0,7330.0,45.0,2772.0,-326.0,48.0,-140.0,18.0,46.0,-354.0,0.93464,-0.000399,0.355499,14520.0,66.0,5548.0,9.0,21.0,-28.0
2827.0,2769.0,2896.0,3147.0,3035.0,0.822632,-0.024048,-0.567017,-0.035034,-1.0,0.0,-1.0,7331.0,99.0,2783.0,-325.0,97.0,-132.0,15.0,96.0,-350.0,0.934577,0.000165,0.355864,14606.0,276.0,5490.0,-21.0,16.0,-10.0
2826.0,2768.0,2895.0,3147.0,3039.0,0.822632,-0.024109,-0.566956,-0.035156,-2.0,0.0,0.0,7333.0,75.0,2771.0,-322.0,73.0,-144.0,26.0,71.0,-352.0,0.934487,0.000199,0.355939,14692.0,-46.0,5472.0,-27.0,8.0,1.0
2829.0,2768.0,2893.0,3151.0,3039.0,0.822693,-0.02417,-0.566895,-0.035034,0.0,0.0,0.0,7299.0,33.0,2748.0,-356.0,33.0,-169.0,33.0,30.0,-392.0,0.934454,-4.7e-05,0.356097,14464.0,16.0,5424.0,15.0,5.0,9.0
2827.0,2771.0,2899.0,3151.0,3047.0,0.822632,-0.024109,-0.566956,-0.034912,1.0,-1.0,0.0,7306.0,36.0,2764.0,-349.0,36.0,-151.0,19.0,34.0,-379.0,0.934475,-7.8e-05,0.355922,14730.0,172.0,5624.0,30.0,-12.0,17.0
2823.0,2767.0,2897.0,3151.0,3051.0,0.822632,-0.024048,-0.566956,-0.03479,-1.0,0.0,0.0,7377.0,114.0,2794.0,-278.0,114.0,-121.0,23.0,112.0,-302.0,0.934465,-0.000116,0.355917,14988.0,242.0,5578.0,-18.0,13.0,18.0
2823.0,2771.0,2895.0,3143.0,3039.0,0.822754,-0.024109,-0.566833,-0.034851,-1.0,1.0,0.0,7392.0,84.0,2779.0,-262.0,85.0,-139.0,43.0,81.0,-294.0,0.934409,-0.000162,0.356257,14806.0,-72.0,5482.0,-16.0,36.0,10.0
2822.0,2767.0,2899.0,3143.0,3053.0,0.822998,-0.024048,-0.566467,-0.034851,0.0,2.0,-1.0,7385.0,67.0,2793.0,-266.0,67.0,-132.0,33.0,64.0,-295.0,0.934079,-9.9e-05,0.357077,14746.0,214.0,5660.0,12.0,54.0,-10.0
2823.0,2768.0,2895.0,3151.0,3037.0,0.823181,-0.023926,-0.566223,-0.034973,-1.0,2.0,-1.0,7386.0,87.0,2807.0,-264.0,85.0,-123.0,27.0,83.0,-290.0,0.933882,0.000215,0.357669,14800.0,248.0,5710.0,0.0,60.0,-16.0
2825.0,2766.0,2887.0,3143.0,3045.0,0.823486,-0.023926,-0.565674,-0.035095,-1.0,1.0,0.0,7314.0,34.0,2800.0,-331.0,31.0,-139.0,13.0,30.0,-358.0,0.933329,0.0003,0.358802,14352.0,-102.0,5638.0,-5.0,42.0,1.0
2819.0,2765.0,2894.0,3151.0,3047.0,0.823608,-0.023987,-0.565552,-0.035034,0.0,0.0,0.0,7268.0,17.0,2813.0,-377.0,16.0,-129.0,-13.0,17.0,-398.0,0.933267,0.000116,0.359134,14290.0,-26.0,5722.0,3.0,14.0,11.0
2819.0,2768.0,2891.0,3143.0,3039.0,0.823547,-0.02417,-0.565674,-0.034851,-1.0,-2.0,1.0,7279.0,43.0,2860.0,-367.0,46.0,-79.0,-53.0,50.0,-370.0,0.933403,-0.000381,0.358874,14672.0,204.0,5844.0,-20.0,-33.0,42.0
2825.0,2767.0,2899.0,3152.0,3047.0,0.823486,-0.024414,-0.565735,-0.034729,-2.0,-2.0,2.0,7306.0,43.0,2872.0,-340.0,50.0,-66.0,-55.0,54.0,-341.0,0.933446,-0.000914,0.358684,14770.0,30.0,5786.0,-39.0,-36.0,49.0
2827.0,2769.0,2896.0,3141.0,3043.0,0.823425,-0.024963,-0.565857,-0.034546,-1.0,0.0,1.0,7384.0,8.0,2881.0,-264.0,24.0,-55.0,-41.0,27.0,-266.0,0.933607,-0.002015,0.358405,14900.0,-10.0,5698.0,-19.0,7.0,29.0
2831.0,2775.0,2894.0,3147.0,3043.0,0.823486,-0.025024,-0.565735,-0.034546,-1.0,1.0,0.0,7391.0,2.0,2878.0,-256.0,19.0,-59.0,-35.0,21.0,-260.0,0.933479,-0.002127,0.358641,14824.0,-72.0,5728.0,-13.0,23.0,4.0
2815.0,2767.0,2886.0,3151.0,3043.0,0.823547,-0.025085,-0.565613,-0.034668,-1.0,1.0,-1.0,7394.0,-6.0,2880.0,-252.0,11.0,-59.0,-34.0,13.0,-256.0,0.933357,-0.002101,0.358885,14778.0,-36.0,5794.0,-10.0,32.0,-12.0
2822.0,2771.0,2894.0,3151.0,3051.0,0.823792,-0.025024,-0.565308,-0.034851,-1.0,1.0,-1.0,7352.0,-24.0,2873.0,-292.0,-9.0,-73.0,-37.0,-6.0,-298.0,0.933136,-0.001827,0.359648,14506.0,-128.0,5744.0,-4.0,26.0,-22.0
2815.0,2768.0,2887.0,3139.0,3045.0,0.823792,-0.024963,-0.565247,-0.034912,-1.0,0.0,-1.0,7316.0,-44.0,2874.0,-327.0,-30.0,-72.0,-52.0,-26.0,-330.0,0.933034,-0.001661,0.359724,14434.0,-206.0,5716.0,-1.0,3.0,-13.0
2830.0,2767.0,2891.0,3143.0,3037.0,0.82373,-0.024902,-0.565308,-0.034912,0.0,-1.0,-1.0,7334.0,-38.0,2905.0,-309.0,-25.0,-40.0,-75.0,-19.0,-302.0,0.933061,-0.001553,0.359558,14820.0,64.0,5996.0,14.0,-20.0,-5.0
