flex_1,flex_2,flex_3,flex_4,flex_5,Qw,Qx,Qy,Qz,GYRx,GYRy,GYRz,ACCx,ACCy,ACCz,ACCx_real,ACCy_real,ACCz_real,ACCx_world,ACCy_world,ACCz_world,GRAx,GRAy,GRAz,ACCx_raw,ACCy_raw,ACCz_raw,GYRx_raw,GYRy_raw,GYRz_raw
2887.0,2821.0,2881.0,3135.0,3055.0,1.0,0.0,0.0,0.0,0.0,0.0,0.0,0.0,0.0,0.0,0.0,0.0,0.0,0.0,0.0,0.0,0.0,0.0,0.0,0.0,0.0,0.0,0.0,0.0,0.0
2907.0,2822.0,2895.0,3131.0,3055.0,0.866455,0.005676,-0.499268,0.000671,-1.0,0.0,-1.0,7776.0,-2.0,1085.0,688.0,-77.0,-3022.0,2960.0,-48.0,-920.0,0.865193,0.009166,0.501445,15442.0,-68.0,2162.0,-8.0,17.0,-9.0
2909.0,2819.0,2886.0,3123.0,3057.0,0.865173,0.005737,-0.501465,0.000549,0.0,1.0,-1.0,7815.0,12.0,1144.0,706.0,-64.0,-2927.0,2891.0,-36.0,-842.0,0.867714,0.009377,0.497025,15772.0,148.0,2522.0,17.0,32.0,-19.0
2879.0,2819.0,2879.0,3127.0,3047.0,0.864624,0.00592,-0.50238,0.000549,0.0,1.0,-1.0,7800.0,48.0,1176.0,683.0,-31.0,-2880.0,2840.0,-3.0,-832.0,0.868747,0.009686,0.495154,15410.0,338.0,2522.0,22.0,44.0,-17.0
2899.0,2811.0,2861.0,3127.0,3027.0,0.863342,0.006165,-0.504517,0.000549,0.0,-1.0,0.0,7775.0,129.0,1237.0,638.0,46.0,-2783.0,2737.0,73.0,-809.0,0.871148,0.01009,0.490785,15688.0,462.0,2684.0,6.0,-6.0,1.0
2907.0,2819.0,2870.0,3126.0,3063.0,0.862732,0.006226,-0.505615,0.000549,0.0,-1.0,0.0,7793.0,147.0,1246.0,646.0,63.0,-2756.0,2719.0,90.0,-782.0,0.872428,0.010187,0.488621,15668.0,352.0,2496.0,1.0,-2.0,9.0
2902.0,2811.0,2894.0,3127.0,3063.0,0.861389,0.006287,-0.507935,0.000671,0.0,-1.0,0.0,7785.0,135.0,1224.0,616.0,51.0,-2740.0,2695.0,79.0,-786.0,0.875067,0.010148,0.483955,15620.0,210.0,2328.0,6.0,-12.0,16.0
2899.0,2806.0,2879.0,3125.0,3071.0,0.860657,0.006287,-0.509094,0.000732,0.0,-1.0,0.0,7810.0,127.0,1201.0,631.0,44.0,-2743.0,2707.0,72.0,-767.0,0.87632,0.010076,0.481514,15746.0,222.0,2190.0,5.0,0.0,18.0
2907.0,2827.0,2871.0,3117.0,3047.0,0.859375,0.006165,-0.51123,0.000854,-1.0,0.0,0.0,7784.0,89.0,1146.0,585.0,9.0,-2762.0,2705.0,37.0,-803.0,0.878688,0.009722,0.477131,15410.0,14.0,2198.0,-13.0,19.0,10.0
2901.0,2823.0,2867.0,3121.0,3067.0,0.858765,0.006042,-0.512268,0.000854,-1.0,0.0,0.0,7774.0,55.0,1131.0,566.0,-22.0,-2760.0,2697.0,6.0,-813.0,0.879846,0.009503,0.475022,15522.0,-120.0,2210.0,-9.0,19.0,4.0
2907.0,2831.0,2879.0,3126.0,3053.0,0.857666,0.006104,-0.514221,0.000916,0.0,1.0,-1.0,7771.0,45.0,1154.0,545.0,-33.0,-2705.0,2643.0,-4.0,-793.0,0.882071,0.009528,0.471131,15550.0,144.0,2470.0,10.0,34.0,-1.0
2897.0,2822.0,2864.0,3135.0,3055.0,0.857117,0.006104,-0.515076,0.000977,0.0,1.0,0.0,7770.0,47.0,1184.0,536.0,-30.0,-2660.0,2600.0,-1.0,-775.0,0.882972,0.009457,0.46931,15522.0,108.0,2562.0,7.0,31.0,4.0
2907.0,2815.0,2899.0,3133.0,3058.0,0.855957,0.006165,-0.516968,0.001038,0.0,0.0,0.0,7783.0,77.0,1259.0,532.0,0.0,-2553.0,2506.0,27.0,-717.0,0.885017,0.00948,0.46537,15596.0,266.0,2730.0,4.0,11.0,3.0
2896.0,2825.0,2885.0,3127.0,3063.0,0.855408,0.006165,-0.517944,0.001038,-1.0,0.0,0.0,7795.0,87.0,1291.0,535.0,9.0,-2505.0,2467.0,35.0,-686.0,0.88612,0.009472,0.463419,15666.0,226.0,2774.0,0.0,3.0,7.0
2905.0,2823.0,2881.0,3139.0,3067.0,0.854187,0.006165,-0.519958,0.001099,0.0,-1.0,0.0,7794.0,64.0,1277.0,517.0,-12.0,-2485.0,2444.0,14.0,-682.0,0.888297,0.009389,0.459242,15584.0,-20.0,2470.0,2.0,-10.0,4.0
2897.0,2805.0,2875.0,3123.0,3071.0,0.853516,0.006165,-0.520996,0.00116,0.0,-1.0,0.0,7797.0,45.0,1261.0,511.0,-31.0,-2482.0,2441.0,-4.0,-680.0,0.889371,0.009315,0.457015,15558.0,40.0,2386.0,16.0,-4.0,2.0
2911.0,2815.0,2897.0,3121.0,3047.0,0.852295,0.006348,-0.52301,0.001282,0.0,0.0,-1.0,7782.0,72.0,1221.0,478.0,-5.0,-2488.0,2434.0,23.0,-700.0,0.891534,0.009479,0.452828,15486.0,260.0,2294.0,6.0,5.0,-1.0
2911.0,2819.0,2887.0,3131.0,3051.0,0.851685,0.006348,-0.523926,0.001221,-1.0,0.0,-1.0,7781.0,63.0,1204.0,470.0,-15.0,-2489.0,2433.0,12.0,-702.0,0.892455,0.009533,0.45083,15538.0,40.0,2354.0,-6.0,12.0,-1.0
2895.0,2823.0,2890.0,3135.0,3043.0,0.850586,0.006287,-0.525818,0.001221,-1.0,0.0,0.0,7734.0,53.0,1189.0,406.0,-24.0,-2472.0,2392.0,3.0,-741.0,0.894522,0.009411,0.446974,15342.0,84.0,2404.0,-4.0,4.0,3.0
2906.0,2831.0,2871.0,3139.0,3051.0,0.849976,0.006226,-0.526794,0.001282,-1.0,-1.0,0.0,7731.0,53.0,1197.0,394.0,-22.0,-2447.0,2366.0,5.0,-736.0,0.895541,0.009233,0.444909,15510.0,122.0,2470.0,-3.0,-10.0,5.0
2889.0,2831.0,2880.0,3111.0,3031.0,0.848755,0.006226,-0.528748,0.001343,-1.0,-1.0,0.0,7768.0,74.0,1229.0,415.0,0.0,-2381.0,2319.0,26.0,-676.0,0.897571,0.009148,0.440774,15540.0,172.0,2512.0,-1.0,-7.0,6.0
2895.0,2807.0,2885.0,3119.0,3087.0,0.848145,0.006226,-0.529724,0.001343,0.0,-1.0,0.0,7781.0,61.0,1232.0,419.0,-13.0,-2361.0,2305.0,13.0,-659.0,0.898582,0.009138,0.438705,15702.0,38.0,2472.0,1.0,-11.0,0.0
2903.0,2815.0,2883.0,3125.0,3063.0,0.846985,0.006348,-0.531555,0.001343,0.0,1.0,-1.0,7845.0,66.0,1250.0,468.0,-10.0,-2311.0,2284.0,16.0,-583.0,0.900455,0.009325,0.434794,15818.0,190.0,2546.0,11.0,23.0,-13.0
2903.0,2815.0,2875.0,3111.0,3071.0,0.846497,0.006409,-0.532349,0.001221,-1.0,1.0,-1.0,7822.0,79.0,1237.0,438.0,0.0,-2311.0,2272.0,25.0,-606.0,0.901278,0.00955,0.433122,15414.0,188.0,2392.0,-6.0,35.0,-13.0
2895.0,2811.0,2879.0,3117.0,3071.0,0.845459,0.006409,-0.533997,0.00116,0.0,0.0,-1.0,7749.0,36.0,1221.0,351.0,-42.0,-2298.0,2226.0,-15.0,-670.0,0.902959,0.009598,0.429609,15430.0,12.0,2430.0,3.0,6.0,-11.0
2910.0,2815.0,2896.0,3141.0,3031.0,0.84491,0.00647,-0.534851,0.001099,0.0,0.0,-1.0,7748.0,61.0,1235.0,343.0,-18.0,-2269.0,2197.0,7.0,-660.0,0.903816,0.009757,0.427766,15480.0,338.0,2550.0,3.0,4.0,-9.0
2894.0,2807.0,2879.0,3135.0,3063.0,0.843811,0.006348,-0.536621,0.000977,-2.0,-1.0,0.0,7732.0,95.0,1225.0,313.0,15.0,-2248.0,2168.0,39.0,-669.0,0.905626,0.009664,0.424016,15534.0,148.0,2416.0,-26.0,-15.0,7.0
2927.0,2827.0,2881.0,3155.0,3071.0,0.843201,0.006287,-0.537598,0.000977,-1.0,-1.0,0.0,7771.0,88.0,1230.0,343.0,9.0,-2226.0,2162.0,33.0,-628.0,0.906618,0.009552,0.421938,15774.0,152.0,2480.0,-16.0,-11.0,6.0
2895.0,2815.0,2862.0,3119.0,3047.0,0.842041,0.006165,-0.539307,0.000916,-1.0,0.0,0.0,7805.0,105.0,1236.0,364.0,28.0,-2189.0,2140.0,51.0,-584.0,0.908248,0.009394,0.418144,15678.0,256.0,2482.0,-14.0,3.0,8.0
2902.0,2835.0,2885.0,3147.0,3071.0,0.841553,0.006104,-0.540161,0.000854,-1.0,0.0,0.0,7820.0,100.0,1239.0,372.0,23.0,-2172.0,2129.0,45.0,-565.0,0.909159,0.00935,0.4164,15748.0,164.0,2498.0,-12.0,9.0,9.0
2891.0,2819.0,2896.0,3139.0,3051.0,0.840515,0.006104,-0.541687,0.000916,0.0,0.0,0.0,7781.0,80.0,1231.0,321.0,4.0,-2152.0,2092.0,26.0,-596.0,0.910603,0.009268,0.413004,15302.0,138.0,2458.0,7.0,16.0,3.0
2885.0,2814.0,2877.0,3139.0,3070.0,0.840027,0.006104,-0.542542,0.000916,0.0,-1.0,0.0,7746.0,80.0,1232.0,278.0,4.0,-2137.0,2062.0,26.0,-625.0,0.91151,0.009261,0.411257,15354.0,132.0,2524.0,5.0,-6.0,1.0
2909.0,2798.0,2883.0,3155.0,3059.0,0.838867,0.006104,-0.54425,0.000977,-1.0,-1.0,0.0,7751.0,76.0,1239.0,270.0,0.0,-2098.0,2025.0,22.0,-608.0,0.91312,0.009177,0.407453,15556.0,126.0,2484.0,-8.0,-17.0,7.0
2909.0,2832.0,2895.0,3151.0,3061.0,0.838318,0.006042,-0.545166,0.000977,-1.0,-1.0,0.0,7778.0,67.0,1243.0,290.0,-7.0,-2079.0,2017.0,14.0,-578.0,0.914057,0.009066,0.405535,15722.0,76.0,2488.0,-11.0,-10.0,3.0
2915.0,2827.0,2874.0,3119.0,3071.0,0.83728,0.005981,-0.546692,0.000977,0.0,0.0,-1.0,7800.0,45.0,1239.0,300.0,-28.0,-2055.0,2002.0,-6.0,-551.0,0.91548,0.008949,0.402131,15588.0,66.0,2520.0,10.0,16.0,-3.0
2927.0,2815.0,2890.0,3123.0,3051.0,0.836792,0.006104,-0.547424,0.001038,0.0,0.0,-1.0,7788.0,54.0,1241.0,282.0,-20.0,-2039.0,1981.0,1.0,-558.0,0.916173,0.009079,0.400511,15514.0,200.0,2474.0,13.0,12.0,-4.0
2887.0,2831.0,2891.0,3119.0,3039.0,0.835815,0.006042,-0.54895,0.000977,-2.0,-1.0,0.0,7778.0,94.0,1245.0,260.0,20.0,-2008.0,1945.0,41.0,-558.0,0.917654,0.009029,0.397206,15546.0,224.0,2518.0,-23.0,-3.0,5.0
2903.0,2827.0,2881.0,3119.0,3071.0,0.835266,0.00592,-0.549805,0.000916,-2.0,-1.0,0.0,7764.0,74.0,1230.0,239.0,1.0,-2008.0,1938.0,21.0,-574.0,0.918477,0.008884,0.39535,15434.0,-34.0,2362.0,-29.0,-10.0,7.0
2901.0,2815.0,2877.0,3131.0,3071.0,0.834167,0.005798,-0.551514,0.000916,0.0,-1.0,-1.0,7785.0,32.0,1237.0,247.0,-38.0,-1971.0,1910.0,-18.0,-544.0,0.92012,0.008664,0.391635,15658.0,56.0,2552.0,5.0,-17.0,-2.0
2919.0,2830.0,2879.0,3131.0,3063.0,0.833618,0.005798,-0.552307,0.000916,0.0,-1.0,-1.0,7776.0,53.0,1238.0,232.0,-17.0,-1955.0,1890.0,2.0,-548.0,0.920837,0.008656,0.389843,15474.0,262.0,2470.0,5.0,-10.0,-1.0
2907.0,2815.0,2871.0,3135.0,3069.0,0.83252,0.005798,-0.553955,0.000916,-1.0,-1.0,0.0,7793.0,67.0,1238.0,236.0,-3.0,-1925.0,1866.0,16.0,-525.0,0.922367,0.00864,0.38619,15702.0,108.0,2464.0,-7.0,-15.0,2.0
2923.0,2830.0,2864.0,3123.0,3039.0,0.832031,0.005798,-0.554749,0.000854,-1.0,-1.0,-1.0,7798.0,73.0,1226.0,235.0,1.0,-1923.0,1865.0,20.0,-522.0,0.923146,0.008701,0.384497,15602.0,168.0,2358.0,-7.0,-2.0,-1.0
2907.0,2829.0,2885.0,3125.0,3045.0,0.830994,0.005737,-0.556213,0.000854,0.0,0.0,-1.0,7792.0,57.0,1204.0,219.0,-13.0,-1918.0,1856.0,6.0,-528.0,0.924429,0.008585,0.381145,15556.0,150.0,2350.0,1.0,7.0,-4.0
2910.0,2817.0,2864.0,3123.0,3047.0,0.830566,0.005737,-0.556885,0.000793,-1.0,0.0,-1.0,7783.0,57.0,1201.0,204.0,-13.0,-1909.0,1843.0,5.0,-536.0,0.925069,0.008647,0.379688,15478.0,108.0,2352.0,-3.0,14.0,-8.0
2887.0,2814.0,2873.0,3139.0,3056.0,0.82959,0.005737,-0.558289,0.000793,-1.0,-1.0,-1.0,7744.0,48.0,1203.0,155.0,-22.0,-1881.0,1800.0,-3.0,-564.0,0.92631,0.008633,0.376501,15372.0,70.0,2494.0,-1.0,-4.0,-1.0
2893.0,2809.0,2887.0,3139.0,3067.0,0.829102,0.005737,-0.559021,0.000793,0.0,-1.0,0.0,7727.0,55.0,1226.0,133.0,-15.0,-1844.0,1759.0,3.0,-568.0,0.926979,0.008626,0.374873,15364.0,188.0,2594.0,7.0,-15.0,0.0
2911.0,2815.0,2887.0,3129.0,3062.0,0.828064,0.005798,-0.560608,0.000854,0.0,-2.0,0.0,7727.0,85.0,1282.0,121.0,14.0,-1760.0,1678.0,31.0,-541.0,0.928448,0.008645,0.371376,15428.0,244.0,2702.0,5.0,-40.0,7.0
2899.0,2815.0,2875.0,3126.0,3047.0,0.827454,0.005859,-0.561462,0.000916,0.0,-3.0,0.0,7734.0,92.0,1302.0,122.0,20.0,-1724.0,1646.0,37.0,-523.0,0.929179,0.008669,0.369406,15530.0,232.0,2758.0,6.0,-58.0,9.0
2909.0,2823.0,2879.0,3119.0,3071.0,0.826111,0.00592,-0.563416,0.000916,0.0,-4.0,0.0,7763.0,100.0,1312.0,137.0,28.0,-1677.0,1610.0,45.0,-484.0,0.930898,0.00875,0.364988,15708.0,164.0,2612.0,2.0,-85.0,2.0
2911.0,2825.0,2883.0,3127.0,3055.0,0.825439,0.00592,-0.564453,0.000916,0.0,-4.0,-1.0,7807.0,82.0,1300.0,173.0,10.0,-1671.0,1619.0,27.0,-444.0,0.931855,0.00874,0.362709,15836.0,50.0,2504.0,5.0,-77.0,-6.0
2908.0,2830.0,2893.0,3127.0,3067.0,0.824158,0.006042,-0.566284,0.000854,0.0,-2.0,-1.0,7849.0,45.0,1225.0,202.0,-28.0,-1712.0,1670.0,-10.0,-425.0,0.933425,0.008992,0.358522,15762.0,-46.0,2154.0,3.0,-41.0,-16.0
2899.0,2815.0,2879.0,3123.0,3058.0,0.823547,0.006042,-0.567139,0.000854,-1.0,-2.0,-1.0,7843.0,33.0,1169.0,190.0,-40.0,-1751.0,1703.0,-21.0,-447.0,0.934141,0.008983,0.356548,15670.0,26.0,2076.0,-4.0,-28.0,-13.0
2897.0,2819.0,2887.0,3123.0,3067.0,0.82251,0.005981,-0.568665,0.000671,-1.0,-1.0,-1.0,7817.0,9.0,1098.0,153.0,-65.0,-1794.0,1732.0,-46.0,-490.0,0.935472,0.009076,0.353108,15474.0,-76.0,2046.0,-20.0,0.0,-16.0
2899.0,2823.0,2867.0,3119.0,3067.0,0.822021,0.00592,-0.569397,0.000549,-1.0,0.0,-1.0,7773.0,-1.0,1076.0,104.0,-75.0,-1803.0,1724.0,-56.0,-537.0,0.93612,0.009108,0.351472,15296.0,-38.0,2052.0,-18.0,2.0,-18.0
2897.0,2831.0,2887.0,3133.0,3067.0,0.821106,0.005859,-0.570679,0.000366,-1.0,0.0,-1.0,7770.0,18.0,1112.0,92.0,-57.0,-1742.0,1665.0,-40.0,-521.0,0.93718,0.009204,0.348507,15554.0,160.0,2396.0,-4.0,2.0,-19.0
2895.0,2815.0,2880.0,3127.0,3055.0,0.820679,0.00592,-0.57135,0.000244,-1.0,-1.0,-1.0,7758.0,57.0,1132.0,75.0,-20.0,-1710.0,1629.0,-3.0,-523.0,0.937793,0.009439,0.347038,15440.0,398.0,2380.0,-8.0,-4.0,-13.0
2919.0,2811.0,2871.0,3127.0,3059.0,0.819763,0.005859,-0.572693,0.0,-2.0,-1.0,-1.0,7812.0,107.0,1185.0,120.0,28.0,-1633.0,1574.0,42.0,-448.0,0.938945,0.009607,0.344,15854.0,218.0,2454.0,-25.0,-12.0,-2.0
2897.0,2815.0,2865.0,3143.0,3043.0,0.819336,0.005798,-0.573303,-6.1e-05,-1.0,-1.0,-1.0,7849.0,113.0,1208.0,152.0,34.0,-1598.0,1553.0,48.0,-404.0,0.939455,0.009572,0.342601,15956.0,230.0,2560.0,-20.0,-1.0,-4.0
2911.0,2832.0,2875.0,3127.0,3071.0,0.818604,0.005798,-0.57428,-0.000244,-1.0,1.0,-1.0,7875.0,138.0,1192.0,172.0,57.0,-1595.0,1557.0,70.0,-380.0,0.940212,0.009773,0.340281,15658.0,368.0,2284.0,-11.0,38.0,-8.0
2895.0,2814.0,2871.0,3141.0,3053.0,0.818298,0.005859,-0.574768,-0.000305,-1.0,1.0,-1.0,7847.0,127.0,1178.0,141.0,45.0,-1600.0,1552.0,58.0,-409.0,0.94066,0.00994,0.33922,15480.0,142.0,2266.0,-9.0,43.0,-7.0
2909.0,2831.0,2883.0,3133.0,3053.0,0.817627,0.005859,-0.575684,-0.000366,0.0,0.0,0.0,7760.0,116.0,1157.0,48.0,34.0,-1604.0,1525.0,48.0,-495.0,0.941385,0.010003,0.337068,15390.0,212.0,2324.0,1.0,21.0,1.0
2899.0,2823.0,2895.0,3135.0,3059.0,0.817261,0.005859,-0.576172,-0.000305,0.0,0.0,0.0,7726.0,112.0,1153.0,11.0,30.0,-1598.0,1508.0,44.0,-526.0,0.941762,0.009929,0.335907,15236.0,220.0,2338.0,2.0,13.0,6.0
2910.0,2819.0,2879.0,3135.0,3047.0,0.816895,0.005859,-0.576782,-0.000305,-1.0,-1.0,0.0,7685.0,110.0,1153.0,-34.0,28.0,-1588.0,1484.0,42.0,-563.0,0.942337,0.009925,0.334605,15156.0,198.0,2338.0,-3.0,-7.0,6.0
2885.0,2799.0,2883.0,3131.0,3043.0,0.815857,0.005859,-0.578186,-0.000244,0.0,-3.0,0.0,7722.0,101.0,1190.0,-6.0,20.0,-1523.0,1434.0,34.0,-510.0,0.943431,0.009843,0.331289,15810.0,226.0,2552.0,1.0,-46.0,5.0
2906.0,2819.0,2890.0,3121.0,3063.0,0.815369,0.005798,-0.578918,-0.000244,-1.0,-2.0,0.0,7784.0,101.0,1216.0,50.0,21.0,-1484.0,1417.0,34.0,-441.0,0.944061,0.009738,0.329646,15874.0,222.0,2556.0,-2.0,-28.0,4.0
2910.0,2828.0,2875.0,3135.0,3071.0,0.814514,0.005798,-0.580139,-0.000244,-1.0,-1.0,0.0,7830.0,102.0,1229.0,88.0,22.0,-1448.0,1397.0,34.0,-389.0,0.94506,0.009729,0.326838,15656.0,170.0,2470.0,-3.0,-2.0,1.0
2897.0,2810.0,2877.0,3123.0,3071.0,0.814148,0.005798,-0.580627,-0.000305,-1.0,-1.0,-1.0,7800.0,96.0,1214.0,55.0,15.0,-1453.0,1391.0,27.0,-421.0,0.94543,0.009796,0.325675,15386.0,160.0,2322.0,-1.0,-2.0,-2.0
2899.0,2815.0,2877.0,3143.0,3015.0,0.813171,0.005798,-0.58197,-0.000244,0.0,-3.0,0.0,7713.0,66.0,1193.0,-40.0,-13.0,-1449.0,1358.0,0.0,-505.0,0.94648,0.009714,0.322525,15312.0,62.0,2340.0,7.0,-47.0,6.0
2914.0,2829.0,2883.0,3143.0,3070.0,0.812622,0.005798,-0.582703,-0.000183,0.0,-3.0,0.0,7721.0,76.0,1185.0,-37.0,-2.0,-1442.0,1353.0,11.0,-497.0,0.947032,0.009637,0.320779,15524.0,228.0,2326.0,9.0,-60.0,5.0
2907.0,2830.0,2893.0,3125.0,3055.0,0.811523,0.005859,-0.584229,-0.000122,0.0,-2.0,0.0,7811.0,90.0,1189.0,43.0,10.0,-1409.0,1349.0,22.0,-406.0,0.948229,0.009653,0.317213,15946.0,184.0,2368.0,1.0,-34.0,2.0
2895.0,2822.0,2899.0,3103.0,3061.0,0.811096,0.005859,-0.584839,-0.000183,-1.0,-1.0,-1.0,7859.0,85.0,1182.0,87.0,5.0,-1405.0,1360.0,17.0,-361.0,0.948719,0.009719,0.315806,15992.0,110.0,2360.0,-2.0,-1.0,-6.0
2915.0,2815.0,2865.0,3130.0,3051.0,0.810547,0.005981,-0.585632,-0.000183,0.0,1.0,-1.0,7844.0,78.0,1142.0,66.0,-3.0,-1430.0,1378.0,10.0,-386.0,0.949363,0.009911,0.313985,15384.0,156.0,2126.0,10.0,43.0,-12.0
2899.0,2819.0,2879.0,3135.0,3067.0,0.810242,0.006042,-0.58606,-0.000183,0.0,1.0,-1.0,7776.0,83.0,1129.0,-3.0,1.0,-1435.0,1361.0,14.0,-451.0,0.949698,0.010006,0.312989,15140.0,174.0,2192.0,5.0,25.0,-8.0
2903.0,2822.0,2879.0,3139.0,3059.0,0.809448,0.006104,-0.587158,-0.000244,-1.0,-2.0,-1.0,7719.0,96.0,1149.0,-67.0,12.0,-1393.0,1303.0,25.0,-495.0,0.950545,0.010168,0.310414,15482.0,232.0,2414.0,-7.0,-33.0,-2.0
2893.0,2815.0,2861.0,3120.0,3067.0,0.80896,0.006104,-0.58783,-0.000305,-1.0,-2.0,-1.0,7756.0,91.0,1174.0,-35.0,7.0,-1355.0,1277.0,20.0,-451.0,0.951057,0.010234,0.308835,15766.0,140.0,2468.0,-6.0,-37.0,-2.0
2878.0,2807.0,2895.0,3129.0,3059.0,0.808167,0.006104,-0.588928,-0.000366,-1.0,0.0,-1.0,7848.0,122.0,1212.0,50.0,37.0,-1296.0,1248.0,48.0,-348.0,0.9519,0.010297,0.30626,15820.0,286.0,2428.0,-5.0,3.0,-7.0
2919.0,2835.0,2891.0,3135.0,3047.0,0.807861,0.006165,-0.589355,-0.000427,-1.0,0.0,-1.0,7837.0,118.0,1204.0,36.0,32.0,-1296.0,1244.0,43.0,-361.0,0.95223,0.010464,0.305262,15558.0,216.0,2306.0,-4.0,13.0,-1.0
2899.0,2818.0,2875.0,3142.0,3069.0,0.80719,0.006104,-0.59021,-0.000488,-1.0,0.0,0.0,7816.0,125.0,1172.0,10.0,39.0,-1311.0,1251.0,51.0,-387.0,0.952817,0.01043,0.303171,15490.0,222.0,2144.0,-10.0,15.0,5.0
2879.0,2809.0,2886.0,3171.0,3053.0,0.806885,0.006042,-0.590698,-0.000488,-1.0,0.0,0.0,7801.0,117.0,1152.0,-7.0,32.0,-1322.0,1257.0,44.0,-405.0,0.953245,0.010328,0.302102,15516.0,168.0,2216.0,-16.0,12.0,5.0
2901.0,2787.0,2879.0,3102.0,3059.0,0.806152,0.00592,-0.591614,-0.000549,-1.0,-1.0,0.0,7743.0,96.0,1117.0,-70.0,12.0,-1339.0,1256.0,24.0,-468.0,0.953855,0.010195,0.29984,15440.0,178.0,2194.0,-6.0,-8.0,3.0
2915.0,2820.0,2891.0,3139.0,3049.0,0.805786,0.00592,-0.592163,-0.000549,-1.0,-1.0,0.0,7767.0,101.0,1120.0,-50.0,17.0,-1326.0,1250.0,29.0,-443.0,0.954307,0.010192,0.298599,15734.0,236.0,2294.0,-5.0,-7.0,4.0
2899.0,2819.0,2881.0,3127.0,3047.0,0.805176,0.005859,-0.593018,-0.000549,-1.0,0.0,0.0,7769.0,96.0,1126.0,-54.0,13.0,-1303.0,1228.0,24.0,-437.0,0.95496,0.010087,0.296604,15420.0,178.0,2286.0,-9.0,10.0,8.0
2909.0,2811.0,2866.0,3115.0,3039.0,0.80481,0.005798,-0.593445,-0.000549,-1.0,0.0,0.0,7790.0,91.0,1144.0,-35.0,9.0,-1276.0,1208.0,20.0,-410.0,0.955214,0.009985,0.295508,15766.0,156.0,2424.0,-2.0,4.0,5.0
2901.0,2813.0,2861.0,3135.0,3067.0,0.804321,0.005859,-0.594177,-0.000427,0.0,1.0,0.0,7810.0,109.0,1179.0,-20.0,27.0,-1228.0,1167.0,38.0,-379.0,0.955814,0.009933,0.293852,15578.0,312.0,2408.0,10.0,24.0,8.0
2907.0,2826.0,2885.0,3123.0,3063.0,0.804016,0.00592,-0.594543,-0.000427,0.0,0.0,0.0,7793.0,113.0,1191.0,-38.0,30.0,-1208.0,1143.0,41.0,-389.0,0.95604,0.010028,0.292925,15466.0,238.0,2454.0,7.0,13.0,9.0
2900.0,2823.0,2879.0,3131.0,3070.0,0.803406,0.005859,-0.595398,-0.000305,-1.0,-1.0,0.0,7762.0,117.0,1198.0,-75.0,36.0,-1185.0,1111.0,47.0,-416.0,0.956689,0.009778,0.290928,15514.0,180.0,2422.0,-4.0,-13.0,18.0
2899.0,2822.0,2871.0,3122.0,3059.0,0.80304,0.005798,-0.595886,-0.000244,0.0,-1.0,0.0,7778.0,112.0,1200.0,-62.0,33.0,-1173.0,1104.0,44.0,-398.0,0.957038,0.009604,0.289759,15708.0,184.0,2408.0,1.0,-15.0,20.0
2897.0,2819.0,2894.0,3103.0,3053.0,0.802429,0.005737,-0.59668,-6.1e-05,0.0,0.0,0.0,7795.0,96.0,1187.0,-49.0,19.0,-1170.0,1106.0,30.0,-383.0,0.957586,0.00928,0.287833,15442.0,168.0,2268.0,5.0,16.0,12.0
2896.0,2823.0,2879.0,3131.0,3055.0,0.802124,0.005737,-0.597107,0.0,-1.0,0.0,0.0,7771.0,88.0,1176.0,-76.0,12.0,-1173.0,1101.0,23.0,-409.0,0.957908,0.009204,0.286833,15422.0,142.0,2304.0,-1.0,1.0,8.0
2902.0,2823.0,2894.0,3131.0,3067.0,0.801453,0.005676,-0.598022,0.0,-1.0,-1.0,0.0,7795.0,59.0,1177.0,-57.0,-15.0,-1154.0,1090.0,-4.0,-383.0,0.958573,0.009099,0.284663,15630.0,72.0,2354.0,-5.0,0.0,1.0
2899.0,2800.0,2881.0,3123.0,3051.0,0.801147,0.005615,-0.598389,-6.1e-05,-1.0,0.0,-1.0,7792.0,56.0,1183.0,-62.0,-18.0,-1141.0,1076.0,-7.0,-383.0,0.958794,0.00907,0.283737,15576.0,114.0,2422.0,-4.0,1.0,-5.0
2895.0,2811.0,2870.0,3135.0,3045.0,0.800598,0.005615,-0.599182,-0.000122,-1.0,0.0,-1.0,7796.0,57.0,1192.0,-63.0,-17.0,-1117.0,1054.0,-6.0,-375.0,0.959407,0.009137,0.281907,15532.0,138.0,2400.0,-3.0,11.0,-5.0
2903.0,2815.0,2879.0,3126.0,3067.0,0.800354,0.005615,-0.599548,-0.000122,-1.0,0.0,-1.0,7793.0,56.0,1196.0,-68.0,-18.0,-1106.0,1042.0,-7.0,-376.0,0.9597,0.009135,0.281077,15640.0,76.0,2408.0,-2.0,5.0,-7.0
2907.0,2823.0,2878.0,3135.0,3051.0,0.799805,0.005737,-0.60022,-0.000122,0.0,0.0,0.0,7801.0,99.0,1213.0,-64.0,22.0,-1075.0,1014.0,32.0,-361.0,0.960116,0.009324,0.279391,15606.0,398.0,2518.0,3.0,10.0,4.0
2903.0,2812.0,2871.0,3127.0,3037.0,0.799561,0.005737,-0.600586,-0.000122,-1.0,0.0,0.0,7780.0,109.0,1206.0,-87.0,32.0,-1075.0,1007.0,42.0,-382.0,0.960408,0.009321,0.278561,15412.0,198.0,2344.0,-5.0,8.0,6.0
2902.0,2815.0,2879.0,3123.0,3039.0,0.798889,0.005737,-0.601379,-0.000122,-1.0,-1.0,0.0,7773.0,111.0,1194.0,-98.0,34.0,-1071.0,1001.0,44.0,-390.0,0.96087,0.009314,0.276534,15600.0,276.0,2320.0,0.0,-12.0,9.0
2910.0,2832.0,2867.0,3143.0,3058.0,0.798584,0.005676,-0.601868,-6.1e-05,-1.0,-1.0,0.0,7788.0,102.0,1184.0,-86.0,27.0,-1072.0,1006.0,37.0,-377.0,0.961283,0.009139,0.275459,15650.0,122.0,2356.0,-6.0,-10.0,10.0
2911.0,2827.0,2890.0,3151.0,3069.0,0.797974,0.005615,-0.602661,0.0,0.0,-1.0,0.0,7778.0,82.0,1173.0,-101.0,8.0,-1067.0,998.0,18.0,-388.0,0.961815,0.008962,0.27353,15534.0,118.0,2386.0,4.0,-6.0,2.0
2903.0,2813.0,2879.0,3121.0,3047.0,0.797668,0.005676,-0.603088,0.0,0.0,-1.0,0.0,7803.0,87.0,1184.0,-78.0,12.0,-1048.0,986.0,22.0,-360.0,0.962129,0.009056,0.272527,15772.0,236.0,2448.0,7.0,-4.0,2.0
2893.0,2806.0,2871.0,3121.0,3055.0,0.79718,0.005737,-0.60376,0.0,-1.0,0.0,0.0,7784.0,98.0,1187.0,-101.0,23.0,-1032.0,965.0,33.0,-376.0,0.962611,0.009147,0.270938,15540.0,196.0,2384.0,-1.0,7.0,5.0
2902.0,2826.0,2893.0,3123.0,3059.0,0.796875,0.005676,-0.604065,0.0,-1.0,0.0,0.0,7805.0,114.0,1202.0,-81.0,39.0,-1010.0,950.0,48.0,-350.0,0.962729,0.009047,0.270083,15764.0,334.0,2524.0,-5.0,9.0,6.0
2909.0,2822.0,2881.0,3127.0,3057.0,0.796448,0.005615,-0.604614,0.0,-1.0,0.0,0.0,7775.0,82.0,1184.0,-114.0,8.0,-1017.0,948.0,17.0,-383.0,0.963087,0.008944,0.268739,15352.0,50.0,2274.0,-2.0,17.0,6.0
2895.0,2806.0,2867.0,3122.0,3067.0,0.796204,0.005615,-0.60498,6.1e-05,0.0,-1.0,0.0,7747.0,64.0,1182.0,-144.0,-8.0,-1012.0,936.0,2.0,-409.0,0.963376,0.008868,0.267907,15370.0,8.0,2426.0,6.0,-2.0,8.0
2894.0,2807.0,2879.0,3123.0,3057.0,0.795654,0.005615,-0.605774,0.000183,0.0,-1.0,0.0,7756.0,66.0,1193.0,-140.0,-5.0,-986.0,913.0,4.0,-397.0,0.963975,0.008714,0.266072,15544.0,200.0,2420.0,13.0,-9.0,7.0
2902.0,2810.0,2879.0,3135.0,3053.0,0.795349,0.005676,-0.60614,0.000244,0.0,-1.0,0.0,7763.0,69.0,1198.0,-135.0,-2.0,-974.0,903.0,7.0,-388.0,0.964189,0.008733,0.265142,15584.0,118.0,2408.0,7.0,-12.0,3.0
2919.0,2815.0,2876.0,3127.0,3045.0,0.795044,0.005676,-0.606506,0.000305,0.0,-1.0,0.0,7776.0,67.0,1204.0,-124.0,-3.0,-960.0,893.0,6.0,-373.0,0.964402,0.008656,0.264213,15650.0,152.0,2432.0,7.0,-12.0,3.0
2899.0,2813.0,2870.0,3126.0,3051.0,0.794495,0.005737,-0.607239,0.000244,-1.0,0.0,-1.0,7834.0,98.0,1216.0,-70.0,25.0,-933.0,881.0,34.0,-312.0,0.964899,0.00882,0.26245,15842.0,188.0,2426.0,-5.0,6.0,-4.0
2903.0,2823.0,2879.0,3137.0,3055.0,0.794312,0.005798,-0.607483,0.000244,0.0,0.0,-1.0,7837.0,86.0,1209.0,-68.0,12.0,-936.0,885.0,21.0,-310.0,0.965064,0.008915,0.261862,15628.0,84.0,2398.0,1.0,19.0,-7.0
2901.0,2823.0,2887.0,3123.0,3062.0,0.793884,0.00592,-0.608032,0.000244,0.0,0.0,0.0,7788.0,99.0,1174.0,-120.0,24.0,-960.0,895.0,34.0,-365.0,0.965417,0.009103,0.260514,15456.0,312.0,2284.0,9.0,10.0,0.0
2896.0,2815.0,2877.0,3123.0,3051.0,0.79364,0.00592,-0.608337,0.000244,-1.0,0.0,0.0,7768.0,101.0,1174.0,-142.0,26.0,-953.0,883.0,36.0,-384.0,0.965605,0.0091,0.259755,15376.0,184.0,2300.0,0.0,6.0,9.0
2899.0,2815.0,2871.0,3120.0,3055.0,0.79303,0.005798,-0.609131,0.000366,0.0,-1.0,0.0,7746.0,77.0,1176.0,-168.0,5.0,-936.0,860.0,15.0,-403.0,0.966122,0.00875,0.257822,15538.0,90.0,2436.0,6.0,-20.0,15.0
2903.0,2819.0,2879.0,3131.0,3056.0,0.792725,0.005798,-0.609558,0.000488,0.0,-2.0,0.0,7755.0,78.0,1189.0,-161.0,7.0,-914.0,841.0,16.0,-390.0,0.966429,0.008598,0.256818,15590.0,154.0,2448.0,13.0,-23.0,9.0
2897.0,2813.0,2875.0,3123.0,3056.0,0.792419,0.005859,-0.609924,0.000549,0.0,-1.0,0.0,7792.0,89.0,1211.0,-126.0,18.0,-885.0,823.0,27.0,-348.0,0.966638,0.008616,0.255887,15824.0,318.0,2556.0,13.0,-10.0,5.0
2896.0,2815.0,2875.0,3123.0,3039.0,0.791992,0.00592,-0.610474,0.000488,-1.0,0.0,0.0,7807.0,103.0,1217.0,-114.0,31.0,-868.0,810.0,40.0,-330.0,0.966986,0.008782,0.254539,15680.0,84.0,2470.0,-9.0,4.0,2.0
2899.0,2815.0,2879.0,3130.0,3057.0,0.791809,0.00592,-0.610718,0.000488,-1.0,0.0,-1.0,7816.0,87.0,1212.0,-106.0,15.0,-868.0,812.0,24.0,-322.0,0.96715,0.008779,0.253951,15648.0,58.0,2378.0,-2.0,12.0,-3.0
2903.0,2823.0,2879.0,3133.0,3056.0,0.791382,0.006042,-0.611267,0.000549,0.0,0.0,-1.0,7767.0,87.0,1191.0,-158.0,14.0,-878.0,809.0,24.0,-374.0,0.967498,0.008892,0.252602,15378.0,232.0,2308.0,17.0,3.0,-2.0
2895.0,2815.0,2875.0,3123.0,3051.0,0.791138,0.006104,-0.611633,0.00061,0.0,-1.0,0.0,7761.0,100.0,1189.0,-167.0,27.0,-873.0,802.0,37.0,-381.0,0.96778,0.008911,0.251767,15530.0,288.0,2384.0,9.0,-9.0,3.0
2901.0,2819.0,2875.0,3120.0,3057.0,0.790527,0.006042,-0.612366,0.00061,-1.0,-2.0,0.0,7750.0,99.0,1182.0,-181.0,26.0,-865.0,792.0,36.0,-391.0,0.968191,0.008806,0.249906,15638.0,158.0,2428.0,-11.0,-30.0,10.0
2901.0,2819.0,2887.0,3135.0,3071.0,0.790222,0.005981,-0.612793,0.00061,-1.0,-1.0,0.0,7786.0,101.0,1192.0,-147.0,29.0,-846.0,782.0,38.0,-352.0,0.968493,0.008705,0.2489,15792.0,220.0,2422.0,-7.0,-17.0,6.0
2903.0,2827.0,2885.0,3135.0,3063.0,0.789795,0.00592,-0.613342,0.000488,-1.0,0.0,0.0,7806.0,109.0,1201.0,-130.0,37.0,-826.0,767.0,46.0,-330.0,0.968835,0.008753,0.247552,15570.0,200.0,2418.0,-16.0,12.0,1.0
2894.0,2815.0,2875.0,3103.0,3059.0,0.789612,0.005859,-0.613586,0.000427,-1.0,0.0,0.0,7796.0,89.0,1194.0,-142.0,17.0,-829.0,768.0,26.0,-342.0,0.968995,0.008729,0.246964,15514.0,22.0,2354.0,-14.0,12.0,2.0
2895.0,2814.0,2877.0,3125.0,3055.0,0.789185,0.005859,-0.614075,0.000549,0.0,0.0,0.0,7777.0,59.0,1192.0,-163.0,-11.0,-820.0,754.0,-1.0,-359.0,0.969243,0.008574,0.24569,15444.0,134.0,2340.0,16.0,4.0,4.0
2899.0,2829.0,2879.0,3131.0,3025.0,0.78894,0.00592,-0.614441,0.00061,0.0,-1.0,0.0,7756.0,63.0,1189.0,-186.0,-7.0,-816.0,745.0,2.0,-380.0,0.969522,0.008592,0.244855,15440.0,126.0,2396.0,16.0,-12.0,5.0
2902.0,2827.0,2882.0,3133.0,3059.0,0.788391,0.005981,-0.615112,0.000732,0.0,-1.0,0.0,7774.0,87.0,1199.0,-171.0,17.0,-792.0,726.0,26.0,-358.0,0.969907,0.00853,0.243162,15640.0,234.0,2442.0,7.0,-20.0,7.0
2895.0,2815.0,2879.0,3127.0,3063.0,0.788147,0.005981,-0.615479,0.000793,0.0,-1.0,0.0,7778.0,81.0,1200.0,-169.0,11.0,-785.0,720.0,20.0,-354.0,0.970185,0.008452,0.242327,15574.0,112.0,2402.0,4.0,-18.0,9.0
2903.0,2821.0,2887.0,3139.0,3061.0,0.787842,0.005981,-0.615784,0.000854,0.0,-1.0,0.0,7781.0,76.0,1204.0,-167.0,7.0,-774.0,710.0,16.0,-348.0,0.97029,0.008373,0.24147,15614.0,148.0,2448.0,11.0,-17.0,8.0
2900.0,2819.0,2863.0,3127.0,3059.0,0.787415,0.006104,-0.616394,0.000977,0.0,0.0,0.0,7807.0,78.0,1210.0,-145.0,9.0,-756.0,698.0,18.0,-322.0,0.970727,0.008408,0.240044,15628.0,176.0,2452.0,16.0,5.0,0.0
2901.0,2819.0,2879.0,3119.0,3055.0,0.787231,0.006226,-0.616638,0.001038,0.0,0.0,-1.0,7800.0,87.0,1201.0,-153.0,17.0,-760.0,701.0,26.0,-330.0,0.970887,0.008522,0.239453,15602.0,256.0,2336.0,17.0,7.0,-3.0
2898.0,2819.0,2878.0,3127.0,3067.0,0.786865,0.006348,-0.617065,0.001038,-1.0,0.0,0.0,7792.0,117.0,1190.0,-163.0,45.0,-762.0,700.0,54.0,-339.0,0.971108,0.008709,0.238348,15518.0,274.0,2308.0,0.0,6.0,5.0
2915.0,2827.0,2885.0,3135.0,3061.0,0.786621,0.006287,-0.617371,0.001038,-1.0,0.0,0.0,7776.0,111.0,1176.0,-180.0,40.0,-770.0,704.0,49.0,-357.0,0.971287,0.008609,0.237588,15452.0,166.0,2272.0,-5.0,1.0,9.0
2911.0,2823.0,2879.0,3121.0,3059.0,0.786194,0.006226,-0.61792,0.001099,-1.0,-1.0,0.0,7798.0,96.0,1176.0,-161.0,26.0,-759.0,699.0,35.0,-335.0,0.971623,0.008431,0.236238,15742.0,204.0,2384.0,0.0,0.0,9.0
2902.0,2819.0,2871.0,3123.0,3057.0,0.786011,0.006226,-0.618164,0.00116,0.0,0.0,0.0,7797.0,82.0,1166.0,-163.0,13.0,-764.0,703.0,22.0,-338.0,0.971782,0.008353,0.235649,15522.0,44.0,2248.0,2.0,10.0,8.0
2906.0,2823.0,2881.0,3103.0,3056.0,0.785828,0.006226,-0.618408,0.00116,0.0,0.0,0.0,7774.0,71.0,1165.0,-188.0,2.0,-760.0,694.0,11.0,-361.0,0.971939,0.00835,0.235059,15408.0,64.0,2344.0,7.0,4.0,6.0
2906.0,2825.0,2881.0,3135.0,3063.0,0.785461,0.006287,-0.618896,0.001282,0.0,0.0,0.0,7813.0,95.0,1180.0,-151.0,27.0,-735.0,678.0,36.0,-318.0,0.972255,0.008289,0.233879,15764.0,286.0,2380.0,10.0,12.0,7.0
2897.0,2817.0,2881.0,3127.0,3055.0,0.785339,0.006348,-0.61908,0.001282,0.0,1.0,0.0,7812.0,101.0,1178.0,-153.0,32.0,-734.0,677.0,41.0,-319.0,0.972391,0.008383,0.23346,15552.0,194.0,2332.0,3.0,25.0,5.0
2903.0,2815.0,2881.0,3127.0,3059.0,0.785034,0.006348,-0.619385,0.001404,0.0,0.0,0.0,7766.0,92.0,1179.0,-200.0,24.0,-726.0,659.0,33.0,-363.0,0.972494,0.008227,0.232603,15414.0,302.0,2436.0,13.0,9.0,7.0
2896.0,2827.0,2889.0,3135.0,3062.0,0.784851,0.006409,-0.619629,0.001465,0.0,-1.0,0.0,7770.0,98.0,1190.0,-197.0,30.0,-710.0,644.0,39.0,-356.0,0.972652,0.008244,0.232012,15640.0,182.0,2444.0,8.0,-4.0,6.0
2903.0,2799.0,2875.0,3121.0,3057.0,0.784668,0.006409,-0.619873,0.001526,0.0,0.0,0.0,7786.0,96.0,1196.0,-183.0,29.0,-699.0,637.0,38.0,-339.0,0.972809,0.008166,0.231422,15626.0,204.0,2420.0,11.0,5.0,7.0
2896.0,2815.0,2879.0,3123.0,3055.0,0.784363,0.00647,-0.6203,0.001587,-1.0,0.0,0.0,7796.0,101.0,1196.0,-175.0,33.0,-691.0,631.0,42.0,-329.0,0.973101,0.00818,0.230413,15648.0,212.0,2426.0,-1.0,7.0,6.0
2902.0,2821.0,2883.0,3138.0,3059.0,0.78418,0.00647,-0.620483,0.001587,-1.0,0.0,0.0,7798.0,100.0,1187.0,-174.0,33.0,-696.0,636.0,42.0,-329.0,0.973161,0.008178,0.229899,15582.0,166.0,2306.0,-9.0,10.0,7.0
2903.0,2822.0,2885.0,3135.0,3063.0,0.783875,0.006287,-0.620911,0.001587,-1.0,0.0,0.0,7786.0,60.0,1173.0,-188.0,-4.0,-702.0,640.0,5.0,-343.0,0.973452,0.007885,0.228892,15540.0,92.0,2338.0,-3.0,10.0,10.0
2897.0,2823.0,2881.0,3125.0,3055.0,0.783691,0.006287,-0.621094,0.001648,-1.0,0.0,0.0,7783.0,67.0,1179.0,-192.0,3.0,-691.0,628.0,12.0,-344.0,0.973512,0.007806,0.228378,15542.0,178.0,2388.0,-2.0,10.0,9.0
2896.0,2822.0,2879.0,3071.0,3059.0,0.783386,0.006165,-0.62146,0.001648,-1.0,0.0,0.0,7768.0,70.0,1206.0,-208.0,7.0,-657.0,592.0,15.0,-351.0,0.973707,0.00761,0.227446,15538.0,122.0,2500.0,-4.0,7.0,7.0
2910.0,2825.0,2878.0,3135.0,3059.0,0.783264,0.006165,-0.621643,0.001648,-1.0,0.0,0.0,7780.0,86.0,1216.0,-197.0,23.0,-643.0,581.0,31.0,-337.0,0.973842,0.007608,0.227027,15652.0,252.0,2592.0,-10.0,5.0,12.0
2898.0,2818.0,2887.0,3123.0,3059.0,0.783142,0.006104,-0.621826,0.001648,-1.0,0.0,0.0,7789.0,89.0,1224.0,-189.0,27.0,-632.0,572.0,35.0,-327.0,0.973977,0.00751,0.226609,15642.0,200.0,2494.0,-11.0,10.0,13.0
2896.0,2815.0,2879.0,3131.0,3047.0,0.782898,0.00592,-0.62207,0.001648,-1.0,0.0,0.0,7800.0,84.0,1243.0,-179.0,24.0,-607.0,550.0,31.0,-311.0,0.974055,0.00722,0.225925,15594.0,154.0,2594.0,-9.0,17.0,11.0
2900.0,2822.0,2891.0,3139.0,3057.0,0.782837,0.005859,-0.622192,0.001709,-1.0,0.0,0.0,7788.0,69.0,1238.0,-192.0,11.0,-610.0,550.0,18.0,-324.0,0.97417,0.007047,0.225679,15478.0,70.0,2398.0,-5.0,15.0,7.0
2903.0,2821.0,2887.0,3139.0,3059.0,0.782532,0.005859,-0.622559,0.00177,0.0,0.0,-1.0,7786.0,50.0,1225.0,-195.0,-7.0,-616.0,556.0,0.0,-328.0,0.974364,0.006966,0.224746,15590.0,110.0,2418.0,9.0,6.0,-1.0
2901.0,2815.0,2871.0,3121.0,3051.0,0.78241,0.00592,-0.622742,0.00177,0.0,0.0,0.0,7791.0,58.0,1221.0,-192.0,0.0,-616.0,557.0,7.0,-325.0,0.974499,0.00706,0.224326,15610.0,208.0,2446.0,7.0,14.0,2.0
2907.0,2825.0,2881.0,3130.0,3057.0,0.782166,0.005859,-0.623047,0.00177,-1.0,0.0,0.0,7757.0,90.0,1210.0,-227.0,32.0,-621.0,554.0,40.0,-359.0,0.974672,0.00696,0.223564,15478.0,164.0,2438.0,-20.0,7.0,10.0
2905.0,2827.0,2881.0,3135.0,3059.0,0.781982,0.005737,-0.62323,0.001709,-1.0,0.0,0.0,7756.0,83.0,1213.0,-228.0,26.0,-614.0,547.0,33.0,-359.0,0.974729,0.006843,0.223051,15494.0,154.0,2450.0,-20.0,4.0,9.0
2911.0,2829.0,2879.0,3143.0,3056.0,0.781677,0.005554,-0.623657,0.001648,-1.0,-1.0,0.0,7760.0,83.0,1222.0,-227.0,28.0,-596.0,530.0,35.0,-353.0,0.975016,0.006628,0.222043,15716.0,172.0,2508.0,-11.0,-12.0,9.0
2897.0,2815.0,2886.0,3123.0,3057.0,0.781494,0.005554,-0.623901,0.001648,-1.0,0.0,0.0,7799.0,96.0,1235.0,-189.0,41.0,-579.0,522.0,48.0,-312.0,0.975169,0.006625,0.221452,15772.0,270.0,2532.0,0.0,2.0,10.0
2897.0,2821.0,2879.0,3139.0,3067.0,0.781372,0.005554,-0.624084,0.001709,-1.0,0.0,0.0,7804.0,115.0,1227.0,-185.0,61.0,-583.0,527.0,68.0,-308.0,0.975303,0.006547,0.221033,15650.0,330.0,2418.0,-6.0,4.0,16.0
2907.0,2827.0,2895.0,3135.0,3056.0,0.781067,0.00531,-0.624451,0.001709,-1.0,0.0,0.0,7816.0,85.0,1199.0,-175.0,34.0,-604.0,550.0,40.0,-303.0,0.975494,0.006161,0.220102,15608.0,14.0,2330.0,-11.0,12.0,20.0
2898.0,2819.0,2878.0,3127.0,3059.0,0.780945,0.005249,-0.624573,0.001831,-1.0,0.0,0.0,7787.0,66.0,1181.0,-204.0,17.0,-619.0,558.0,24.0,-334.0,0.975533,0.005911,0.21976,15346.0,54.0,2188.0,0.0,14.0,16.0
2901.0,2815.0,2879.0,3127.0,3056.0,0.780579,0.00531,-0.625,0.001953,1.0,0.0,0.0,7768.0,47.0,1189.0,-225.0,0.0,-602.0,538.0,7.0,-351.0,0.975744,0.005848,0.218654,15632.0,112.0,2450.0,24.0,1.0,4.0
2901.0,2855.0,2887.0,3137.0,3063.0,0.780457,0.005432,-0.625183,0.002075,0.0,0.0,0.0,7773.0,68.0,1205.0,-221.0,19.0,-582.0,519.0,26.0,-342.0,0.975879,0.005884,0.218233,15532.0,288.0,2502.0,22.0,5.0,1.0
2900.0,2815.0,2874.0,3123.0,3059.0,0.780212,0.005493,-0.625488,0.002075,-1.0,0.0,0.0,7776.0,100.0,1217.0,-219.0,51.0,-564.0,502.0,58.0,-336.0,0.97605,0.005976,0.21747,15610.0,260.0,2452.0,-5.0,2.0,13.0
2901.0,2819.0,2887.0,3125.0,3057.0,0.78009,0.005432,-0.625671,0.002075,-1.0,0.0,0.0,7781.0,93.0,1219.0,-215.0,44.0,-559.0,498.0,50.0,-330.0,0.976183,0.005878,0.217051,15574.0,70.0,2418.0,-15.0,7.0,13.0
2911.0,2823.0,2883.0,3135.0,3055.0,0.779785,0.00531,-0.625977,0.002197,0.0,0.0,0.0,7788.0,52.0,1213.0,-209.0,6.0,-558.0,499.0,12.0,-324.0,0.976278,0.005531,0.216195,15696.0,68.0,2510.0,6.0,3.0,9.0
2907.0,2815.0,2885.0,3135.0,3059.0,0.779724,0.00531,-0.626099,0.002258,0.0,0.0,0.0,7800.0,59.0,1214.0,-198.0,14.0,-555.0,498.0,20.0,-313.0,0.976392,0.005453,0.215947,15616.0,228.0,2408.0,16.0,16.0,7.0
2897.0,2826.0,2879.0,3122.0,3063.0,0.779602,0.005371,-0.626221,0.002258,-1.0,0.0,0.0,7788.0,79.0,1213.0,-210.0,33.0,-553.0,494.0,39.0,-324.0,0.97643,0.005546,0.215603,15464.0,238.0,2384.0,-1.0,14.0,9.0
2897.0,2822.0,2885.0,3126.0,3055.0,0.779358,0.005127,-0.626526,0.002319,-1.0,0.0,0.0,7785.0,60.0,1232.0,-215.0,18.0,-527.0,468.0,24.0,-323.0,0.9766,0.005085,0.214843,15662.0,70.0,2572.0,-14.0,3.0,18.0
2901.0,2821.0,2891.0,3135.0,3051.0,0.779236,0.005066,-0.626709,0.002319,-1.0,0.0,0.0,7800.0,58.0,1240.0,-201.0,17.0,-516.0,460.0,23.0,-306.0,0.976732,0.004988,0.214424,15688.0,120.0,2538.0,-13.0,9.0,14.0
2911.0,2831.0,2871.0,3131.0,3051.0,0.779053,0.004883,-0.626892,0.00238,0.0,0.0,0.0,7771.0,26.0,1232.0,-230.0,-11.0,-520.0,458.0,-4.0,-335.0,0.976787,0.004623,0.213911,15464.0,-10.0,2524.0,3.0,6.0,12.0
2896.0,2811.0,2891.0,3123.0,3061.0,0.778931,0.004883,-0.627075,0.002441,0.0,0.0,0.0,7776.0,23.0,1226.0,-226.0,-14.0,-522.0,461.0,-7.0,-332.0,0.97692,0.004545,0.213492,15622.0,40.0,2420.0,12.0,7.0,5.0
2907.0,2815.0,2879.0,3143.0,3057.0,0.77887,0.004944,-0.627197,0.002502,0.0,0.0,0.0,7784.0,30.0,1227.0,-219.0,-7.0,-519.0,460.0,0.0,-324.0,0.977035,0.004562,0.213243,15592.0,92.0,2464.0,11.0,13.0,2.0
2911.0,2811.0,2877.0,3131.0,3039.0,0.778625,0.004944,-0.627441,0.002502,-1.0,0.0,0.0,7778.0,32.0,1215.0,-226.0,-5.0,-526.0,465.0,1.0,-332.0,0.977108,0.004559,0.212557,15516.0,-16.0,2424.0,-7.0,9.0,0.0
2899.0,2815.0,2885.0,3121.0,3061.0,0.778503,0.004883,-0.627563,0.002502,-1.0,0.0,0.0,7770.0,27.0,1216.0,-234.0,-9.0,-522.0,460.0,-2.0,-339.0,0.977145,0.004462,0.212214,15484.0,24.0,2402.0,-5.0,10.0,1.0
2902.0,2826.0,2881.0,3127.0,3057.0,0.77832,0.004822,-0.627869,0.002502,-1.0,0.0,0.0,7809.0,39.0,1253.0,-197.0,3.0,-479.0,426.0,8.0,-293.0,0.97739,0.004363,0.211546,15836.0,170.0,2628.0,-5.0,10.0,7.0
2911.0,2818.0,2881.0,3134.0,3063.0,0.778259,0.004822,-0.627869,0.002502,-1.0,1.0,0.0,7813.0,51.0,1262.0,-193.0,15.0,-470.0,418.0,20.0,-287.0,0.977313,0.004363,0.211451,15550.0,142.0,2530.0,-8.0,29.0,5.0
2905.0,2815.0,2893.0,3127.0,3045.0,-1.21228,-0.412415,-0.437195,-1.787231,32612.0,5721.0,31200.0,11444.0,-19134.0,-6701.0,8051.0,25409.0,23589.0,10320.0,7781.0,-26666.0,0.414155,2.562661,4.302595,15286.0,-80.0,2536.0,2.0,-12.0,4.0
2897.0,2823.0,2885.0,3135.0,3055.0,0.777893,0.004761,-0.628357,0.002563,0.0,-1.0,0.0,7757.0,20.0,1277.0,-251.0,-14.0,-445.0,382.0,-8.0,-339.0,0.977613,0.004185,0.210269,15772.0,104.0,2656.0,15.0,-22.0,1.0
2899.0,2826.0,2883.0,3123.0,3039.0,0.777649,0.004944,-0.628662,0.002686,0.0,-1.0,-1.0,7762.0,41.0,1277.0,-248.0,5.0,-439.0,377.0,10.0,-334.0,0.977783,0.004313,0.209505,15446.0,190.0,2470.0,18.0,-10.0,-3.0
2913.0,2823.0,2887.0,3135.0,3039.0,0.777466,0.005005,-0.628906,0.002686,0.0,-1.0,-1.0,7775.0,53.0,1276.0,-236.0,16.0,-435.0,375.0,21.0,-321.0,0.977933,0.004404,0.208912,15680.0,174.0,2550.0,14.0,-18.0,-4.0
2899.0,2810.0,2883.0,3135.0,3037.0,0.777161,0.005188,-0.629272,0.002686,0.0,-1.0,-1.0,7782.0,71.0,1252.0,-230.0,32.0,-451.0,392.0,37.0,-318.0,0.978119,0.004684,0.207975,15504.0,134.0,2440.0,3.0,-6.0,-3.0
2896.0,2819.0,2886.0,3135.0,3069.0,0.776978,0.005188,-0.629456,0.002686,0.0,-1.0,0.0,7783.0,67.0,1234.0,-230.0,28.0,-465.0,406.0,33.0,-321.0,0.978174,0.004681,0.20746,15608.0,104.0,2348.0,3.0,-7.0,2.0
2903.0,2821.0,2879.0,3121.0,3051.0,0.776855,0.005249,-0.629639,0.002686,0.0,0.0,0.0,7780.0,71.0,1221.0,-234.0,31.0,-475.0,415.0,37.0,-327.0,0.978305,0.004774,0.207039,15468.0,182.0,2342.0,7.0,1.0,4.0
2899.0,2811.0,2871.0,3135.0,3055.0,0.77655,0.005188,-0.630066,0.002808,-1.0,-1.0,0.0,7759.0,66.0,1204.0,-257.0,28.0,-483.0,419.0,34.0,-350.0,0.978585,0.004519,0.206028,15642.0,92.0,2414.0,-1.0,-19.0,14.0
2895.0,2819.0,2885.0,3127.0,3063.0,0.776367,0.005127,-0.630249,0.002808,-1.0,-1.0,0.0,7784.0,59.0,1208.0,-233.0,22.0,-475.0,416.0,27.0,-325.0,0.978638,0.004422,0.205514,15686.0,92.0,2404.0,-2.0,-12.0,14.0
2907.0,2815.0,2870.0,3127.0,3055.0,0.776062,0.005066,-0.630615,0.002869,-1.0,0.0,0.0,7819.0,50.0,1219.0,-199.0,15.0,-456.0,405.0,20.0,-288.0,0.978822,0.004245,0.204579,15714.0,114.0,2480.0,-1.0,8.0,7.0
2898.0,2803.0,2895.0,3143.0,3047.0,0.776001,0.005066,-0.630676,0.00293,-1.0,0.0,0.0,7824.0,44.0,1214.0,-194.0,9.0,-460.0,410.0,14.0,-283.0,0.97884,0.004167,0.204408,15686.0,28.0,2418.0,-2.0,15.0,4.0
2903.0,2814.0,2864.0,3135.0,3055.0,0.77594,0.005066,-0.630798,0.00293,0.0,0.0,0.0,7761.0,38.0,1209.0,-258.0,3.0,-463.0,400.0,8.0,-347.0,0.978953,0.004166,0.204159,15180.0,76.0,2400.0,2.0,19.0,2.0
2907.0,2822.0,2875.0,3131.0,3047.0,0.775818,0.005005,-0.63092,0.00293,-1.0,-1.0,0.0,7710.0,46.0,1211.0,-309.0,12.0,-458.0,385.0,17.0,-395.0,0.978988,0.004069,0.203816,15182.0,138.0,2436.0,-3.0,-13.0,10.0
2899.0,2831.0,2879.0,3130.0,3046.0,0.775391,0.004883,-0.631409,0.002991,-1.0,-1.0,0.0,7762.0,48.0,1236.0,-259.0,16.0,-423.0,361.0,21.0,-339.0,0.979206,0.003795,0.202539,15616.0,58.0,2448.0,-7.0,-19.0,9.0
2901.0,2811.0,2870.0,3135.0,3051.0,0.775208,0.004822,-0.631653,0.002991,-1.0,-2.0,0.0,7773.0,38.0,1241.0,-249.0,7.0,-413.0,354.0,12.0,-327.0,0.979353,0.003698,0.201947,15658.0,24.0,2522.0,-2.0,-26.0,7.0
2897.0,2821.0,2883.0,3131.0,3071.0,0.775024,0.004883,-0.631897,0.003052,0.0,-1.0,0.0,7802.0,23.0,1264.0,-222.0,-7.0,-385.0,332.0,-2.0,-294.0,0.979501,0.003712,0.201355,15788.0,-40.0,2636.0,12.0,-20.0,3.0
2909.0,2818.0,2879.0,3123.0,3063.0,0.77478,0.005066,-0.632202,0.003174,0.0,-1.0,-1.0,7805.0,50.0,1273.0,-220.0,18.0,-370.0,318.0,22.0,-289.0,0.979668,0.003837,0.200589,15492.0,276.0,2528.0,22.0,-10.0,-2.0
2901.0,2803.0,2879.0,3127.0,3061.0,0.774658,0.005127,-0.632385,0.003174,0.0,-1.0,0.0,7802.0,79.0,1264.0,-224.0,46.0,-375.0,322.0,50.0,-294.0,0.979797,0.003929,0.200168,15640.0,300.0,2510.0,1.0,-17.0,2.0
2899.0,2807.0,2864.0,3139.0,3051.0,0.774353,0.005066,-0.632751,0.003113,-1.0,-1.0,0.0,7788.0,51.0,1218.0,-239.0,18.0,-414.0,357.0,23.0,-316.0,0.979978,0.003906,0.199232,15424.0,2.0,2302.0,-10.0,-3.0,1.0
2895.0,2818.0,2879.0,3127.0,3056.0,0.77417,0.005005,-0.632935,0.003052,-1.0,-1.0,0.0,7761.0,34.0,1200.0,-267.0,2.0,-427.0,365.0,7.0,-346.0,0.980028,0.003886,0.198717,15400.0,-28.0,2340.0,-5.0,-12.0,0.0
2882.0,2817.0,2879.0,3135.0,3055.0,0.773865,0.005005,-0.633362,0.003052,-1.0,-1.0,-1.0,7760.0,36.0,1188.0,-270.0,4.0,-431.0,369.0,9.0,-349.0,0.980303,0.00388,0.197704,15578.0,134.0,2348.0,-3.0,-19.0,-1.0
2903.0,2811.0,2879.0,3131.0,3029.0,0.773682,0.004944,-0.633545,0.003052,-1.0,-1.0,0.0,7777.0,38.0,1197.0,-254.0,7.0,-418.0,359.0,12.0,-331.0,0.980354,0.003783,0.197189,15682.0,80.0,2478.0,-6.0,-15.0,1.0
2896.0,2815.0,2869.0,3123.0,3063.0,0.773438,0.005005,-0.63385,0.002991,0.0,0.0,-1.0,7820.0,39.0,1213.0,-212.0,6.0,-396.0,346.0,10.0,-285.0,0.980517,0.003951,0.196424,15654.0,128.0,2448.0,8.0,11.0,-9.0
2899.0,2821.0,2887.0,3131.0,3057.0,0.773376,0.005066,-0.633911,0.002991,0.0,0.0,-1.0,7814.0,62.0,1220.0,-218.0,28.0,-387.0,336.0,32.0,-289.0,0.980534,0.004044,0.196251,15634.0,270.0,2470.0,6.0,8.0,-8.0
2896.0,2815.0,2883.0,3123.0,3059.0,0.773315,0.005188,-0.634033,0.002869,-1.0,0.0,0.0,7796.0,75.0,1207.0,-237.0,39.0,-398.0,343.0,44.0,-310.0,0.980645,0.004386,0.196,15370.0,162.0,2306.0,-1.0,18.0,0.0
2911.0,2821.0,2879.0,3121.0,3057.0,0.773193,0.005127,-0.634155,0.002869,-1.0,-1.0,0.0,7763.0,83.0,1201.0,-270.0,47.0,-401.0,339.0,52.0,-343.0,0.980679,0.00429,0.195657,15358.0,210.0,2378.0,-8.0,0.0,5.0
2901.0,2819.0,2869.0,3135.0,3057.0,-1.406006,-0.036011,1.867249,1.292725,25781.0,12056.0,-45.0,-213.0,100.0,20714.0,23072.0,25259.0,19402.0,-23081.0,-30586.0,-15542.0,5.157621,4.928939,0.160075,15582.0,44.0,2472.0,-4.0,-19.0,9.0
2902.0,2827.0,2881.0,3131.0,3055.0,0.772705,0.005005,-0.634705,0.002869,0.0,-1.0,0.0,7785.0,50.0,1220.0,-250.0,16.0,-370.0,314.0,20.0,-317.0,0.980908,0.004093,0.194206,15768.0,106.0,2498.0,7.0,-19.0,3.0
2893.0,2815.0,2881.0,3119.0,3057.0,0.772583,0.005188,-0.634888,0.002869,0.0,0.0,-1.0,7817.0,75.0,1222.0,-219.0,39.0,-365.0,315.0,43.0,-285.0,0.981037,0.004374,0.193783,15606.0,158.0,2408.0,2.0,19.0,-3.0
2897.0,2811.0,2878.0,3127.0,3059.0,0.772522,0.005188,-0.634949,0.002869,-1.0,0.0,-1.0,7798.0,65.0,1208.0,-238.0,29.0,-378.0,324.0,33.0,-306.0,0.981053,0.004373,0.193612,15484.0,58.0,2374.0,-1.0,15.0,-1.0
2897.0,2819.0,2885.0,3127.0,3055.0,0.772461,0.005188,-0.63501,0.002869,0.0,0.0,-1.0,7793.0,46.0,1210.0,-243.0,10.0,-374.0,319.0,14.0,-310.0,0.98107,0.004372,0.19344,15540.0,8.0,2404.0,8.0,16.0,-2.0
2899.0,2826.0,2867.0,3119.0,3063.0,0.772339,0.005249,-0.635193,0.00293,0.0,-1.0,0.0,7732.0,55.0,1216.0,-305.0,19.0,-365.0,299.0,23.0,-369.0,0.981199,0.004386,0.193018,15356.0,172.0,2544.0,3.0,-9.0,6.0
2897.0,2805.0,2879.0,3123.0,3056.0,0.772217,0.005249,-0.635315,0.002991,0.0,-1.0,0.0,7745.0,46.0,1230.0,-293.0,10.0,-348.0,284.0,14.0,-354.0,0.981233,0.004307,0.192675,15604.0,10.0,2518.0,3.0,-16.0,4.0
2897.0,2813.0,2881.0,3125.0,3045.0,0.771973,0.005249,-0.635559,0.002991,-1.0,-1.0,0.0,7788.0,59.0,1242.0,-250.0,23.0,-330.0,275.0,27.0,-308.0,0.9813,0.004303,0.191988,15656.0,126.0,2434.0,-1.0,-4.0,3.0
2902.0,2819.0,2871.0,3135.0,3057.0,0.771912,0.005249,-0.635681,0.002991,0.0,-1.0,0.0,7799.0,51.0,1242.0,-240.0,15.0,-328.0,275.0,19.0,-298.0,0.981411,0.004301,0.191738,15652.0,66.0,2462.0,2.0,0.0,4.0
2902.0,2805.0,2879.0,3131.0,3055.0,0.771851,0.00531,-0.635803,0.003052,0.0,0.0,-1.0,7798.0,47.0,1235.0,-242.0,11.0,-333.0,280.0,15.0,-301.0,0.981523,0.004317,0.191489,15594.0,70.0,2456.0,5.0,1.0,-2.0
2899.0,2814.0,2879.0,3123.0,3057.0,0.771606,0.005432,-0.636047,0.003113,0.0,-1.0,-1.0,7759.0,36.0,1213.0,-282.0,0.0,-350.0,289.0,4.0,-343.0,0.98159,0.004423,0.1908,15392.0,98.0,2396.0,22.0,-9.0,-2.0
2899.0,2815.0,2879.0,3131.0,3059.0,0.771484,0.005554,-0.63623,0.003174,1.0,-1.0,0.0,7755.0,43.0,1221.0,-287.0,5.0,-338.0,277.0,9.0,-346.0,0.981719,0.004531,0.190378,15486.0,134.0,2548.0,25.0,-18.0,1.0
2901.0,2817.0,2879.0,3127.0,3061.0,0.771057,0.005859,-0.636719,0.00354,3.0,-3.0,-1.0,7741.0,-32.0,1233.0,-303.0,-69.0,-316.0,253.0,-64.0,-357.0,0.981935,0.004528,0.189097,15664.0,-420.0,2528.0,75.0,-56.0,-9.0
2896.0,2815.0,2882.0,3123.0,3063.0,0.770813,0.006348,-0.637024,0.003845,5.0,-2.0,-2.0,7782.0,-24.0,1251.0,-263.0,-64.0,-291.0,237.0,-59.0,-313.0,0.982101,0.004887,0.188328,15840.0,104.0,2624.0,124.0,-42.0,-25.0
2896.0,2815.0,2871.0,3127.0,3053.0,0.770508,0.007568,-0.637329,0.004456,4.0,-1.0,-1.0,7822.0,89.0,1242.0,-224.0,39.0,-293.0,245.0,44.0,-274.0,0.982202,0.005984,0.187456,15680.0,602.0,2330.0,104.0,-11.0,-6.0
2899.0,2815.0,2883.0,3131.0,3063.0,0.770386,0.007935,-0.637451,0.004578,2.0,-1.0,0.0,7832.0,166.0,1231.0,-214.0,113.0,-301.0,253.0,119.0,-265.0,0.982239,0.006389,0.187108,15704.0,670.0,2388.0,48.0,-2.0,3.0
2896.0,2818.0,2887.0,3127.0,3061.0,0.770203,0.007812,-0.637695,0.004578,-2.0,0.0,1.0,7800.0,143.0,1141.0,-247.0,92.0,-386.0,331.0,99.0,-314.0,0.982381,0.006196,0.186517,15426.0,134.0,1988.0,-27.0,10.0,25.0
2899.0,2813.0,2871.0,3133.0,3047.0,0.770081,0.007629,-0.637817,0.004517,-2.0,0.0,0.0,7770.0,101.0,1107.0,-277.0,51.0,-418.0,358.0,59.0,-349.0,0.98241,0.005989,0.186175,15372.0,-118.0,2064.0,-28.0,7.0,11.0
2902.0,2814.0,2879.0,3131.0,3052.0,0.769958,0.007507,-0.638062,0.004639,0.0,0.0,0.0,7779.0,55.0,1115.0,-270.0,8.0,-406.0,348.0,15.0,-340.0,0.982631,0.005641,0.185679,15710.0,194.0,2402.0,8.0,15.0,1.0
2903.0,2826.0,2875.0,3135.0,3055.0,0.769958,0.007568,-0.638062,0.004639,0.0,1.0,-1.0,7792.0,72.0,1149.0,-257.0,25.0,-372.0,317.0,32.0,-321.0,0.982632,0.005735,0.185678,15636.0,256.0,2548.0,5.0,29.0,-2.0
2902.0,2813.0,2874.0,3131.0,3053.0,0.77002,0.007629,-0.638,0.004639,0.0,1.0,0.0,7782.0,86.0,1182.0,-267.0,38.0,-340.0,283.0,44.0,-325.0,0.982616,0.005831,0.185849,15434.0,278.0,2516.0,1.0,37.0,3.0
2895.0,2815.0,2882.0,3131.0,3055.0,0.77002,0.007507,-0.637939,0.004517,-1.0,0.0,0.0,7791.0,105.0,1254.0,-257.0,57.0,-269.0,215.0,62.0,-302.0,0.98252,0.005799,0.185927,15698.0,206.0,2668.0,-19.0,10.0,9.0
2896.0,2825.0,2887.0,3121.0,3058.0,0.77002,0.007385,-0.637939,0.004517,-1.0,0.0,0.0,7796.0,97.0,1265.0,-252.0,51.0,-258.0,205.0,56.0,-295.0,0.982518,0.005611,0.185929,15538.0,134.0,2512.0,-19.0,15.0,13.0
2907.0,2822.0,2881.0,3133.0,3067.0,0.769836,0.007141,-0.638123,0.004456,-2.0,-1.0,0.0,7767.0,98.0,1256.0,-282.0,54.0,-262.0,204.0,58.0,-325.0,0.982564,0.005309,0.185417,15500.0,174.0,2476.0,-25.0,-12.0,15.0
2899.0,2815.0,2877.0,3135.0,3063.0,0.769714,0.007019,-0.638306,0.004395,-2.0,-1.0,0.0,7770.0,78.0,1235.0,-280.0,35.0,-280.0,222.0,40.0,-326.0,0.982688,0.005195,0.184996,15584.0,10.0,2352.0,-24.0,-17.0,11.0
2903.0,2819.0,2865.0,3125.0,3039.0,0.76947,0.006836,-0.638611,0.004395,-1.0,-1.0,0.0,7784.0,53.0,1228.0,-267.0,12.0,-281.0,226.0,17.0,-314.0,0.982844,0.004907,0.184233,15606.0,96.0,2464.0,-7.0,-10.0,3.0
2903.0,2819.0,2879.0,3131.0,3059.0,0.769409,0.006836,-0.638672,0.004395,-1.0,0.0,0.0,7783.0,76.0,1232.0,-268.0,35.0,-275.0,220.0,39.0,-313.0,0.98286,0.004906,0.184061,15566.0,336.0,2448.0,-10.0,2.0,4.0
2903.0,2827.0,2879.0,3135.0,3063.0,0.769348,0.006653,-0.638794,0.004211,-1.0,0.0,0.0,7790.0,71.0,1224.0,-262.0,31.0,-281.0,227.0,35.0,-309.0,0.982966,0.004856,0.183812,15604.0,8.0,2440.0,-21.0,14.0,4.0
2897.0,2801.0,2873.0,3135.0,3059.0,0.769348,0.006592,-0.638794,0.004211,0.0,0.0,0.0,7786.0,40.0,1225.0,-266.0,0.0,-280.0,226.0,4.0,-312.0,0.982965,0.004762,0.183813,15514.0,-100.0,2464.0,6.0,19.0,1.0
2903.0,2829.0,2887.0,3127.0,3062.0,0.769287,0.006714,-0.638855,0.004272,1.0,0.0,-1.0,7760.0,28.0,1229.0,-292.0,-11.0,-275.0,216.0,-6.0,-337.0,0.982983,0.004871,0.18364,15360.0,-2.0,2534.0,27.0,5.0,-7.0
2893.0,2819.0,2879.0,3135.0,3059.0,0.769043,0.006958,-0.639099,0.004395,0.0,-2.0,0.0,7744.0,82.0,1282.0,-309.0,40.0,-216.0,155.0,44.0,-343.0,0.983051,0.005085,0.18295,15476.0,308.0,2696.0,8.0,-44.0,1.0
2901.0,2815.0,2879.0,3121.0,3053.0,0.76886,0.006958,-0.639343,0.004333,-1.0,-3.0,0.0,7776.0,84.0,1307.0,-278.0,41.0,-186.0,131.0,44.0,-307.0,0.983191,0.005158,0.182356,15800.0,120.0,2684.0,-13.0,-54.0,1.0
2902.0,2803.0,2867.0,3131.0,3039.0,0.768494,0.006836,-0.639832,0.004211,-1.0,-2.0,-1.0,7813.0,21.0,1295.0,-243.0,-20.0,-189.0,142.0,-16.0,-273.0,0.983471,0.005118,0.181169,15568.0,-182.0,2418.0,-10.0,-37.0,-11.0
2911.0,2827.0,2885.0,3131.0,3071.0,0.768311,0.006836,-0.640076,0.004211,-1.0,-2.0,-1.0,7811.0,-2.0,1257.0,-246.0,-43.0,-222.0,174.0,-38.0,-282.0,0.983611,0.005113,0.180575,15648.0,-100.0,2298.0,-1.0,-37.0,-17.0
2903.0,2832.0,2883.0,3133.0,3066.0,0.767944,0.006897,-0.640442,0.004028,-1.0,-1.0,-1.0,7777.0,-3.0,1156.0,-281.0,-47.0,-314.0,259.0,-41.0,-333.0,0.983703,0.005433,0.179541,15330.0,-30.0,1984.0,-7.0,-12.0,-21.0
2893.0,2807.0,2901.0,3127.0,3029.0,0.767761,0.006897,-0.640625,0.003967,-1.0,-1.0,-1.0,7753.0,-1.0,1108.0,-305.0,-46.0,-358.0,298.0,-39.0,-364.0,0.983749,0.005507,0.179025,15376.0,38.0,1978.0,-8.0,-12.0,-15.0
2896.0,2807.0,2867.0,3123.0,3059.0,0.767517,0.006958,-0.64093,0.003784,-1.0,0.0,-1.0,7748.0,50.0,1092.0,-312.0,2.0,-368.0,306.0,8.0,-372.0,0.983902,0.00583,0.178257,15468.0,296.0,2170.0,-12.0,3.0,-12.0
2903.0,2829.0,2879.0,3135.0,3053.0,0.767456,0.006958,-0.641052,0.003662,-1.0,0.0,-1.0,7766.0,88.0,1115.0,-295.0,38.0,-343.0,284.0,44.0,-351.0,0.98401,0.005985,0.178006,15676.0,420.0,2436.0,-17.0,10.0,-6.0
2903.0,2821.0,2883.0,3131.0,3063.0,0.767517,0.006897,-0.640991,0.003418,-1.0,1.0,0.0,7782.0,104.0,1161.0,-278.0,53.0,-298.0,242.0,58.0,-326.0,0.983991,0.006205,0.178177,15524.0,222.0,2384.0,-16.0,24.0,5.0
2897.0,2813.0,2877.0,3123.0,3021.0,0.767517,0.006836,-0.640991,0.003418,-1.0,0.0,0.0,7793.0,121.0,1194.0,-267.0,70.0,-265.0,212.0,74.0,-309.0,0.98399,0.006112,0.178178,15686.0,396.0,2562.0,-5.0,17.0,4.0
2901.0,2785.0,2871.0,3121.0,3055.0,0.767517,0.006836,-0.640991,0.003357,-1.0,0.0,0.0,7791.0,143.0,1218.0,-269.0,92.0,-241.0,187.0,96.0,-307.0,0.983989,0.00619,0.178177,15562.0,252.0,2538.0,-15.0,4.0,17.0
2902.0,2831.0,2887.0,3127.0,3059.0,0.767456,0.006714,-0.641052,0.003357,-1.0,-1.0,0.0,7785.0,119.0,1218.0,-275.0,69.0,-240.0,186.0,73.0,-312.0,0.984004,0.006001,0.178007,15558.0,68.0,2442.0,-7.0,-4.0,16.0
2899.0,2826.0,2870.0,3121.0,3047.0,0.767273,0.006714,-0.641235,0.003479,0.0,-1.0,0.0,7766.0,92.0,1228.0,-295.0,44.0,-226.0,169.0,48.0,-330.0,0.984052,0.005841,0.177492,15540.0,168.0,2502.0,14.0,-13.0,7.0
2891.0,2783.0,2863.0,3127.0,3057.0,0.767212,0.006775,-0.641357,0.003601,0.0,-1.0,0.0,7776.0,93.0,1228.0,-286.0,45.0,-223.0,168.0,49.0,-320.0,0.984163,0.005776,0.177242,15606.0,214.0,2418.0,17.0,-10.0,8.0
2899.0,2815.0,2867.0,3127.0,3057.0,0.767029,0.006836,-0.641541,0.003662,0.0,-1.0,0.0,7773.0,69.0,1191.0,-289.0,21.0,-256.0,200.0,25.0,-329.0,0.98421,0.005788,0.176726,15500.0,36.0,2248.0,8.0,0.0,2.0
2903.0,2823.0,2883.0,3131.0,3055.0,0.766968,0.006897,-0.641663,0.003723,0.0,-1.0,-1.0,7788.0,57.0,1169.0,-275.0,9.0,-276.0,222.0,14.0,-319.0,0.98432,0.005802,0.176475,15694.0,40.0,2232.0,5.0,0.0,-2.0
2899.0,2826.0,2891.0,3135.0,3063.0,0.766907,0.006897,-0.641663,0.003662,-1.0,1.0,-1.0,7798.0,51.0,1153.0,-264.0,2.0,-291.0,239.0,7.0,-311.0,0.984241,0.005879,0.176381,15610.0,2.0,2268.0,-8.0,26.0,-2.0
2894.0,2811.0,2867.0,3122.0,3057.0,0.766907,0.006836,-0.641663,0.003662,-1.0,1.0,0.0,7781.0,34.0,1159.0,-281.0,-13.0,-285.0,231.0,-7.0,-326.0,0.984241,0.005785,0.176382,15454.0,-8.0,2426.0,-1.0,26.0,0.0
2903.0,2819.0,2889.0,3123.0,3059.0,0.766968,0.006836,-0.641663,0.003662,-1.0,0.0,0.0,7761.0,51.0,1178.0,-302.0,3.0,-267.0,209.0,8.0,-344.0,0.984319,0.005786,0.176475,15396.0,238.0,2502.0,-1.0,19.0,1.0
2907.0,2821.0,2890.0,3135.0,3063.0,0.766907,0.006653,-0.641724,0.003601,-1.0,-1.0,0.0,7775.0,54.0,1231.0,-288.0,8.0,-213.0,158.0,12.0,-320.0,0.984332,0.005582,0.176305,15648.0,42.0,2594.0,-17.0,-1.0,17.0
2894.0,2815.0,2877.0,3119.0,3019.0,0.766907,0.006592,-0.641724,0.003662,-1.0,-1.0,0.0,7794.0,49.0,1252.0,-269.0,4.0,-192.0,141.0,7.0,-298.0,0.984333,0.00541,0.176307,15744.0,80.0,2648.0,-7.0,-2.0,13.0
2896.0,2807.0,2877.0,3122.0,3051.0,0.766846,0.006531,-0.641785,0.003662,-1.0,0.0,0.0,7810.0,99.0,1260.0,-253.0,55.0,-182.0,133.0,58.0,-280.0,0.984347,0.005316,0.176136,15532.0,336.0,2420.0,-12.0,11.0,12.0
2903.0,2826.0,2887.0,3133.0,3056.0,0.766785,0.006409,-0.641846,0.003601,-2.0,-1.0,0.0,7782.0,88.0,1248.0,-281.0,45.0,-193.0,139.0,48.0,-310.0,0.984361,0.005206,0.175965,15398.0,30.0,2464.0,-24.0,-5.0,14.0
2907.0,2815.0,2883.0,3135.0,3059.0,0.766602,0.006226,-0.64209,0.003723,-1.0,-1.0,0.0,7753.0,72.0,1227.0,-312.0,32.0,-209.0,150.0,35.0,-343.0,0.984501,0.004764,0.175374,15474.0,226.0,2376.0,-2.0,-21.0,14.0
2896.0,2813.0,2869.0,3125.0,3050.0,0.766479,0.006165,-0.642273,0.003723,-1.0,-2.0,0.0,7752.0,62.0,1217.0,-314.0,23.0,-216.0,157.0,26.0,-346.0,0.984624,0.004667,0.174952,15530.0,34.0,2398.0,-9.0,-30.0,13.0
2895.0,2815.0,2869.0,3123.0,3051.0,0.766113,0.006104,-0.642639,0.003784,0.0,-2.0,-1.0,7777.0,32.0,1192.0,-289.0,-4.0,-232.0,178.0,0.0,-324.0,0.984715,0.004488,0.173922,15648.0,-34.0,2286.0,2.0,-24.0,-2.0
2899.0,2827.0,2887.0,3135.0,3057.0,0.765991,0.006104,-0.642761,0.003784,0.0,-1.0,-1.0,7797.0,33.0,1183.0,-270.0,-3.0,-238.0,187.0,0.0,-307.0,0.984745,0.004486,0.173578,15710.0,86.0,2312.0,5.0,-13.0,-7.0
2901.0,2827.0,2879.0,3135.0,3063.0,0.76593,0.006226,-0.642883,0.003662,-1.0,0.0,-1.0,7820.0,65.0,1164.0,-247.0,25.0,-255.0,207.0,29.0,-287.0,0.984853,0.004828,0.173325,15536.0,220.0,2250.0,-5.0,22.0,-8.0
2899.0,2814.0,2879.0,3117.0,3051.0,0.76593,0.006226,-0.642883,0.003601,-1.0,1.0,-1.0,7813.0,70.0,1175.0,-254.0,29.0,-244.0,195.0,33.0,-292.0,0.984852,0.004907,0.173324,15608.0,214.0,2462.0,-9.0,27.0,-6.0
2901.0,2811.0,2871.0,3123.0,3053.0,0.766052,0.006226,-0.642761,0.003479,-1.0,0.0,0.0,7746.0,84.0,1163.0,-321.0,42.0,-259.0,198.0,46.0,-360.0,0.984821,0.005066,0.173667,15202.0,198.0,2298.0,-9.0,19.0,0.0
2899.0,2821.0,2883.0,3135.0,3058.0,0.765991,0.006165,-0.642822,0.003418,-1.0,-1.0,0.0,7720.0,83.0,1179.0,-347.0,41.0,-242.0,177.0,45.0,-383.0,0.984835,0.00505,0.173496,15346.0,156.0,2490.0,-8.0,-11.0,10.0
2903.0,2825.0,2885.0,3134.0,3063.0,0.765808,0.006165,-0.643066,0.00354,0.0,-1.0,0.0,7802.0,102.0,1228.0,-266.0,61.0,-188.0,138.0,64.0,-294.0,0.984975,0.004889,0.172902,15896.0,272.0,2538.0,3.0,-7.0,15.0
2895.0,2814.0,2877.0,3125.0,3053.0,0.765747,0.006104,-0.643066,0.00354,-1.0,0.0,0.0,7806.0,108.0,1233.0,-262.0,68.0,-182.0,133.0,71.0,-289.0,0.984896,0.004795,0.172809,15614.0,200.0,2514.0,-3.0,6.0,18.0
2895.0,2812.0,2877.0,3130.0,3051.0,0.765686,0.00592,-0.643188,0.003601,-1.0,0.0,0.0,7825.0,77.0,1216.0,-244.0,40.0,-197.0,151.0,43.0,-274.0,0.985004,0.004434,0.172562,15822.0,-42.0,2376.0,-11.0,2.0,12.0
2897.0,2821.0,2883.0,3131.0,3057.0,0.765686,0.005859,-0.643188,0.003662,-1.0,1.0,0.0,7829.0,46.0,1202.0,-240.0,11.0,-211.0,166.0,14.0,-272.0,0.985004,0.004262,0.172563,15580.0,-84.0,2278.0,-3.0,26.0,5.0
2881.0,2826.0,2884.0,3135.0,3057.0,0.005859,-0.643127,0.003662,0.0,1.0,0.0,7795.0,25.0,1183.0,-19862.0,25.0,1244.0,-16473.0,3.0,-638.0,6803.0,-4.3e-05,-0.007537,-0.413592,15356.0,22.0,2352.0,5.0,17.0,-3.0
2897.0,2815.0,2877.0,3121.0,3055.0,0.765686,0.005859,-0.643188,0.003662,0.0,0.0,-1.0,7750.0,24.0,1198.0,-319.0,-10.0,-215.0,156.0,-6.0,-351.0,0.985004,0.004262,0.172563,15432.0,92.0,2546.0,2.0,5.0,-5.0
2897.0,2815.0,2877.0,3127.0,3056.0,0.765625,0.00592,-0.64325,0.003662,0.0,-1.0,-1.0,7763.0,46.0,1238.0,-306.0,10.0,-174.0,118.0,13.0,-331.0,0.985019,0.004354,0.17239,15660.0,170.0,2612.0,4.0,-3.0,-3.0
2900.0,2823.0,2887.0,3135.0,3057.0,0.765625,0.005981,-0.64325,0.003601,-1.0,0.0,-1.0,7780.0,71.0,1249.0,-289.0,33.0,-163.0,110.0,35.0,-312.0,0.985019,0.004526,0.172389,15632.0,276.0,2542.0,-4.0,4.0,-1.0
2899.0,2826.0,2883.0,3131.0,3057.0,0.765625,0.00592,-0.64325,0.00354,-1.0,0.0,0.0,7797.0,72.0,1255.0,-272.0,35.0,-157.0,107.0,37.0,-294.0,0.985018,0.004511,0.172389,15484.0,118.0,2458.0,-8.0,15.0,7.0
2903.0,2815.0,2878.0,3121.0,3055.0,0.765625,0.005859,-0.64325,0.00354,-1.0,-1.0,0.0,7767.0,70.0,1243.0,-302.0,33.0,-169.0,113.0,35.0,-326.0,0.985017,0.004418,0.17239,15372.0,122.0,2474.0,-7.0,0.0,10.0
2907.0,2823.0,2883.0,3135.0,3055.0,0.765564,0.005798,-0.643372,0.00354,-1.0,-1.0,0.0,7771.0,69.0,1226.0,-299.0,33.0,-184.0,129.0,36.0,-326.0,0.985125,0.004323,0.17214,15668.0,112.0,2354.0,-7.0,-4.0,9.0
2903.0,2819.0,2879.0,3127.0,3055.0,0.765503,0.005737,-0.643433,0.003601,0.0,0.0,0.0,7765.0,59.0,1204.0,-305.0,25.0,-204.0,148.0,28.0,-335.0,0.98514,0.00415,0.171969,15414.0,158.0,2356.0,2.0,7.0,5.0
2898.0,2815.0,2871.0,3120.0,3061.0,0.765442,0.005737,-0.643494,0.003601,-1.0,0.0,0.0,7749.0,67.0,1188.0,-321.0,33.0,-219.0,160.0,36.0,-353.0,0.985155,0.004149,0.171797,15408.0,194.0,2258.0,-5.0,2.0,12.0
2900.0,2815.0,2875.0,3123.0,3056.0,0.765381,0.005554,-0.643555,0.003601,-1.0,0.0,0.0,7763.0,48.0,1192.0,-307.0,16.0,-213.0,156.0,19.0,-338.0,0.985169,0.003867,0.171627,15566.0,0.0,2404.0,-7.0,6.0,9.0
2903.0,2814.0,2881.0,3127.0,3066.0,0.76532,0.005554,-0.643616,0.003662,0.0,0.0,0.0,7762.0,52.0,1210.0,-308.0,20.0,-194.0,138.0,23.0,-336.0,0.985184,0.003787,0.171456,15508.0,196.0,2540.0,3.0,6.0,5.0
2903.0,2821.0,2879.0,3135.0,3059.0,0.005554,-0.643616,0.003662,-6.1e-05,-1.0,0.0,7778.0,67.0,1231.0,-19862.0,66.0,1289.0,-16468.0,19.0,-651.0,6812.0,3.8e-05,-0.00715,-0.414224,15600.0,24.0,2598.0,-3.0,4.0,1.0
2903.0,2815.0,2875.0,3123.0,3055.0,0.765259,0.005554,-0.643677,0.003662,0.0,0.0,0.0,7787.0,50.0,1256.0,-283.0,18.0,-147.0,96.0,20.0,-303.0,0.985199,0.003786,0.171284,15548.0,94.0,2552.0,8.0,1.0,1.0
2899.0,2815.0,2875.0,3123.0,3057.0,0.0,0.47522,0.003296,0.076782,-19862.0,15354.0,7998.0,-4967.0,6550.0,20026.0,-5564.0,6545.0,21827.0,389.0,-1522.0,-5203.0,0.072977,0.000506,-0.219949,15708.0,74.0,2572.0,7.0,-7.0,2.0
2901.0,2821.0,2883.0,3131.0,3058.0,0.765137,0.005676,-0.643799,0.003723,0.0,-1.0,0.0,7798.0,57.0,1254.0,-273.0,25.0,-146.0,96.0,27.0,-293.0,0.985231,0.003892,0.170939,15548.0,162.0,2462.0,2.0,0.0,3.0
2906.0,2821.0,2879.0,3127.0,3059.0,0.765076,0.005554,-0.643921,0.003662,-1.0,-1.0,0.0,7778.0,52.0,1235.0,-293.0,21.0,-163.0,110.0,23.0,-316.0,0.985337,0.003783,0.170689,15656.0,-2.0,2432.0,-15.0,-6.0,9.0
2898.0,2819.0,2874.0,3122.0,3055.0,0.765015,0.005493,-0.643982,0.003662,-1.0,0.0,0.0,7791.0,41.0,1220.0,-280.0,10.0,-176.0,125.0,12.0,-305.0,0.985351,0.003688,0.170518,15614.0,38.0,2354.0,-9.0,14.0,5.0
2903.0,2815.0,2879.0,3123.0,3059.0,0.765015,0.005432,-0.643921,0.003601,-1.0,0.0,0.0,7753.0,48.0,1198.0,-318.0,17.0,-199.0,141.0,20.0,-347.0,0.985257,0.003674,0.170597,15474.0,130.0,2406.0,-11.0,11.0,3.0
2899.0,2822.0,2885.0,3131.0,3061.0,0.765015,0.005371,-0.643982,0.003601,-1.0,0.0,0.0,7759.0,44.0,1187.0,-312.0,14.0,-209.0,152.0,17.0,-343.0,0.98535,0.00358,0.170519,15576.0,56.0,2326.0,-12.0,9.0,7.0
2906.0,2821.0,2883.0,3131.0,3063.0,0.765076,0.005249,-0.643921,0.003601,-1.0,0.0,0.0,7790.0,42.0,1197.0,-281.0,14.0,-201.0,149.0,16.0,-311.0,0.985334,0.003394,0.170692,15590.0,40.0,2410.0,-5.0,22.0,8.0
2898.0,2818.0,2882.0,3123.0,3056.0,0.765076,0.005188,-0.643921,0.003601,-1.0,0.0,0.0,7808.0,43.0,1215.0,-263.0,15.0,-183.0,135.0,17.0,-290.0,0.985334,0.003301,0.170693,15790.0,116.0,2556.0,-4.0,21.0,10.0
2902.0,2815.0,2879.0,3123.0,3055.0,0.76532,0.005127,-0.643616,0.003662,-1.0,2.0,0.0,7822.0,59.0,1248.0,-248.0,33.0,-156.0,110.0,35.0,-270.0,0.985181,0.003134,0.17146,15400.0,144.0,2510.0,-7.0,47.0,16.0
2902.0,2821.0,2883.0,3135.0,3061.0,0.765381,0.005005,-0.643555,0.003662,-1.0,0.0,0.0,7765.0,50.0,1250.0,-305.0,25.0,-156.0,101.0,27.0,-327.0,0.985166,0.002948,0.171634,15188.0,-6.0,2512.0,-9.0,20.0,15.0
2898.0,2819.0,2878.0,3121.0,3055.0,0.76532,0.004944,-0.643616,0.003723,0.0,-1.0,0.0,7746.0,33.0,1256.0,-324.0,10.0,-148.0,90.0,12.0,-344.0,0.985181,0.002775,0.171463,15472.0,40.0,2600.0,3.0,-9.0,12.0
2897.0,2815.0,2879.0,3119.0,3056.0,0.765259,0.005005,-0.643677,0.003784,-1.0,-1.0,0.0,7758.0,62.0,1274.0,-312.0,39.0,-129.0,73.0,40.0,-329.0,0.985196,0.002788,0.171291,15470.0,160.0,2650.0,-7.0,-8.0,3.0
2905.0,2827.0,2886.0,3134.0,3059.0,0.765198,0.004944,-0.643738,0.003784,-1.0,-1.0,0.0,7747.0,53.0,1277.0,-323.0,30.0,-124.0,66.0,31.0,-339.0,0.985211,0.002694,0.171119,15392.0,24.0,2514.0,-8.0,-15.0,8.0
2909.0,2827.0,2884.0,3141.0,3063.0,0.764954,0.004883,-0.644043,0.003784,-1.0,-1.0,0.0,7778.0,51.0,1267.0,-294.0,29.0,-128.0,75.0,30.0,-311.0,0.985363,0.002596,0.170353,15738.0,174.0,2494.0,-1.0,-17.0,7.0
2899.0,2822.0,2881.0,3125.0,3055.0,0.764954,0.004883,-0.644104,0.003784,-1.0,-1.0,0.0,7783.0,60.0,1234.0,-289.0,38.0,-160.0,107.0,40.0,-311.0,0.985456,0.002595,0.170275,15540.0,168.0,2236.0,-7.0,-1.0,8.0
2899.0,2815.0,2880.0,3127.0,3059.0,0.764771,0.0047,-0.644226,0.003784,-1.0,0.0,0.0,7792.0,17.0,1180.0,-280.0,-1.0,-211.0,160.0,1.0,-311.0,0.985406,0.002313,0.169839,15642.0,-114.0,2240.0,-11.0,6.0,9.0
2903.0,2826.0,2890.0,3135.0,3057.0,0.764771,0.004639,-0.644287,0.003845,-1.0,0.0,0.0,7775.0,8.0,1164.0,-298.0,-9.0,-226.0,172.0,-6.0,-332.0,0.985499,0.00214,0.169761,15412.0,20.0,2212.0,0.0,15.0,5.0
2907.0,2823.0,2882.0,3115.0,3061.0,0.764709,0.004578,-0.644348,0.003845,-1.0,-1.0,0.0,7743.0,23.0,1196.0,-330.0,6.0,-193.0,134.0,8.0,-357.0,0.985513,0.002046,0.16959,15546.0,76.0,2498.0,-4.0,-10.0,4.0
2901.0,2818.0,2877.0,3121.0,3055.0,0.764648,0.004578,-0.644409,0.003845,0.0,-1.0,0.0,7771.0,39.0,1230.0,-302.0,22.0,-157.0,103.0,23.0,-324.0,0.985528,0.002045,0.169418,15684.0,162.0,2672.0,2.0,-3.0,3.0
2902.0,2823.0,2883.0,3135.0,3057.0,0.764648,0.004639,-0.644409,0.003845,0.0,-1.0,0.0,7776.0,44.0,1261.0,-297.0,26.0,-126.0,73.0,27.0,-313.0,0.985529,0.002138,0.169417,15568.0,122.0,2710.0,5.0,-2.0,1.0
2901.0,2823.0,2882.0,3127.0,3061.0,0.764587,0.004639,-0.64447,0.003906,0.0,-1.0,0.0,7799.0,70.0,1298.0,-274.0,53.0,-88.0,39.0,54.0,-284.0,0.985544,0.002058,0.169246,15710.0,206.0,2618.0,1.0,-9.0,10.0
2901.0,2821.0,2883.0,3127.0,3059.0,0.764526,0.004639,-0.644531,0.003906,-1.0,-1.0,0.0,7798.0,86.0,1292.0,-275.0,69.0,-93.0,44.0,70.0,-286.0,0.985559,0.002057,0.169074,15522.0,274.0,2566.0,-5.0,-6.0,14.0
2899.0,2815.0,2885.0,3127.0,3057.0,0.764343,0.004456,-0.644775,0.003845,-1.0,-2.0,0.0,7796.0,63.0,1258.0,-278.0,47.0,-122.0,72.0,48.0,-294.0,0.985694,0.001853,0.16848,15754.0,-32.0,2412.0,-21.0,-23.0,16.0
2903.0,2819.0,2883.0,3135.0,3059.0,0.764282,0.004333,-0.644897,0.003845,-1.0,-1.0,0.0,7804.0,27.0,1225.0,-271.0,13.0,-153.0,105.0,14.0,-292.0,0.985801,0.001664,0.168231,15582.0,-156.0,2244.0,-12.0,-3.0,8.0
2903.0,2827.0,2883.0,3135.0,3056.0,0.76416,0.004211,-0.64502,0.003906,-1.0,-1.0,0.0,7738.0,19.0,1208.0,-337.0,7.0,-167.0,107.0,8.0,-360.0,0.985829,0.001397,0.167888,15234.0,24.0,2496.0,-11.0,-2.0,4.0
2899.0,2819.0,2917.0,3125.0,3055.0,0.76416,0.00415,-0.64502,0.003845,-1.0,0.0,0.0,7731.0,4.0,1197.0,-344.0,-7.0,-178.0,117.0,-5.0,-369.0,0.985828,0.001383,0.167888,15466.0,-100.0,2346.0,-12.0,2.0,3.0
2896.0,2819.0,2881.0,3123.0,3056.0,0.764099,0.004089,-0.645081,0.003906,0.0,-1.0,0.0,7735.0,16.0,1221.0,-341.0,6.0,-152.0,92.0,7.0,-361.0,0.985843,0.00121,0.167717,15578.0,150.0,2560.0,2.0,-3.0,0.0
2903.0,2818.0,2881.0,3135.0,3063.0,0.764038,0.00415,-0.645081,0.003845,0.0,-1.0,0.0,7750.0,36.0,1237.0,-325.0,24.0,-136.0,79.0,25.0,-343.0,0.985764,0.001381,0.167623,15582.0,192.0,2540.0,2.0,-3.0,1.0
2896.0,2823.0,2883.0,3123.0,3055.0,0.764038,0.00415,-0.645142,0.003845,-1.0,-1.0,0.0,7770.0,54.0,1258.0,-306.0,42.0,-114.0,60.0,43.0,-320.0,0.985857,0.001381,0.167544,15646.0,240.0,2664.0,-2.0,-8.0,5.0
2899.0,2819.0,2881.0,3119.0,3057.0,0.763916,0.00415,-0.645264,0.003845,-1.0,-1.0,0.0,7781.0,71.0,1284.0,-295.0,59.0,-85.0,33.0,59.0,-304.0,0.985886,0.001379,0.1672,15604.0,172.0,2592.0,-4.0,-21.0,13.0
2901.0,2822.0,2882.0,3135.0,3067.0,0.763855,0.004089,-0.645386,0.003906,-1.0,-1.0,0.0,7802.0,71.0,1282.0,-275.0,61.0,-85.0,37.0,61.0,-285.0,0.985994,0.001205,0.16695,15746.0,162.0,2578.0,0.0,-20.0,13.0
2899.0,2821.0,2887.0,3131.0,3057.0,0.763733,0.004028,-0.645508,0.003967,-1.0,-1.0,0.0,7797.0,33.0,1242.0,-280.0,24.0,-122.0,73.0,25.0,-296.0,0.986023,0.001031,0.166607,15580.0,-110.0,2382.0,-4.0,-8.0,7.0
2878.0,2819.0,2879.0,3127.0,3057.0,0.763672,0.003967,-0.645569,0.003967,-1.0,0.0,0.0,7782.0,25.0,1219.0,-295.0,17.0,-144.0,92.0,18.0,-314.0,0.986037,0.000937,0.166436,15460.0,90.0,2262.0,-2.0,2.0,6.0
2896.0,2823.0,2886.0,3127.0,3039.0,0.763611,0.003845,-0.64563,0.003906,-1.0,0.0,0.0,7764.0,-6.0,1169.0,-313.0,-12.0,-193.0,138.0,-10.0,-340.0,0.98605,0.000829,0.166264,15448.0,-182.0,2176.0,-19.0,8.0,2.0
3477.0,-205.0,40.0,-135.0,31.0,42.0,-242.0,0.897402,0.01404,0.440972,14188.0,450.0,7038.0,-25.0,35.0,-12.0,,,,,,,,,,,,,,
2896.0,2807.0,2867.0,3138.0,3047.0,0.848755,-0.00061,-0.528564,-0.014343,-2.0,1.0,-1.0,7136.0,163.0,3506.0,-214.0,47.0,-108.0,3.0,50.0,-239.0,0.897261,0.014127,0.44121,14198.0,318.0,7204.0,-37.0,27.0,-11.0
2903.0,2803.0,2863.0,3111.0,3069.0,0.848816,-0.001038,-0.528442,-0.014587,-3.0,-1.0,0.0,7061.0,174.0,3537.0,-288.0,62.0,-79.0,-54.0,67.0,-292.0,0.897131,0.013656,0.441449,13952.0,366.0,7104.0,-54.0,-22.0,20.0
2907.0,2815.0,2865.0,3119.0,3055.0,0.848755,-0.001343,-0.528564,-0.014648,-3.0,-2.0,1.0,7060.0,169.0,3561.0,-290.0,60.0,-53.0,-78.0,65.0,-282.0,0.897283,0.013206,0.441217,14108.0,332.0,7226.0,-57.0,-39.0,28.0
2897.0,2806.0,2863.0,3123.0,3055.0,0.848572,-0.002014,-0.52887,-0.014709,-3.0,-2.0,1.0,7073.0,121.0,3536.0,-280.0,21.0,-73.0,-57.0,25.0,-283.0,0.897627,0.01214,0.440583,14376.0,-48.0,6958.0,-50.0,-41.0,29.0
2895.0,2811.0,2871.0,3121.0,3047.0,0.848511,-0.002197,-0.528992,-0.014648,-1.0,-1.0,0.0,7100.0,65.0,3520.0,-254.0,-31.0,-87.0,-34.0,-26.0,-266.0,0.897775,0.011769,0.440348,14286.0,-222.0,6858.0,-8.0,-5.0,13.0
2895.0,2800.0,2864.0,3107.0,3056.0,0.848572,-0.002014,-0.528809,-0.014465,1.0,1.0,0.0,7054.0,123.0,3490.0,-298.0,25.0,-119.0,-23.0,29.0,-319.0,0.897522,0.01188,0.440641,13844.0,780.0,6978.0,27.0,26.0,0.0
2896.0,2812.0,2863.0,3117.0,3051.0,0.848633,-0.001953,-0.528748,-0.014526,-2.0,0.0,0.0,7013.0,187.0,3480.0,-339.0,88.0,-131.0,-29.0,93.0,-360.0,0.897482,0.012047,0.440811,13834.0,604.0,6928.0,-35.0,7.0,8.0
2896.0,2815.0,2877.0,3119.0,3055.0,0.848633,-0.002502,-0.528809,-0.014709,-2.0,-2.0,0.0,6949.0,78.0,3462.0,-404.0,-14.0,-148.0,-45.0,-7.0,-428.0,0.897602,0.01131,0.440749,13710.0,-170.0,6918.0,-37.0,-29.0,17.0
2895.0,2798.0,2855.0,3115.0,3039.0,0.848511,-0.002686,-0.528931,-0.014648,-1.0,-3.0,0.0,6937.0,62.0,3473.0,-416.0,-27.0,-134.0,-63.0,-20.0,-432.0,0.897685,0.010939,0.44041,13870.0,136.0,6984.0,-12.0,-50.0,14.0
2899.0,2811.0,2875.0,3111.0,3043.0,0.848267,-0.002991,-0.529297,-0.014648,-2.0,-2.0,0.0,7011.0,107.0,3522.0,-345.0,21.0,-79.0,-80.0,26.0,-344.0,0.898057,0.010433,0.439607,14168.0,372.0,7170.0,-36.0,-34.0,14.0
2901.0,2811.0,2864.0,3121.0,3063.0,0.848206,-0.003174,-0.529419,-0.014771,-3.0,-2.0,0.0,7028.0,123.0,3528.0,-330.0,38.0,-71.0,-80.0,43.0,-327.0,0.898206,0.010255,0.439376,14196.0,352.0,7054.0,-47.0,-30.0,9.0
2896.0,2820.0,2873.0,3120.0,3059.0,0.848206,-0.003479,-0.529419,-0.015015,-1.0,0.0,-1.0,7081.0,86.0,3530.0,-277.0,4.0,-69.0,-59.0,8.0,-279.0,0.898217,0.009996,0.439382,14168.0,116.0,7002.0,-19.0,13.0,-9.0
2895.0,2813.0,2871.0,3117.0,3063.0,0.848267,-0.003479,-0.529297,-0.015137,-1.0,1.0,-1.0,7062.0,114.0,3520.0,-295.0,31.0,-81.0,-55.0,35.0,-300.0,0.898075,0.010121,0.439618,14026.0,424.0,6934.0,-11.0,24.0,-21.0
2894.0,2807.0,2858.0,3123.0,3057.0,0.848389,-0.00354,-0.529114,-0.015442,-2.0,-1.0,-1.0,7004.0,113.0,3478.0,-351.0,28.0,-126.0,-40.0,33.0,-370.0,0.897898,0.010334,0.440028,13906.0,182.0,6852.0,-25.0,-2.0,-13.0
2901.0,2814.0,2871.0,3123.0,3059.0,0.848328,-0.00354,-0.529175,-0.015564,-1.0,-1.0,-1.0,7022.0,105.0,3470.0,-333.0,19.0,-133.0,-26.0,23.0,-357.0,0.897937,0.010466,0.439864,14220.0,150.0,6936.0,-19.0,-19.0,-11.0
2895.0,2815.0,2875.0,3119.0,3059.0,0.848267,-0.003662,-0.529297,-0.015808,-2.0,-1.0,-1.0,7076.0,147.0,3454.0,-281.0,60.0,-147.0,10.0,63.0,-316.0,0.898085,0.010521,0.439638,14230.0,274.0,6824.0,-32.0,0.0,-7.0
2887.0,2803.0,2865.0,3123.0,3039.0,0.848267,-0.003723,-0.529297,-0.01593,-1.0,-1.0,-1.0,7069.0,122.0,3440.0,-288.0,35.0,-161.0,19.0,37.0,-329.0,0.898088,0.010547,0.439641,14048.0,132.0,6806.0,-22.0,-1.0,-2.0
2895.0,2814.0,2871.0,3115.0,3055.0,0.848206,-0.003845,-0.529358,-0.015991,-2.0,-1.0,0.0,7080.0,190.0,3475.0,-277.0,104.0,-125.0,-6.0,107.0,-302.0,0.898132,0.010407,0.439474,14230.0,582.0,7030.0,-29.0,-8.0,10.0
2897.0,2811.0,2881.0,3121.0,3055.0,0.848206,-0.004028,-0.529358,-0.016174,-3.0,-1.0,0.0,7080.0,189.0,3490.0,-277.0,104.0,-110.0,-19.0,107.0,-296.0,0.898139,0.01029,0.439478,14164.0,262.0,7064.0,-52.0,-11.0,11.0
2895.0,2819.0,2866.0,3115.0,3057.0,0.848206,-0.004395,-0.529419,-0.016357,-2.0,-1.0,-1.0,7090.0,121.0,3517.0,-268.0,40.0,-82.0,-42.0,44.0,-276.0,0.898256,0.009865,0.439417,14080.0,58.0,7076.0,-31.0,0.0,-3.0
2896.0,2806.0,2864.0,3121.0,3067.0,0.848206,-0.004517,-0.529358,-0.016418,-2.0,-1.0,-1.0,7058.0,97.0,3517.0,-299.0,17.0,-83.0,-56.0,21.0,-304.0,0.898157,0.00972,0.439482,13976.0,74.0,7018.0,-25.0,-9.0,-6.0
2897.0,2811.0,2869.0,3111.0,3055.0,0.848145,-0.004639,-0.529419,-0.016479,0.0,-1.0,-1.0,7025.0,31.0,3515.0,-333.0,-47.0,-83.0,-73.0,-41.0,-336.0,0.8982,0.009581,0.439315,13960.0,-20.0,7034.0,8.0,-19.0,-11.0
2903.0,2810.0,2864.0,3119.0,3057.0,0.848145,-0.004578,-0.529541,-0.016479,0.0,-2.0,-1.0,7021.0,29.0,3517.0,-338.0,-50.0,-80.0,-78.0,-44.0,-339.0,0.898405,0.009688,0.439186,14042.0,50.0,7048.0,14.0,-25.0,-14.0
2893.0,2813.0,2866.0,3119.0,3057.0,0.848022,-0.004333,-0.529663,-0.016602,0.0,-1.0,-2.0,7033.0,39.0,3512.0,-327.0,-44.0,-83.0,-70.0,-38.0,-330.0,0.898476,0.010237,0.438856,14056.0,26.0,7010.0,12.0,-19.0,-23.0
2887.0,2809.0,2866.0,3109.0,3059.0,0.847961,-0.004272,-0.529724,-0.016663,0.0,-1.0,-2.0,7039.0,42.0,3489.0,-321.0,-43.0,-104.0,-48.0,-37.0,-334.0,0.898514,0.010407,0.43869,14152.0,78.0,6804.0,11.0,-15.0,-25.0
2895.0,2806.0,2864.0,3119.0,3055.0,0.848022,-0.004028,-0.529663,-0.016968,-1.0,1.0,-2.0,7113.0,58.0,3456.0,-247.0,-33.0,-139.0,15.0,-30.0,-283.0,0.898469,0.011142,0.438871,14254.0,152.0,6704.0,-4.0,34.0,-39.0
2900.0,2813.0,2867.0,3121.0,3055.0,0.848083,-0.003967,-0.529541,-0.017151,-1.0,1.0,-2.0,7095.0,90.0,3447.0,-264.0,-3.0,-150.0,18.0,0.0,-303.0,0.898326,0.011435,0.43911,14052.0,378.0,6786.0,-19.0,44.0,-38.0
2905.0,2815.0,2877.0,3117.0,3059.0,0.848267,-0.00415,-0.529236,-0.017517,-1.0,0.0,-1.0,7001.0,49.0,3438.0,-355.0,-45.0,-164.0,-10.0,-40.0,-391.0,0.898012,0.0115,0.439755,13654.0,-158.0,6886.0,-18.0,13.0,-15.0
2893.0,2807.0,2862.0,3117.0,3055.0,0.848267,-0.00415,-0.529236,-0.017578,0.0,-1.0,-1.0,6980.0,72.0,3468.0,-376.0,-22.0,-134.0,-45.0,-15.0,-396.0,0.898012,0.011565,0.439757,13960.0,444.0,7142.0,7.0,-22.0,-7.0
2895.0,2802.0,2859.0,3121.0,3055.0,0.848145,-0.00415,-0.529419,-0.017761,-2.0,-1.0,-1.0,7070.0,140.0,3512.0,-288.0,43.0,-87.0,-46.0,48.0,-296.0,0.898195,0.011766,0.439363,14338.0,224.0,7080.0,-34.0,-12.0,-7.0
2907.0,2815.0,2865.0,3119.0,3053.0,0.848145,-0.004211,-0.529419,-0.017944,-2.0,-1.0,-1.0,7079.0,111.0,3507.0,-279.0,13.0,-92.0,-39.0,17.0,-290.0,0.898199,0.011856,0.439369,14208.0,86.0,6966.0,-24.0,-7.0,-18.0
2895.0,2815.0,2871.0,3115.0,3067.0,0.848145,-0.00415,-0.529419,-0.01825,-1.0,0.0,-2.0,7100.0,135.0,3505.0,-258.0,34.0,-94.0,-27.0,38.0,-272.0,0.898199,0.012283,0.439381,14092.0,430.0,6952.0,-13.0,12.0,-27.0
2895.0,2805.0,2863.0,3123.0,3055.0,0.848145,-0.00415,-0.529358,-0.018433,-1.0,-1.0,-2.0,7061.0,149.0,3492.0,-296.0,46.0,-107.0,-32.0,51.0,-312.0,0.898097,0.012475,0.439452,13886.0,354.0,6880.0,-21.0,-9.0,-23.0
2895.0,2805.0,2865.0,3119.0,3045.0,0.848022,-0.00415,-0.529602,-0.018799,-2.0,-2.0,-1.0,7071.0,197.0,3485.0,-288.0,91.0,-111.0,-23.0,95.0,-306.0,0.898385,0.012873,0.439,14142.0,702.0,6908.0,-29.0,-28.0,-18.0
2897.0,2815.0,2866.0,3131.0,3054.0,0.8479,-0.004272,-0.529724,-0.019043,-3.0,-2.0,-1.0,7103.0,212.0,3488.0,-257.0,106.0,-105.0,-14.0,110.0,-275.0,0.898469,0.01293,0.438672,14480.0,450.0,6972.0,-57.0,-34.0,-8.0
2899.0,2815.0,2869.0,3121.0,3055.0,0.8479,-0.004639,-0.529785,-0.019348,-2.0,1.0,0.0,7149.0,154.0,3471.0,-212.0,50.0,-122.0,18.0,52.0,-243.0,0.89859,0.012634,0.438616,14096.0,112.0,6846.0,-29.0,23.0,2.0
2897.0,2811.0,2865.0,3118.0,3051.0,0.847961,-0.004761,-0.529724,-0.019348,-1.0,0.0,0.0,7108.0,149.0,3453.0,-252.0,47.0,-141.0,18.0,49.0,-287.0,0.898555,0.012425,0.438783,14024.0,298.0,6848.0,-12.0,17.0,0.0
2890.0,2806.0,2859.0,3119.0,3055.0,0.848022,-0.004822,-0.529602,-0.01947,-2.0,0.0,0.0,7058.0,180.0,3450.0,-301.0,78.0,-146.0,2.0,82.0,-333.0,0.898417,0.012445,0.43902,13946.0,542.0,6860.0,-29.0,8.0,6.0
2896.0,2811.0,2877.0,3121.0,3055.0,0.848022,-0.005066,-0.529541,-0.019653,-3.0,-1.0,0.0,7073.0,162.0,3456.0,-286.0,61.0,-141.0,3.0,64.0,-318.0,0.898324,0.012222,0.439089,14318.0,110.0,6950.0,-60.0,0.0,6.0
2899.0,2805.0,2863.0,3117.0,3053.0,0.848083,-0.00531,-0.52948,-0.019714,-2.0,1.0,-1.0,7092.0,98.0,3464.0,-266.0,0.0,-134.0,3.0,3.0,-297.0,0.898296,0.01187,0.439257,14208.0,-194.0,6974.0,-39.0,26.0,-2.0
2896.0,2807.0,2863.0,3115.0,3061.0,0.848267,-0.005371,-0.529175,-0.019775,0.0,0.0,-1.0,7014.0,68.0,3509.0,-342.0,-28.0,-94.0,-66.0,-21.0,-348.0,0.897975,0.011817,0.439892,13946.0,220.0,7288.0,5.0,8.0,-6.0
2897.0,2810.0,2871.0,3121.0,3056.0,0.848328,-0.005371,-0.529114,-0.019775,-1.0,0.0,-1.0,7021.0,75.0,3557.0,-334.0,-21.0,-47.0,-105.0,-13.0,-320.0,0.897936,0.011814,0.440061,14062.0,196.0,7366.0,-2.0,6.0,-3.0
2902.0,2805.0,2875.0,3126.0,3061.0,0.848389,-0.005371,-0.528992,-0.019775,0.0,-2.0,0.0,6972.0,82.0,3611.0,-382.0,-14.0,4.0,-172.0,-3.0,-341.0,0.897794,0.011808,0.440293,13826.0,456.0,7312.0,7.0,-31.0,1.0
2890.0,2810.0,2867.0,3123.0,3045.0,0.848328,-0.005371,-0.529114,-0.019836,-2.0,-3.0,-1.0,6974.0,143.0,3621.0,-381.0,45.0,16.0,-179.0,56.0,-334.0,0.897937,0.011879,0.440063,13962.0,624.0,7222.0,-23.0,-49.0,-2.0
2895.0,2811.0,2869.0,3111.0,3059.0,0.848022,-0.005676,-0.529541,-0.020142,-2.0,-3.0,-1.0,7042.0,70.0,3575.0,-317.0,-25.0,-22.0,-120.0,-16.0,-294.0,0.898354,0.011704,0.439102,14352.0,-260.0,6966.0,-28.0,-51.0,-15.0
2895.0,2813.0,2871.0,3119.0,3059.0,0.8479,-0.005737,-0.529724,-0.020264,-1.0,-2.0,-2.0,7090.0,63.0,3549.0,-270.0,-33.0,-44.0,-80.0,-26.0,-262.0,0.898539,0.011739,0.438705,14472.0,212.0,6976.0,0.0,-31.0,-28.0
2896.0,2815.0,2877.0,3119.0,3054.0,0.847839,-0.005676,-0.529785,-0.020691,-2.0,-1.0,-2.0,7112.0,105.0,3479.0,-249.0,4.0,-113.0,-7.0,7.0,-273.0,0.89858,0.012298,0.438555,14306.0,126.0,6794.0,-39.0,-2.0,-32.0
2897.0,2807.0,2867.0,3126.0,3046.0,0.847839,-0.005676,-0.529785,-0.020935,-1.0,0.0,-2.0,7123.0,54.0,3458.0,-238.0,-48.0,-134.0,14.0,-45.0,-273.0,0.898583,0.012557,0.438565,14250.0,-238.0,6780.0,-19.0,19.0,-45.0
2902.0,2801.0,2867.0,3131.0,3019.0,0.847961,-0.00531,-0.529602,-0.021179,1.0,0.0,-2.0,7049.0,104.0,3439.0,-310.0,-5.0,-157.0,4.0,0.0,-347.0,0.898389,0.013428,0.438981,13730.0,742.0,6872.0,25.0,22.0,-42.0
2902.0,2815.0,2875.0,3121.0,3063.0,0.847961,-0.005188,-0.529541,-0.021423,-1.0,-1.0,-2.0,7009.0,157.0,3452.0,-349.0,43.0,-144.0,-21.0,49.0,-376.0,0.898283,0.013891,0.439057,13852.0,530.0,7048.0,-12.0,-16.0,-26.0
2899.0,2815.0,2879.0,3115.0,3055.0,0.847839,-0.005127,-0.529724,-0.021667,-1.0,-2.0,-1.0,7039.0,192.0,3507.0,-321.0,75.0,-86.0,-60.0,82.0,-325.0,0.898464,0.014262,0.438667,14208.0,572.0,7194.0,-10.0,-25.0,-9.0
2887.0,2801.0,2859.0,3121.0,3039.0,0.847839,-0.005127,-0.529785,-0.02179,-2.0,-1.0,-1.0,7048.0,227.0,3523.0,-313.0,109.0,-70.0,-69.0,116.0,-310.0,0.898569,0.014394,0.438608,14132.0,636.0,7130.0,-24.0,-17.0,-7.0
2897.0,2800.0,2867.0,3119.0,3057.0,0.847839,-0.005371,-0.529785,-0.022034,-2.0,0.0,0.0,7089.0,197.0,3518.0,-272.0,80.0,-75.0,-48.0,86.0,-276.0,0.898582,0.014239,0.438616,14356.0,118.0,6900.0,-40.0,1.0,6.0
2895.0,2815.0,2863.0,3123.0,3063.0,0.847839,-0.005554,-0.529724,-0.022095,-1.0,0.0,-1.0,7095.0,152.0,3486.0,-265.0,37.0,-107.0,-18.0,41.0,-284.0,0.898487,0.01399,0.438681,14170.0,34.0,6740.0,-14.0,20.0,-1.0
2907.0,2818.0,2875.0,3127.0,3062.0,0.847961,-0.005371,-0.529541,-0.022034,1.0,1.0,-1.0,7046.0,118.0,3433.0,-312.0,1.0,-163.0,9.0,5.0,-351.0,0.898297,0.014227,0.439082,13812.0,288.0,6770.0,32.0,31.0,-11.0
2889.0,2803.0,2891.0,3111.0,3055.0,0.848022,-0.005249,-0.529419,-0.022034,0.0,0.0,-1.0,6983.0,169.0,3427.0,-374.0,50.0,-171.0,-8.0,56.0,-410.0,0.89815,0.014428,0.439316,13608.0,676.0,6836.0,13.0,7.0,-1.0
2896.0,2803.0,2847.0,3119.0,3047.0,0.8479,-0.005432,-0.529663,-0.022156,-2.0,-2.0,0.0,7010.0,171.0,3447.0,-350.0,54.0,-148.0,-18.0,60.0,-378.0,0.898444,0.014258,0.438853,14254.0,170.0,7016.0,-42.0,-35.0,18.0
2897.0,2817.0,2883.0,3123.0,3063.0,0.847839,-0.005676,-0.529785,-0.022156,-2.0,-1.0,0.0,7054.0,134.0,3455.0,-307.0,20.0,-138.0,-9.0,25.0,-336.0,0.898597,0.01385,0.438618,14416.0,74.0,6998.0,-33.0,-22.0,7.0
2899.0,2815.0,2866.0,3127.0,3063.0,0.8479,-0.00592,-0.529602,-0.022339,-2.0,1.0,-1.0,7136.0,102.0,3470.0,-223.0,-9.0,-125.0,14.0,-6.0,-255.0,0.898364,0.013622,0.438921,14362.0,22.0,6874.0,-25.0,39.0,-11.0
2883.0,2801.0,2865.0,3103.0,3047.0,0.848022,-0.00592,-0.529419,-0.0224,0.0,2.0,-2.0,7147.0,34.0,3470.0,-210.0,-78.0,-128.0,19.0,-75.0,-245.0,0.898184,0.013677,0.439324,14334.0,-372.0,7012.0,6.0,59.0,-26.0
2896.0,2801.0,2861.0,3111.0,3046.0,0.848511,-0.00531,-0.528687,-0.0224,3.0,3.0,-2.0,7094.0,39.0,3510.0,-257.0,-81.0,-102.0,-25.0,-75.0,-276.0,0.89743,0.014674,0.440935,13802.0,310.0,7200.0,69.0,83.0,-40.0
2894.0,2821.0,2869.0,3120.0,3055.0,0.848694,-0.004944,-0.528381,-0.0224,2.0,1.0,-2.0,6988.0,117.0,3526.0,-360.0,-8.0,-91.0,-77.0,0.0,-363.0,0.897089,0.01528,0.441572,13330.0,728.0,7124.0,46.0,42.0,-24.0
2899.0,2811.0,2875.0,3119.0,3059.0,0.848694,-0.004761,-0.528381,-0.022522,-1.0,-2.0,-1.0,6964.0,148.0,3567.0,-384.0,19.0,-50.0,-123.0,30.0,-366.0,0.897082,0.01572,0.441579,14102.0,320.0,7256.0,0.0,-42.0,-3.0
2879.0,2807.0,2861.0,3107.0,3039.0,0.848572,-0.0047,-0.528503,-0.022522,-1.0,-2.0,-1.0,6991.0,174.0,3561.0,-358.0,44.0,-53.0,-108.0,54.0,-343.0,0.897158,0.01583,0.441243,14166.0,568.0,7042.0,-5.0,-42.0,-2.0
2891.0,2803.0,2855.0,3120.0,3056.0,0.84845,-0.004944,-0.528809,-0.022766,-2.0,-1.0,-1.0,7105.0,115.0,3503.0,-247.0,-13.0,-107.0,-13.0,-8.0,-269.0,0.89756,0.015689,0.440722,14514.0,-246.0,6784.0,-25.0,-4.0,-13.0
2896.0,2811.0,2877.0,3119.0,3055.0,0.84845,-0.004944,-0.528748,-0.022766,0.0,0.0,-1.0,7115.0,46.0,3466.0,-236.0,-82.0,-144.0,21.0,-78.0,-276.0,0.897457,0.015686,0.440787,14192.0,-248.0,6706.0,22.0,22.0,-18.0
2896.0,2813.0,2867.0,3125.0,3061.0,0.848572,-0.004333,-0.528564,-0.022583,2.0,1.0,-2.0,7087.0,128.0,3447.0,-263.0,-7.0,-167.0,33.0,-3.0,-309.0,0.897245,0.016519,0.441185,13984.0,812.0,6956.0,60.0,42.0,-23.0
2895.0,2815.0,2870.0,3121.0,3047.0,0.848694,-0.004028,-0.528381,-0.022705,0.0,1.0,-1.0,7033.0,224.0,3446.0,-315.0,83.0,-171.0,18.0,88.0,-356.0,0.897051,0.017156,0.441594,13784.0,926.0,6912.0,7.0,23.0,-9.0
2893.0,2803.0,2869.0,3120.0,3051.0,0.848694,-0.004211,-0.528381,-0.022888,-1.0,-1.0,0.0,7004.0,189.0,3463.0,-344.0,49.0,-154.0,-11.0,55.0,-375.0,0.897061,0.017039,0.441601,13966.0,114.0,7014.0,-22.0,-12.0,1.0
2898.0,2817.0,2874.0,3125.0,3057.0,0.848633,-0.004211,-0.528442,-0.022888,0.0,-1.0,-1.0,7024.0,157.0,3483.0,-325.0,17.0,-133.0,-23.0,23.0,-349.0,0.8971,0.017042,0.441432,14198.0,170.0,7142.0,14.0,-17.0,-11.0
2896.0,2815.0,2877.0,3123.0,3061.0,0.848633,-0.003784,-0.528442,-0.022888,1.0,0.0,-1.0,7096.0,146.0,3548.0,-252.0,0.0,-68.0,-50.0,6.0,-256.0,0.89708,0.017767,0.441436,14322.0,206.0,7330.0,43.0,16.0,-21.0
2889.0,2807.0,2867.0,3115.0,3058.0,0.848755,-0.003479,-0.528259,-0.022827,2.0,0.0,-1.0,7072.0,150.0,3569.0,-275.0,0.0,-50.0,-76.0,8.0,-268.0,0.896884,0.018212,0.441836,13956.0,406.0,7254.0,60.0,20.0,-22.0
2895.0,2802.0,2859.0,3119.0,3043.0,0.848877,-0.002869,-0.528137,-0.022827,0.0,-1.0,-1.0,7074.0,235.0,3622.0,-272.0,77.0,0.0,-116.0,86.0,-242.0,0.896778,0.019241,0.442176,14324.0,582.0,7358.0,18.0,-2.0,-14.0
2898.0,2818.0,2869.0,3123.0,3057.0,0.848938,-0.002747,-0.528015,-0.022888,0.0,0.0,-1.0,7068.0,222.0,3622.0,-277.0,62.0,-2.0,-117.0,71.0,-248.0,0.89663,0.019507,0.442412,14032.0,326.0,7224.0,16.0,10.0,-13.0
2896.0,2815.0,2875.0,3123.0,3060.0,0.848938,-0.00238,-0.528015,-0.022827,1.0,-2.0,-1.0,6981.0,227.0,3619.0,-364.0,62.0,-5.0,-153.0,74.0,-327.0,0.896613,0.020065,0.442411,13670.0,552.0,7272.0,36.0,-35.0,-9.0
2895.0,2803.0,2864.0,3111.0,3051.0,0.848816,-0.002197,-0.528198,-0.022766,1.0,-4.0,0.0,6949.0,261.0,3611.0,-397.0,94.0,-9.0,-163.0,108.0,-358.0,0.896786,0.02032,0.442009,13794.0,750.0,7174.0,27.0,-73.0,0.0
2887.0,2801.0,2859.0,3111.0,3055.0,0.848389,-0.002075,-0.528809,-0.022827,-1.0,-2.0,-1.0,7069.0,225.0,3560.0,-282.0,56.0,-49.0,-77.0,64.0,-273.0,0.897365,0.020621,0.440642,14336.0,74.0,6846.0,-4.0,-45.0,-2.0
2898.0,2815.0,2870.0,3123.0,3057.0,0.848267,-0.002075,-0.529053,-0.022827,0.0,-2.0,-1.0,7051.0,151.0,3492.0,-302.0,-18.0,-113.0,-31.0,-10.0,-321.0,0.89765,0.020633,0.440176,14010.0,-124.0,6626.0,22.0,-39.0,-15.0
2899.0,2815.0,2871.0,3127.0,3059.0,0.847961,-0.001526,-0.529541,-0.022644,2.0,-2.0,-2.0,7066.0,133.0,3417.0,-291.0,-42.0,-180.0,32.0,-36.0,-341.0,0.89813,0.021394,0.439135,14198.0,468.0,6678.0,65.0,-36.0,-28.0
2895.0,2801.0,2863.0,3115.0,3045.0,0.847839,-0.001221,-0.529724,-0.022644,1.0,-2.0,-2.0,7079.0,190.0,3397.0,-279.0,10.0,-197.0,55.0,15.0,-336.0,0.898297,0.02192,0.438735,14204.0,812.0,6676.0,42.0,-29.0,-24.0
2896.0,2801.0,2863.0,3119.0,3047.0,0.847656,-0.001099,-0.53009,-0.022827,-2.0,-2.0,-1.0,7115.0,236.0,3377.0,-247.0,53.0,-211.0,83.0,56.0,-313.0,0.898719,0.022338,0.438045,14466.0,260.0,6730.0,-27.0,-24.0,-3.0
2897.0,2813.0,2877.0,3125.0,3055.0,0.847595,-0.00116,-0.53009,-0.022827,0.0,0.0,-1.0,7129.0,184.0,3371.0,-232.0,1.0,-216.0,92.0,4.0,-303.0,0.898657,0.022235,0.437942,14244.0,90.0,6702.0,6.0,8.0,-1.0
2889.0,2805.0,2866.0,3119.0,3055.0,0.847656,-0.000977,-0.53009,-0.022766,1.0,0.0,-1.0,7109.0,190.0,3392.0,-253.0,5.0,-196.0,65.0,9.0,-313.0,0.898713,0.022481,0.438043,14082.0,534.0,6942.0,42.0,18.0,-1.0
2896.0,2803.0,2863.0,3120.0,3053.0,0.847717,-0.00061,-0.529907,-0.022583,0.0,0.0,0.0,7052.0,284.0,3446.0,-308.0,96.0,-144.0,-1.0,103.0,-337.0,0.898451,0.022899,0.438333,13946.0,844.0,6978.0,11.0,5.0,11.0
2895.0,2815.0,2867.0,3119.0,3057.0,0.847778,-0.000671,-0.529907,-0.022583,-1.0,-1.0,0.0,7052.0,275.0,3468.0,-308.0,88.0,-123.0,-20.0,96.0,-328.0,0.898518,0.022795,0.438436,14098.0,386.0,7018.0,-18.0,0.0,15.0
2899.0,2814.0,2875.0,3122.0,3071.0,0.847778,-0.000854,-0.529907,-0.022461,0.0,-1.0,0.0,7022.0,208.0,3461.0,-338.0,24.0,-130.0,-30.0,33.0,-360.0,0.898526,0.022356,0.43843,13950.0,298.0,6968.0,4.0,-12.0,16.0
2896.0,2806.0,2865.0,3115.0,3055.0,0.847717,-0.000854,-0.529968,-0.0224,0.0,-2.0,0.0,7005.0,205.0,3452.0,-356.0,22.0,-138.0,-30.0,31.0,-379.0,0.898565,0.022294,0.438259,13950.0,418.0,6862.0,10.0,-26.0,13.0
2895.0,2807.0,2863.0,3117.0,3057.0,0.847534,-0.000793,-0.530273,-0.022278,0.0,-2.0,0.0,7103.0,183.0,3474.0,-260.0,0.0,-110.0,-14.0,6.0,-281.0,0.898885,0.022282,0.43762,14632.0,272.0,7022.0,8.0,-24.0,1.0
2896.0,2815.0,2875.0,3123.0,3057.0,0.847534,-0.000732,-0.530273,-0.022278,0.0,0.0,-1.0,7133.0,199.0,3488.0,-230.0,15.0,-96.0,-13.0,21.0,-248.0,0.898882,0.022385,0.43762,14378.0,586.0,6996.0,14.0,6.0,-4.0
2895.0,2807.0,2863.0,3117.0,3055.0,0.847534,-0.000671,-0.530273,-0.022339,-1.0,0.0,-1.0,7128.0,240.0,3484.0,-235.0,55.0,-101.0,-9.0,61.0,-254.0,0.89888,0.022553,0.437623,14204.0,726.0,6962.0,-8.0,8.0,-1.0
2896.0,2807.0,2862.0,3115.0,3055.0,0.847595,-0.000854,-0.530151,-0.022461,-1.0,0.0,0.0,7101.0,200.0,3496.0,-261.0,16.0,-90.0,-32.0,23.0,-273.0,0.898746,0.022367,0.437861,13986.0,226.0,7008.0,-14.0,4.0,2.0
2896.0,2813.0,2873.0,3122.0,3056.0,0.847595,-0.000916,-0.530151,-0.022461,-1.0,-1.0,-1.0,7073.0,183.0,3497.0,-289.0,0.0,-89.0,-46.0,8.0,-298.0,0.898749,0.022263,0.437861,14026.0,254.0,6988.0,-1.0,-14.0,-1.0
2896.0,2815.0,2869.0,3126.0,3059.0,0.847534,-0.000793,-0.530273,-0.022339,0.0,-2.0,0.0,7020.0,214.0,3520.0,-343.0,30.0,-65.0,-90.0,41.0,-336.0,0.898885,0.022346,0.437623,13848.0,622.0,7102.0,15.0,-30.0,5.0
2896.0,2809.0,2866.0,3119.0,3055.0,0.847412,-0.000732,-0.530396,-0.022278,0.0,-3.0,0.0,6991.0,219.0,3512.0,-373.0,35.0,-70.0,-98.0,47.0,-365.0,0.89896,0.022391,0.437284,13844.0,420.0,6916.0,5.0,-48.0,14.0
2895.0,2811.0,2865.0,3120.0,3057.0,0.847107,-0.000671,-0.530945,-0.022095,1.0,-2.0,0.0,7071.0,189.0,3495.0,-298.0,6.0,-78.0,-59.0,15.0,-301.0,0.899564,0.022325,0.436175,14362.0,392.0,6866.0,29.0,-43.0,6.0
2895.0,2814.0,2867.0,3127.0,3057.0,0.846985,-0.000549,-0.531128,-0.022034,1.0,-2.0,0.0,7086.0,203.0,3471.0,-284.0,18.0,-98.0,-34.0,26.0,-297.0,0.899739,0.022475,0.435772,14246.0,492.0,6844.0,25.0,-33.0,1.0
2895.0,2807.0,2864.0,3119.0,3099.0,0.846924,-0.000427,-0.53125,-0.021973,0.0,-1.0,0.0,7089.0,217.0,3452.0,-282.0,31.0,-115.0,-17.0,38.0,-303.0,0.899875,0.022622,0.435536,14234.0,482.0,6746.0,15.0,-21.0,1.0
2895.0,2806.0,2866.0,3119.0,3055.0,0.846924,-0.000366,-0.531311,-0.021973,0.0,0.0,0.0,7105.0,195.0,3407.0,-267.0,8.0,-160.0,28.0,13.0,-309.0,0.899976,0.022728,0.435471,14016.0,304.0,6666.0,7.0,18.0,0.0
2899.0,2813.0,2869.0,3125.0,3059.0,0.846924,-0.000366,-0.53125,-0.021912,-1.0,0.0,0.0,7056.0,213.0,3387.0,-315.0,27.0,-180.0,26.0,34.0,-361.0,0.899873,0.022661,0.435533,13854.0,578.0,6694.0,0.0,1.0,9.0
2891.0,2815.0,2871.0,3123.0,3059.0,0.846802,-0.00061,-0.531433,-0.021912,-1.0,-1.0,0.0,7061.0,163.0,3363.0,-312.0,-19.0,-201.0,44.0,-12.0,-368.0,0.900064,0.022255,0.435132,14196.0,2.0,6656.0,-12.0,-9.0,12.0
2897.0,2807.0,2864.0,3118.0,3055.0,0.846802,-0.00061,-0.531433,-0.021851,0.0,0.0,-1.0,7067.0,130.0,3368.0,-306.0,-51.0,-196.0,41.0,-44.0,-361.0,0.900064,0.022191,0.435129,14142.0,120.0,6772.0,17.0,2.0,-4.0
2895.0,2807.0,2865.0,3119.0,3051.0,0.846863,-0.000366,-0.531372,-0.02179,0.0,-1.0,-1.0,7050.0,172.0,3408.0,-322.0,-12.0,-157.0,0.0,-3.0,-358.0,0.900014,0.022536,0.435295,14148.0,476.0,6928.0,11.0,-3.0,-9.0
2898.0,2813.0,2871.0,3123.0,3056.0,0.846863,-0.000305,-0.531372,-0.021851,0.0,0.0,-1.0,7084.0,150.0,3427.0,-288.0,-35.0,-138.0,-2.0,-27.0,-320.0,0.900012,0.022705,0.435298,14332.0,60.0,6908.0,3.0,7.0,-12.0
2897.0,2815.0,2867.0,3123.0,3059.0,0.846924,0.0,-0.53125,-0.021729,2.0,-1.0,-1.0,7043.0,136.0,3442.0,-328.0,-53.0,-125.0,-32.0,-43.0,-350.0,0.899857,0.023087,0.435526,14086.0,528.0,7042.0,46.0,-6.0,-18.0
2895.0,2811.0,2864.0,3119.0,3055.0,0.846924,0.000183,-0.53125,-0.02179,0.0,-1.0,-1.0,7058.0,226.0,3466.0,-313.0,33.0,-101.0,-43.0,42.0,-324.0,0.899849,0.023462,0.435528,14194.0,986.0,7008.0,8.0,-10.0,-8.0
2896.0,2811.0,2864.0,3119.0,3055.0,0.846802,0.0,-0.531372,-0.022034,-2.0,-1.0,-1.0,7108.0,162.0,3458.0,-264.0,-29.0,-107.0,-19.0,-21.0,-284.0,0.899934,0.023416,0.435202,14276.0,-96.0,6802.0,-25.0,-11.0,-5.0
2899.0,2815.0,2874.0,3121.0,3031.0,0.846802,-6.1e-05,-0.531433,-0.022034,0.0,-1.0,-1.0,7120.0,153.0,3460.0,-253.0,-38.0,-104.0,-17.0,-30.0,-273.0,0.90004,0.023315,0.435138,14340.0,386.0,6984.0,16.0,-5.0,-16.0
2898.0,2818.0,2879.0,3127.0,3057.0,0.846863,0.000305,-0.531311,-0.022278,-1.0,-1.0,-2.0,7094.0,236.0,3478.0,-277.0,37.0,-88.0,-39.0,45.0,-286.0,0.899881,0.02419,0.435381,14058.0,572.0,6970.0,-5.0,0.0,-26.0
2898.0,2807.0,2865.0,3121.0,3057.0,0.846863,0.000366,-0.531372,-0.0224,-1.0,-1.0,-2.0,7098.0,213.0,3471.0,-274.0,12.0,-95.0,-33.0,20.0,-287.0,0.899982,0.024426,0.435322,14242.0,226.0,6864.0,-7.0,-7.0,-24.0
2896.0,2814.0,2870.0,3119.0,3051.0,0.846863,0.000671,-0.531311,-0.022522,1.0,0.0,-2.0,7082.0,207.0,3469.0,-289.0,1.0,-97.0,-38.0,10.0,-302.0,0.899865,0.025069,0.435392,13978.0,624.0,6950.0,34.0,7.0,-27.0
2899.0,2821.0,2878.0,3127.0,3059.0,0.846863,0.000916,-0.531311,-0.022583,0.0,-1.0,-1.0,7068.0,262.0,3474.0,-303.0,52.0,-92.0,-46.0,61.0,-311.0,0.899854,0.025548,0.435394,14096.0,834.0,7028.0,13.0,-9.0,-21.0
2895.0,2810.0,2867.0,3117.0,3055.0,0.846863,0.000977,-0.531311,-0.022705,-1.0,-1.0,-1.0,7044.0,261.0,3469.0,-327.0,49.0,-97.0,-52.0,59.0,-335.0,0.899851,0.025781,0.4354,13888.0,440.0,6848.0,-5.0,-6.0,-15.0
2896.0,2809.0,2867.0,3119.0,3057.0,0.846741,0.001099,-0.531494,-0.022766,0.0,-1.0,-1.0,7023.0,264.0,3458.0,-350.0,50.0,-105.0,-55.0,61.0,-359.0,0.900025,0.026061,0.435001,13906.0,712.0,6950.0,13.0,-20.0,-8.0
2899.0,2819.0,2877.0,3125.0,3059.0,0.84668,0.001221,-0.531555,-0.022827,-1.0,-2.0,0.0,6991.0,318.0,3443.0,-382.0,102.0,-119.0,-54.0,114.0,-392.0,0.900058,0.026335,0.434835,13828.0,964.0,6788.0,-3.0,-40.0,5.0
2899.0,2815.0,2869.0,3127.0,3063.0,0.846436,0.000977,-0.531982,-0.02301,-3.0,-2.0,0.0,7099.0,354.0,3437.0,-278.0,139.0,-118.0,-8.0,147.0,-297.0,0.900533,0.026135,0.433976,14686.0,654.0,6894.0,-53.0,-28.0,21.0
2896.0,2813.0,2869.0,3120.0,3059.0,0.846436,0.000732,-0.531982,-0.023071,-2.0,0.0,0.0,7126.0,311.0,3418.0,-251.0,99.0,-137.0,18.0,105.0,-282.0,0.900544,0.025787,0.43398,14316.0,386.0,6736.0,-43.0,9.0,18.0
2895.0,2811.0,2869.0,3121.0,3053.0,0.846497,0.000427,-0.531921,-0.023071,-1.0,0.0,0.0,7085.0,288.0,3434.0,-292.0,81.0,-122.0,-13.0,89.0,-313.0,0.90052,0.025268,0.434148,14052.0,502.0,6920.0,-22.0,5.0,18.0
2896.0,2817.0,2877.0,3127.0,3058.0,0.846497,0.000305,-0.53186,-0.02301,-1.0,-1.0,0.0,7086.0,256.0,3446.0,-290.0,51.0,-111.0,-23.0,59.0,-308.0,0.900422,0.024993,0.43421,14212.0,306.0,6936.0,-13.0,-3.0,15.0
2898.0,2815.0,2877.0,3127.0,3058.0,0.846436,0.000183,-0.531921,-0.022949,-1.0,-2.0,0.0,7048.0,240.0,3465.0,-328.0,37.0,-90.0,-59.0,47.0,-333.0,0.900466,0.024724,0.434039,13958.0,504.0,7016.0,-11.0,-31.0,17.0
2896.0,2811.0,2871.0,3120.0,3055.0,0.846375,6.1e-05,-0.532104,-0.022888,-1.0,-2.0,0.0,7065.0,227.0,3468.0,-313.0,26.0,-85.0,-57.0,36.0,-318.0,0.900717,0.024461,0.433739,14274.0,328.0,6912.0,-17.0,-44.0,18.0
2899.0,2814.0,2871.0,3119.0,3055.0,0.846191,-6.1e-05,-0.532349,-0.022766,0.0,-1.0,0.0,7100.0,193.0,3434.0,-280.0,-4.0,-114.0,-18.0,3.0,-301.0,0.90094,0.024136,0.433163,14102.0,496.0,6702.0,11.0,-18.0,12.0
2897.0,2819.0,2876.0,3127.0,3063.0,0.84613,-6.1e-05,-0.532471,-0.022705,-1.0,-1.0,0.0,7108.0,196.0,3416.0,-273.0,-1.0,-130.0,0.0,6.0,-302.0,0.901082,0.024076,0.432927,14352.0,366.0,6796.0,0.0,-21.0,7.0
2899.0,2819.0,2875.0,3127.0,3057.0,0.846069,0.0,-0.532532,-0.022644,0.0,0.0,0.0,7142.0,227.0,3369.0,-239.0,29.0,-176.0,56.0,33.0,-290.0,0.901118,0.024117,0.432756,14354.0,624.0,6662.0,4.0,18.0,1.0
2898.0,2815.0,2871.0,3120.0,3057.0,0.84613,0.0,-0.532471,-0.022705,-1.0,1.0,0.0,7097.0,254.0,3349.0,-284.0,55.0,-197.0,56.0,61.0,-339.0,0.901079,0.02418,0.432927,13846.0,662.0,6582.0,-9.0,25.0,9.0
2896.0,2811.0,2867.0,3121.0,3063.0,0.846069,-0.000305,-0.532532,-0.022644,-2.0,-2.0,1.0,7061.0,230.0,3354.0,-321.0,36.0,-191.0,34.0,43.0,-371.0,0.901131,0.023601,0.432756,14252.0,296.0,6762.0,-24.0,-28.0,35.0
2899.0,2818.0,2875.0,3127.0,3057.0,0.846008,-0.000488,-0.532654,-0.022522,-1.0,-1.0,1.0,7105.0,196.0,3371.0,-278.0,6.0,-172.0,35.0,12.0,-324.0,0.901281,0.023167,0.432517,14486.0,164.0,6836.0,-13.0,-14.0,33.0
2895.0,2815.0,2873.0,3125.0,3058.0,0.846069,-0.000671,-0.532593,-0.022217,0.0,0.0,0.0,7112.0,166.0,3399.0,-271.0,-18.0,-145.0,12.0,-11.0,-307.0,0.901251,0.022529,0.432671,14236.0,334.0,6902.0,8.0,2.0,17.0
2897.0,2813.0,2868.0,3120.0,3053.0,0.846069,-0.000671,-0.532593,-0.022156,0.0,0.0,0.0,7152.0,183.0,3422.0,-231.0,-1.0,-122.0,10.0,4.0,-260.0,0.901251,0.022464,0.432669,14550.0,554.0,6934.0,6.0,12.0,8.0
2897.0,2815.0,2871.0,3127.0,3055.0,0.84613,-0.000671,-0.532471,-0.022217,-1.0,1.0,0.0,7131.0,201.0,3419.0,-250.0,16.0,-127.0,7.0,22.0,-279.0,0.901109,0.022523,0.432905,14070.0,462.0,6788.0,-13.0,26.0,4.0
2898.0,2815.0,2871.0,3127.0,3055.0,0.846252,-0.000793,-0.532288,-0.022339,-1.0,0.0,-1.0,7116.0,172.0,3420.0,-264.0,-11.0,-129.0,1.0,-4.0,-293.0,0.900935,0.022438,0.433311,14132.0,250.0,6758.0,-10.0,21.0,-5.0
2897.0,2814.0,2867.0,3121.0,3055.0,0.846313,-0.000793,-0.532227,-0.022278,0.0,0.0,-1.0,7068.0,160.0,3418.0,-312.0,-23.0,-133.0,-16.0,-14.0,-339.0,0.900896,0.022371,0.433477,13782.0,336.0,6860.0,12.0,18.0,-3.0
2897.0,2815.0,2867.0,3120.0,3055.0,0.846252,-0.000732,-0.532288,-0.022217,-1.0,-2.0,0.0,7027.0,210.0,3440.0,-353.0,26.0,-109.0,-53.0,36.0,-364.0,0.900932,0.022412,0.433306,13956.0,390.0,6922.0,-8.0,-23.0,14.0
2896.0,2814.0,2877.0,3135.0,3059.0,0.846191,-0.000854,-0.53241,-0.022156,0.0,-2.0,1.0,7007.0,186.0,3452.0,-374.0,4.0,-95.0,-75.0,15.0,-378.0,0.901079,0.022146,0.43307,13930.0,256.0,7000.0,3.0,-41.0,23.0
2897.0,2815.0,2864.0,3121.0,3057.0,0.846069,-0.000671,-0.532654,-0.02179,2.0,-2.0,0.0,7056.0,204.0,3505.0,-327.0,23.0,-38.0,-106.0,33.0,-310.0,0.901353,0.022076,0.432588,14258.0,550.0,7218.0,46.0,-28.0,17.0
2897.0,2810.0,2865.0,3119.0,3051.0,0.846069,-0.000427,-0.532654,-0.021606,1.0,-1.0,0.0,7057.0,257.0,3521.0,-326.0,74.0,-22.0,-118.0,85.0,-301.0,0.901343,0.022295,0.43258,14098.0,896.0,7110.0,42.0,-18.0,19.0
2897.0,2815.0,2867.0,3115.0,3059.0,0.846008,-0.000305,-0.532715,-0.021545,-1.0,-1.0,0.0,7072.0,320.0,3538.0,-312.0,136.0,-4.0,-126.0,147.0,-279.0,0.901376,0.022439,0.432409,14096.0,608.0,7062.0,-21.0,-11.0,21.0
2897.0,2811.0,2871.0,3127.0,3056.0,0.846008,-0.000488,-0.532715,-0.021545,-2.0,-1.0,1.0,7042.0,290.0,3525.0,-342.0,108.0,-17.0,-128.0,119.0,-313.0,0.901383,0.022129,0.432409,13846.0,324.0,6930.0,-28.0,-17.0,23.0
2903.0,2813.0,2871.0,3123.0,3063.0,0.845825,-0.000671,-0.533081,-0.021362,0.0,-3.0,0.0,7022.0,218.0,3511.0,-365.0,40.0,-25.0,-133.0,52.0,-339.0,0.901815,0.02164,0.431701,14196.0,264.0,6960.0,15.0,-68.0,18.0
2894.0,2811.0,2866.0,3121.0,3058.0,0.845642,-0.00061,-0.533325,-0.02124,1.0,-4.0,0.0,7042.0,212.0,3497.0,-347.0,34.0,-34.0,-117.0,45.0,-326.0,0.90203,0.021624,0.431126,14174.0,432.0,6922.0,29.0,-70.0,11.0
2899.0,2813.0,2863.0,3115.0,3057.0,0.845215,-0.000488,-0.534058,-0.021057,0.0,-4.0,0.0,7098.0,190.0,3437.0,-297.0,12.0,-82.0,-52.0,20.0,-303.0,0.902807,0.021666,0.429614,14466.0,176.0,6674.0,14.0,-78.0,8.0
2896.0,2802.0,2870.0,3119.0,3057.0,0.844971,-0.000427,-0.534363,-0.020935,1.0,-3.0,0.0,7145.0,169.0,3420.0,-252.0,-8.0,-93.0,-24.0,-1.0,-267.0,0.90306,0.021652,0.42887,14554.0,252.0,6762.0,32.0,-52.0,3.0
2891.0,2813.0,2869.0,3123.0,3057.0,0.844849,-6.1e-05,-0.534607,-0.020752,1.0,-1.0,-1.0,7156.0,179.0,3375.0,-244.0,-1.0,-134.0,16.0,4.0,-277.0,0.903326,0.022085,0.428395,14222.0,428.0,6612.0,35.0,-9.0,-3.0
2895.0,2815.0,2863.0,3123.0,3055.0,0.844788,6.1e-05,-0.534668,-0.020691,0.0,-1.0,0.0,7120.0,198.0,3346.0,-280.0,15.0,-162.0,27.0,21.0,-321.0,0.903359,0.022229,0.428224,13992.0,536.0,6484.0,20.0,-10.0,4.0
2898.0,2810.0,2871.0,3119.0,3055.0,0.844604,0.0,-0.535034,-0.020508,0.0,-2.0,0.0,7088.0,157.0,3293.0,-315.0,-22.0,-209.0,53.0,-15.0,-374.0,0.903785,0.021945,0.427516,14298.0,190.0,6468.0,9.0,-45.0,18.0
2896.0,2805.0,2863.0,3127.0,3062.0,0.844421,0.0,-0.535217,-0.020386,0.0,-2.0,0.0,7135.0,144.0,3293.0,-269.0,-34.0,-205.0,69.0,-29.0,-331.0,0.903898,0.021822,0.427006,14586.0,226.0,6572.0,16.0,-29.0,14.0
2903.0,2815.0,2875.0,3133.0,3056.0,0.84436,0.000122,-0.5354,-0.020142,1.0,0.0,0.0,7155.0,118.0,3298.0,-251.0,-60.0,-197.0,69.0,-55.0,-312.0,0.904137,0.021774,0.426696,14276.0,302.0,6616.0,38.0,1.0,2.0
2895.0,2814.0,2871.0,3121.0,3055.0,0.84436,0.000305,-0.5354,-0.020081,1.0,0.0,0.0,7149.0,164.0,3321.0,-257.0,-16.0,-174.0,47.0,-10.0,-306.0,0.904129,0.022018,0.426694,14266.0,622.0,6746.0,27.0,1.0,1.0
2896.0,2815.0,2869.0,3117.0,3057.0,0.84436,0.000366,-0.5354,-0.020081,0.0,-1.0,0.0,7144.0,156.0,3352.0,-262.0,-25.0,-143.0,16.0,-18.0,-298.0,0.904127,0.022121,0.426694,14282.0,106.0,6826.0,1.0,-8.0,2.0
2899.0,2815.0,2871.0,3119.0,3055.0,0.844299,0.000366,-0.535461,-0.019958,1.0,-1.0,-1.0,7131.0,146.0,3369.0,-275.0,-34.0,-125.0,-5.0,-27.0,-302.0,0.904165,0.021992,0.426521,14178.0,314.0,6838.0,26.0,-8.0,-3.0
2891.0,2807.0,2869.0,3127.0,3055.0,0.844299,0.000671,-0.535522,-0.019836,1.0,-1.0,0.0,7099.0,147.0,3383.0,-308.0,-36.0,-110.0,-32.0,-27.0,-326.0,0.904256,0.022379,0.42645,14174.0,134.0,6820.0,34.0,-21.0,0.0
2903.0,2813.0,2871.0,3121.0,3055.0,0.844238,0.000916,-0.535583,-0.019653,3.0,-1.0,-1.0,7114.0,112.0,3392.0,-293.0,-73.0,-100.0,-36.0,-64.0,-309.0,0.904284,0.022598,0.426274,14278.0,20.0,6796.0,77.0,-10.0,-2.0
2883.0,2814.0,2877.0,3119.0,3057.0,0.84436,0.002136,-0.5354,-0.018982,7.0,1.0,-2.0,7108.0,141.0,3423.0,-298.0,-55.0,-72.0,-63.0,-45.0,-301.0,0.904061,0.023933,0.426647,14030.0,568.0,6918.0,168.0,29.0,-30.0
2896.0,2803.0,2867.0,3135.0,3043.0,0.844482,0.003113,-0.535278,-0.018677,7.0,0.0,-2.0,7070.0,218.0,3458.0,-335.0,11.0,-39.0,-107.0,22.0,-319.0,0.90395,0.025252,0.426967,13938.0,1000.0,7164.0,173.0,19.0,-35.0
2897.0,2814.0,2864.0,3119.0,3056.0,0.844543,0.004639,-0.535095,-0.018372,3.0,-2.0,-1.0,7019.0,413.0,3505.0,-383.0,187.0,5.0,-163.0,200.0,-338.0,0.903652,0.027496,0.427243,13992.0,1170.0,7014.0,84.0,-23.0,-4.0
2902.0,2819.0,2871.0,3125.0,3057.0,0.844482,0.005005,-0.535217,-0.018188,2.0,-2.0,0.0,7022.0,434.0,3487.0,-381.0,205.0,-10.0,-148.0,218.0,-342.0,0.903781,0.027923,0.426999,14080.0,898.0,6900.0,51.0,-42.0,21.0
2897.0,2821.0,2871.0,3119.0,3056.0,0.844177,0.005127,-0.535706,-0.017761,0.0,-3.0,2.0,7077.0,425.0,3453.0,-330.0,198.0,-36.0,-102.0,209.0,-308.0,0.904279,0.027686,0.425944,14490.0,712.0,6778.0,5.0,-66.0,56.0
2894.0,2801.0,2864.0,3123.0,3062.0,0.844055,0.004944,-0.53595,-0.017517,-1.0,-3.0,2.0,7145.0,353.0,3417.0,-265.0,130.0,-68.0,-47.0,138.0,-265.0,0.904569,0.027122,0.425469,14720.0,178.0,6610.0,-10.0,-48.0,61.0
2893.0,2802.0,2865.0,3121.0,3055.0,0.843872,0.004761,-0.536255,-0.016846,2.0,-1.0,1.0,7174.0,173.0,3326.0,-238.0,-40.0,-154.0,37.0,-33.0,-281.0,0.904901,0.026102,0.424812,14352.0,98.0,6420.0,59.0,-13.0,30.0
2909.0,2815.0,2869.0,3119.0,3051.0,0.843811,0.004944,-0.536377,-0.016541,2.0,-1.0,0.0,7155.0,182.0,3298.0,-259.0,-31.0,-180.0,52.0,-24.0,-311.0,0.905038,0.026087,0.424566,14104.0,514.0,6418.0,58.0,-7.0,15.0
2894.0,2811.0,2864.0,3120.0,3063.0,0.843628,0.005066,-0.536682,-0.016357,-1.0,-2.0,0.0,7091.0,189.0,3244.0,-325.0,-24.0,-228.0,68.0,-15.0,-391.0,0.905354,0.026105,0.423922,14068.0,306.0,6372.0,-6.0,-39.0,9.0
2893.0,2807.0,2854.0,3115.0,3063.0,0.843445,0.004944,-0.536926,-0.016357,-1.0,-3.0,0.0,7081.0,156.0,3235.0,-337.0,-56.0,-233.0,67.0,-47.0,-405.0,0.905574,0.025905,0.423353,14172.0,108.0,6440.0,-11.0,-55.0,6.0
2903.0,2811.0,2867.0,3103.0,3056.0,0.843201,0.004944,-0.537354,-0.016357,0.0,-1.0,-1.0,7173.0,145.0,3261.0,-249.0,-67.0,-199.0,73.0,-60.0,-311.0,0.906032,0.025917,0.422482,14610.0,378.0,6554.0,12.0,-13.0,-14.0
2896.0,2819.0,2875.0,3131.0,3069.0,0.843201,0.005005,-0.537354,-0.016357,0.0,0.0,-1.0,7197.0,163.0,3267.0,-225.0,-50.0,-193.0,78.0,-44.0,-286.0,0.90603,0.02602,0.422481,14538.0,446.0,6592.0,10.0,16.0,-16.0
2895.0,2815.0,2879.0,3121.0,3056.0,0.843323,0.005066,-0.537109,-0.016479,-1.0,1.0,-1.0,7140.0,210.0,3269.0,-279.0,-5.0,-195.0,58.0,2.0,-335.0,0.905746,0.026247,0.422953,13972.0,578.0,6550.0,-13.0,23.0,-3.0
2895.0,2807.0,2871.0,3125.0,3055.0,0.843323,0.005005,-0.537109,-0.016541,-2.0,-1.0,0.0,7097.0,221.0,3270.0,-322.0,6.0,-194.0,39.0,14.0,-373.0,0.905748,0.02621,0.422955,13974.0,488.0,6550.0,-28.0,-1.0,7.0
2895.0,2813.0,2867.0,3121.0,3056.0,0.843262,0.004639,-0.537231,-0.016724,-3.0,-2.0,0.0,7067.0,252.0,3310.0,-354.0,40.0,-153.0,-9.0,50.0,-384.0,0.905898,0.025792,0.422731,14082.0,572.0,6690.0,-51.0,-24.0,16.0
2901.0,2815.0,2867.0,3107.0,3062.0,0.843201,0.004272,-0.537354,-0.016846,-3.0,-2.0,0.0,7094.0,226.0,3336.0,-328.0,18.0,-125.0,-24.0,27.0,-349.0,0.90605,0.025309,0.422504,14438.0,236.0,6836.0,-66.0,-33.0,16.0
2902.0,2787.0,2875.0,3127.0,3039.0,0.843201,0.003723,-0.537292,-0.017029,-3.0,0.0,-1.0,7158.0,214.0,3390.0,-263.0,12.0,-71.0,-46.0,19.0,-267.0,0.905964,0.024578,0.42258,14358.0,640.0,6932.0,-47.0,20.0,-2.0
2895.0,2801.0,2863.0,3127.0,3043.0,0.843323,0.00354,-0.537109,-0.017273,-4.0,1.0,-1.0,7137.0,257.0,3410.0,-283.0,56.0,-55.0,-68.0,64.0,-278.0,0.905791,0.024526,0.422993,14140.0,758.0,6966.0,-76.0,25.0,-5.0
2896.0,2807.0,2867.0,3123.0,3039.0,0.843445,0.002747,-0.536926,-0.017822,-4.0,-1.0,0.0,7067.0,192.0,3420.0,-351.0,-2.0,-48.0,-104.0,8.0,-338.0,0.905637,0.023772,0.423419,13866.0,-40.0,6820.0,-75.0,-12.0,1.0
2895.0,2839.0,2879.0,3127.0,3043.0,0.843384,0.002563,-0.536987,-0.017883,-1.0,-2.0,-1.0,7061.0,133.0,3414.0,-358.0,-59.0,-53.0,-104.0,-47.0,-348.0,0.905681,0.02353,0.423254,14194.0,-48.0,6816.0,-13.0,-40.0,-4.0
2896.0,2811.0,2867.0,3127.0,3055.0,0.843201,0.002869,-0.537292,-0.017761,1.0,-2.0,-1.0,7132.0,224.0,3390.0,-289.0,28.0,-72.0,-55.0,36.0,-291.0,0.905989,0.023924,0.422611,14390.0,976.0,6658.0,39.0,-24.0,-12.0
2885.0,2803.0,2867.0,3135.0,3039.0,0.843079,0.003052,-0.537415,-0.017883,-1.0,-2.0,-1.0,7141.0,296.0,3347.0,-281.0,96.0,-112.0,-14.0,103.0,-299.0,0.906056,0.024367,0.422278,14398.0,932.0,6492.0,-5.0,-29.0,-3.0
2895.0,2806.0,2864.0,3119.0,3051.0,0.842957,0.002869,-0.537659,-0.018066,-2.0,-1.0,0.0,7183.0,290.0,3269.0,-241.0,91.0,-186.0,69.0,96.0,-294.0,0.906342,0.024263,0.421817,14360.0,526.0,6286.0,-31.0,-1.0,6.0
2901.0,2815.0,2863.0,3117.0,3057.0,0.842896,0.002747,-0.53772,-0.018127,-2.0,0.0,0.0,7173.0,271.0,3241.0,-252.0,73.0,-213.0,89.0,78.0,-316.0,0.906384,0.024125,0.421651,14292.0,408.0,6326.0,-25.0,5.0,8.0
2898.0,2815.0,2871.0,3121.0,3051.0,0.842957,0.002686,-0.53772,-0.018066,-1.0,0.0,0.0,7138.0,246.0,3221.0,-287.0,49.0,-233.0,91.0,55.0,-357.0,0.906452,0.023957,0.421752,14154.0,416.0,6458.0,-1.0,17.0,11.0
2895.0,2807.0,2865.0,3125.0,3043.0,0.842957,0.002625,-0.537659,-0.018005,0.0,0.0,0.0,7105.0,221.0,3223.0,-319.0,26.0,-232.0,76.0,33.0,-386.0,0.906351,0.023786,0.421816,14012.0,300.0,6454.0,6.0,8.0,10.0
2867.0,2810.0,2865.0,3120.0,3051.0,0.842896,0.002625,-0.53772,-0.017883,-1.0,-1.0,0.0,7085.0,230.0,3279.0,-340.0,36.0,-175.0,16.0,44.0,-381.0,0.906389,0.023657,0.421643,14196.0,430.0,6730.0,-6.0,-20.0,13.0
2899.0,2815.0,2864.0,3115.0,3059.0,0.842896,0.002563,-0.537781,-0.017883,-1.0,-1.0,0.0,7118.0,219.0,3330.0,-308.0,26.0,-123.0,-17.0,34.0,-330.0,0.906494,0.023556,0.421578,14464.0,342.0,6962.0,-6.0,-17.0,14.0
2899.0,2811.0,2865.0,3123.0,3057.0,0.842957,0.002563,-0.537659,-0.017822,-1.0,0.0,0.0,7140.0,244.0,3391.0,-284.0,51.0,-64.0,-60.0,59.0,-283.0,0.906354,0.023486,0.42181,14254.0,738.0,6902.0,-1.0,5.0,7.0
2887.0,2807.0,2864.0,3119.0,3062.0,0.843018,0.002502,-0.537598,-0.017883,-2.0,0.0,0.0,7176.0,240.0,3400.0,-248.0,47.0,-56.0,-52.0,54.0,-247.0,0.906319,0.023447,0.421981,14618.0,340.0,6782.0,-29.0,10.0,4.0
2896.0,2806.0,2865.0,3119.0,3047.0,0.84314,0.002319,-0.537354,-0.017883,0.0,1.0,-1.0,7173.0,133.0,3334.0,-249.0,-56.0,-126.0,7.0,-49.0,-280.0,0.906045,0.02313,0.42245,14208.0,10.0,6446.0,4.0,40.0,-10.0
2896.0,2815.0,2877.0,3123.0,3059.0,0.843262,0.002319,-0.537231,-0.017883,0.0,1.0,-1.0,7118.0,123.0,3296.0,-303.0,-66.0,-167.0,21.0,-58.0,-346.0,0.90597,0.023127,0.422787,13908.0,226.0,6350.0,11.0,26.0,-13.0
2895.0,2815.0,2873.0,3123.0,3056.0,0.843201,0.00238,-0.537292,-0.018005,-1.0,-2.0,-1.0,7051.0,134.0,3286.0,-370.0,-57.0,-176.0,1.0,-47.0,-410.0,0.906005,0.023363,0.422623,14070.0,264.0,6592.0,-11.0,-28.0,-7.0
2891.0,2809.0,2866.0,3120.0,3053.0,0.843079,0.002319,-0.537415,-0.018005,-1.0,-2.0,-1.0,7090.0,122.0,3298.0,-332.0,-68.0,-161.0,4.0,-59.0,-370.0,0.906082,0.023263,0.422286,14490.0,172.0,6670.0,-4.0,-31.0,-8.0
2894.0,2811.0,2862.0,3121.0,3055.0,0.843201,0.002563,-0.537292,-0.018066,0.0,1.0,-2.0,7171.0,191.0,3340.0,-250.0,-3.0,-122.0,4.0,3.0,-278.0,0.905998,0.023737,0.422624,14334.0,750.0,6760.0,16.0,45.0,-25.0
2899.0,2815.0,2877.0,3120.0,3055.0,0.843323,0.002686,-0.537048,-0.01825,0.0,2.0,-2.0,7196.0,218.0,3365.0,-223.0,20.0,-101.0,-2.0,25.0,-244.0,0.905712,0.024131,0.423098,14624.0,504.0,6920.0,1.0,52.0,-23.0
2897.0,2814.0,2870.0,3121.0,3059.0,0.438782,0.013916,0.206543,-1.21228,-19658.0,19114.0,1880.0,-27667.0,11713.0,20835.0,-25905.0,15715.0,7569.0,-13428.0,4125.0,10148.0,-0.214995,-0.488564,1.619299,13808.0,818.0,6848.0,27.0,76.0,-11.0
2893.0,2803.0,2863.0,3119.0,3056.0,0.843994,0.003174,-0.536011,-0.018311,0.0,1.0,0.0,7056.0,321.0,3416.0,-355.0,116.0,-68.0,-86.0,127.0,-347.0,0.904664,0.024987,0.425344,13724.0,1000.0,6910.0,5.0,33.0,8.0
2896.0,2803.0,2864.0,3123.0,3047.0,0.843994,0.00293,-0.536011,-0.018433,-2.0,-2.0,1.0,7029.0,308.0,3401.0,-382.0,105.0,-83.0,-84.0,116.0,-378.0,0.904672,0.024705,0.42535,14146.0,292.0,6684.0,-43.0,-38.0,27.0
2899.0,2813.0,2867.0,3115.0,3059.0,0.843872,0.002686,-0.536194,-0.018372,-2.0,-2.0,0.0,7075.0,253.0,3383.0,-337.0,54.0,-98.0,-52.0,63.0,-345.0,0.904859,0.024234,0.424947,14466.0,170.0,6638.0,-25.0,-40.0,21.0
2891.0,2811.0,2878.0,3127.0,3029.0,0.84375,0.002625,-0.536377,-0.01825,1.0,0.0,-1.0,7153.0,153.0,3347.0,-261.0,-43.0,-130.0,5.0,-36.0,-292.0,0.90504,0.024006,0.42454,14502.0,64.0,6546.0,32.0,7.0,-7.0
2899.0,2811.0,2870.0,3121.0,3051.0,0.843811,0.002869,-0.536316,-0.018127,2.0,1.0,-1.0,7168.0,137.0,3335.0,-245.0,-61.0,-144.0,24.0,-54.0,-284.0,0.904995,0.024285,0.424703,14378.0,252.0,6612.0,62.0,29.0,-17.0
2893.0,2805.0,2865.0,3111.0,3047.0,0.843994,0.00354,-0.536011,-0.017944,1.0,1.0,-1.0,7146.0,209.0,3344.0,-264.0,2.0,-140.0,14.0,9.0,-298.0,0.904653,0.025212,0.425328,14222.0,652.0,6762.0,43.0,33.0,-17.0
2893.0,2815.0,2862.0,3121.0,3057.0,0.844116,0.003784,-0.535889,-0.018005,0.0,1.0,-1.0,7128.0,251.0,3359.0,-282.0,40.0,-128.0,-2.0,48.0,-308.0,0.904568,0.025686,0.425665,14136.0,720.0,6814.0,18.0,30.0,-9.0
2896.0,2809.0,2875.0,3127.0,3055.0,0.844177,0.003723,-0.535767,-0.018066,-1.0,-1.0,0.0,7084.0,242.0,3350.0,-325.0,31.0,-138.0,-12.0,40.0,-351.0,0.904429,0.025645,0.425902,13998.0,272.0,6636.0,-16.0,-5.0,10.0
2901.0,2814.0,2864.0,3121.0,3039.0,0.844116,0.003662,-0.535828,-0.018005,0.0,-2.0,0.0,7082.0,193.0,3359.0,-327.0,-15.0,-128.0,-23.0,-5.0,-350.0,0.90447,0.025478,0.425732,14154.0,94.0,6796.0,4.0,-30.0,7.0
2895.0,2815.0,2864.0,3115.0,3063.0,0.843933,0.003784,-0.536133,-0.017883,0.0,-2.0,-1.0,7133.0,209.0,3385.0,-278.0,0.0,-97.0,-30.0,8.0,-292.0,0.904785,0.025563,0.42509,14588.0,454.0,6944.0,9.0,-32.0,-1.0
2899.0,2814.0,2867.0,3126.0,3067.0,0.843872,0.003784,-0.536194,-0.017883,0.0,-1.0,-1.0,7159.0,198.0,3392.0,-253.0,-11.0,-88.0,-27.0,-3.0,-266.0,0.904823,0.025565,0.424922,14426.0,312.0,6806.0,8.0,-6.0,-1.0
2903.0,2815.0,2871.0,3118.0,3069.0,0.843933,0.003967,-0.536072,-0.017822,1.0,0.0,-1.0,7179.0,193.0,3404.0,-232.0,-18.0,-78.0,-28.0,-10.0,-243.0,0.904676,0.025804,0.425152,14402.0,424.0,6874.0,24.0,14.0,-10.0
2901.0,2801.0,2875.0,3119.0,3063.0,0.843994,0.00415,-0.536011,-0.017822,0.0,0.0,-1.0,7162.0,229.0,3405.0,-248.0,15.0,-79.0,-33.0,22.0,-257.0,0.904632,0.026112,0.425319,14168.0,716.0,6790.0,22.0,20.0,-9.0
2883.0,2806.0,2855.0,3119.0,3055.0,0.844116,0.004333,-0.535889,-0.017883,0.0,-1.0,-1.0,7100.0,242.0,3394.0,-310.0,25.0,-92.0,-47.0,34.0,-318.0,0.90455,0.026483,0.425657,13958.0,424.0,6716.0,8.0,-2.0,-7.0
2895.0,2819.0,2877.0,3125.0,3063.0,0.844055,0.004395,-0.53595,-0.017883,0.0,-2.0,-1.0,7069.0,225.0,3379.0,-341.0,7.0,-106.0,-48.0,17.0,-353.0,0.904585,0.026588,0.425488,13992.0,340.0,6694.0,15.0,-25.0,-2.0
2896.0,2815.0,2869.0,3121.0,3061.0,0.843872,0.004578,-0.536255,-0.017761,1.0,-2.0,0.0,7097.0,233.0,3367.0,-315.0,13.0,-113.0,-31.0,22.0,-332.0,0.904898,0.026775,0.424845,14338.0,606.0,6748.0,24.0,-35.0,3.0
2883.0,2800.0,2863.0,3122.0,3039.0,0.84375,0.0047,-0.536377,-0.0177,0.0,-1.0,0.0,7128.0,241.0,3348.0,-285.0,20.0,-129.0,-3.0,28.0,-312.0,0.90497,0.026919,0.424505,14426.0,464.0,6572.0,10.0,-21.0,1.0
2895.0,2820.0,2877.0,3119.0,3056.0,0.843689,0.004761,-0.536438,-0.0177,0.0,-1.0,-1.0,7145.0,213.0,3318.0,-268.0,-8.0,-158.0,29.0,0.0,-309.0,0.905005,0.027023,0.424336,14364.0,226.0,6458.0,12.0,-3.0,-3.0
2896.0,2821.0,2871.0,3127.0,3067.0,0.84375,0.005005,-0.536438,-0.017639,1.0,1.0,-1.0,7152.0,228.0,3288.0,-262.0,3.0,-188.0,59.0,10.0,-316.0,0.905063,0.02737,0.424434,14316.0,698.0,6522.0,24.0,23.0,-15.0
2893.0,2801.0,2862.0,3119.0,3056.0,0.843811,0.005127,-0.536316,-0.0177,-1.0,1.0,-1.0,7148.0,254.0,3282.0,-265.0,27.0,-196.0,65.0,34.0,-322.0,0.904917,0.027638,0.424669,14284.0,618.0,6566.0,-3.0,26.0,-15.0
2890.0,2801.0,2866.0,3125.0,3053.0,0.843933,0.005066,-0.536072,-0.017883,-1.0,1.0,-1.0,7100.0,222.0,3300.0,-310.0,-5.0,-182.0,32.0,4.0,-357.0,0.904636,0.027724,0.425144,13820.0,328.0,6652.0,-4.0,33.0,-9.0
2897.0,2812.0,2879.0,3127.0,3059.0,0.843994,0.005127,-0.536011,-0.017883,0.0,-1.0,-1.0,7061.0,223.0,3334.0,-349.0,-4.0,-150.0,-12.0,6.0,-379.0,0.904596,0.027826,0.425312,13976.0,486.0,6934.0,4.0,-6.0,-6.0
2901.0,2815.0,2875.0,3131.0,3061.0,0.843994,0.005249,-0.536011,-0.017883,0.0,-1.0,-1.0,7078.0,254.0,3418.0,-332.0,24.0,-66.0,-80.0,35.0,-327.0,0.904592,0.028032,0.425311,14322.0,576.0,7048.0,8.0,-22.0,-2.0
2899.0,2801.0,2866.0,3119.0,3059.0,0.843933,0.00531,-0.536072,-0.017883,0.0,-1.0,0.0,7119.0,256.0,3449.0,-291.0,25.0,-33.0,-93.0,35.0,-276.0,0.904628,0.028136,0.425142,14490.0,542.0,7062.0,10.0,-15.0,1.0
2902.0,2799.0,2859.0,3115.0,3055.0,0.843994,0.005493,-0.536011,-0.017883,0.0,0.0,-1.0,7129.0,254.0,3446.0,-281.0,20.0,-38.0,-84.0,29.0,-269.0,0.904583,0.028444,0.425308,14108.0,400.0,6842.0,20.0,6.0,-7.0
2898.0,2818.0,2879.0,3127.0,3063.0,0.843994,0.005676,-0.53595,-0.017822,1.0,-1.0,-1.0,7097.0,260.0,3434.0,-312.0,25.0,-50.0,-86.0,35.0,-302.0,0.904474,0.028685,0.425369,14038.0,608.0,6794.0,38.0,-8.0,-7.0
2896.0,2827.0,2878.0,3126.0,3059.0,0.843933,0.006165,-0.536072,-0.017761,1.0,-1.0,-1.0,7107.0,304.0,3410.0,-303.0,62.0,-72.0,-62.0,72.0,-302.0,0.904598,0.029448,0.425128,14300.0,786.0,6678.0,35.0,-18.0,-7.0
2895.0,2803.0,2857.0,3119.0,3100.0,0.843872,0.006348,-0.536194,-0.0177,0.0,-1.0,0.0,7114.0,323.0,3366.0,-297.0,79.0,-114.0,-21.0,88.0,-314.0,0.904733,0.029695,0.424889,14264.0,714.0,6444.0,13.0,-14.0,1.0
2897.0,2799.0,2863.0,3119.0,3047.0,0.84375,0.006348,-0.536438,-0.0177,0.0,-1.0,0.0,7140.0,262.0,3277.0,-273.0,18.0,-199.0,64.0,26.0,-330.0,0.905014,0.029702,0.424421,14400.0,284.0,6334.0,10.0,-9.0,1.0
2896.0,2815.0,2868.0,3119.0,3057.0,0.843689,0.006409,-0.536499,-0.017578,0.0,0.0,0.0,7131.0,256.0,3239.0,-283.0,12.0,-236.0,94.0,20.0,-355.0,0.905051,0.029675,0.424248,14130.0,526.0,6248.0,19.0,11.0,1.0
2896.0,2801.0,2863.0,3119.0,3055.0,0.843689,0.00647,-0.536499,-0.017578,0.0,0.0,0.0,7106.0,258.0,3233.0,-308.0,14.0,-242.0,88.0,23.0,-381.0,0.905049,0.029778,0.424247,14086.0,484.0,6462.0,9.0,12.0,1.0
2895.0,2807.0,2865.0,3119.0,3054.0,0.843689,0.006531,-0.536438,-0.017578,0.0,0.0,-1.0,7119.0,240.0,3269.0,-294.0,-4.0,-206.0,61.0,5.0,-353.0,0.904944,0.029879,0.424312,14438.0,426.0,6756.0,6.0,9.0,-1.0
2896.0,2815.0,2871.0,3123.0,3063.0,0.84375,0.006592,-0.536316,-0.017517,0.0,1.0,-1.0,7144.0,233.0,3305.0,-268.0,-12.0,-172.0,41.0,-3.0,-315.0,0.904802,0.029913,0.424543,14356.0,466.0,6796.0,18.0,32.0,-8.0
2896.0,2815.0,2875.0,3119.0,3051.0,0.844055,0.006958,-0.53595,-0.017456,1.0,1.0,-1.0,7143.0,249.0,3372.0,-266.0,0.0,-113.0,-10.0,9.0,-288.0,0.904499,0.030457,0.425443,14258.0,564.0,6904.0,37.0,42.0,-11.0
2897.0,2803.0,2859.0,3119.0,3051.0,0.844177,0.007202,-0.535706,-0.017395,1.0,1.0,-1.0,7120.0,265.0,3405.0,-287.0,12.0,-84.0,-45.0,22.0,-294.0,0.90421,0.030797,0.425905,14034.0,612.0,6976.0,41.0,41.0,-7.0
2891.0,2801.0,2865.0,3119.0,3047.0,0.84436,0.007568,-0.535461,-0.017151,1.0,-1.0,0.0,7036.0,299.0,3475.0,-369.0,43.0,-18.0,-140.0,56.0,-339.0,0.903985,0.031148,0.426462,14040.0,750.0,7246.0,40.0,-21.0,10.0
2899.0,2817.0,2875.0,3125.0,3057.0,0.844299,0.007751,-0.535522,-0.01709,1.0,-2.0,0.0,7046.0,345.0,3503.0,-359.0,87.0,10.0,-160.0,100.0,-317.0,0.904018,0.031393,0.426289,14158.0,972.0,7172.0,23.0,-33.0,15.0
2898.0,2814.0,2871.0,3127.0,3059.0,0.844116,0.00769,-0.535767,-0.016968,-1.0,-3.0,1.0,7078.0,359.0,3493.0,-329.0,103.0,5.0,-142.0,115.0,-292.0,0.904238,0.031165,0.425715,14330.0,668.0,6822.0,-15.0,-49.0,26.0
2887.0,2800.0,2855.0,3119.0,3063.0,0.844055,0.007568,-0.53595,-0.016968,-1.0,-2.0,0.0,7121.0,346.0,3458.0,-288.0,92.0,-27.0,-96.0,102.0,-269.0,0.904485,0.030964,0.425418,14546.0,612.0,6672.0,-15.0,-40.0,21.0
2886.0,2800.0,2857.0,3119.0,3055.0,0.843872,0.007507,-0.536133,-0.016907,0.0,0.0,-1.0,7187.0,286.0,3359.0,-223.0,33.0,-121.0,15.0,40.0,-252.0,0.904601,0.030799,0.424911,14504.0,418.0,6398.0,8.0,7.0,-1.0
2897.0,2815.0,2876.0,3127.0,3063.0,0.843933,0.007568,-0.536133,-0.016907,0.0,1.0,-1.0,7190.0,253.0,3310.0,-221.0,0.0,-171.0,60.0,7.0,-272.0,0.904665,0.030903,0.425013,14376.0,292.0,6318.0,20.0,26.0,-13.0
2886.0,2805.0,2859.0,3119.0,3047.0,0.843994,0.00769,-0.536072,-0.016846,1.0,1.0,-1.0,7154.0,219.0,3262.0,-256.0,-35.0,-221.0,90.0,-26.0,-326.0,0.904624,0.031042,0.425178,14020.0,266.0,6240.0,31.0,35.0,-16.0
2889.0,2801.0,2863.0,3119.0,3045.0,0.843994,0.008057,-0.536011,-0.016846,0.0,0.0,-1.0,7096.0,227.0,3248.0,-313.0,-32.0,-235.0,79.0,-21.0,-384.0,0.904508,0.031658,0.425237,14190.0,364.0,6598.0,21.0,7.0,-18.0
2896.0,2815.0,2875.0,3103.0,3057.0,0.843994,0.008179,-0.53595,-0.016785,0.0,0.0,0.0,7065.0,266.0,3260.0,-343.0,5.0,-224.0,57.0,16.0,-405.0,0.904402,0.031797,0.425299,13904.0,872.0,6628.0,18.0,8.0,0.0
2889.0,2815.0,2871.0,3123.0,3061.0,0.843994,0.008118,-0.536011,-0.016846,-1.0,-1.0,0.0,7092.0,293.0,3338.0,-317.0,32.0,-145.0,-2.0,43.0,-347.0,0.904506,0.031761,0.425236,14376.0,490.0,6936.0,-13.0,-9.0,10.0
2887.0,2813.0,2862.0,3095.0,3047.0,0.843994,0.008118,-0.536011,-0.016785,0.0,0.0,0.0,7105.0,297.0,3376.0,-304.0,37.0,-107.0,-31.0,47.0,-319.0,0.904507,0.031696,0.425234,14248.0,694.0,6956.0,7.0,4.0,6.0
2891.0,2803.0,2867.0,3119.0,3055.0,0.844116,0.00824,-0.535828,-0.016785,-1.0,0.0,0.0,7127.0,365.0,3441.0,-281.0,103.0,-45.0,-76.0,113.0,-269.0,0.904325,0.031898,0.425635,14326.0,874.0,7006.0,-7.0,7.0,14.0
2897.0,2811.0,2868.0,3125.0,3057.0,0.844177,0.008179,-0.535767,-0.016785,-1.0,0.0,0.0,7109.0,362.0,3449.0,-298.0,101.0,-39.0,-89.0,111.0,-282.0,0.904289,0.031794,0.425804,14022.0,652.0,6918.0,-20.0,6.0,20.0
2898.0,2815.0,2871.0,3127.0,3059.0,0.844055,0.007874,-0.535889,-0.016602,-1.0,-2.0,1.0,7063.0,310.0,3409.0,-345.0,55.0,-76.0,-76.0,67.0,-342.0,0.904378,0.031085,0.425466,14204.0,394.0,6560.0,-8.0,-44.0,33.0
2896.0,2809.0,2863.0,3115.0,3055.0,0.843933,0.007751,-0.536194,-0.016479,-1.0,-3.0,1.0,7102.0,282.0,3387.0,-309.0,30.0,-94.0,-45.0,40.0,-318.0,0.904768,0.030756,0.424931,14526.0,364.0,6754.0,-9.0,-52.0,34.0
2896.0,2810.0,2869.0,3119.0,3055.0,0.843689,0.007507,-0.536499,-0.016296,-1.0,-1.0,0.0,7152.0,239.0,3302.0,-262.0,-8.0,-172.0,44.0,0.0,-310.0,0.905032,0.030154,0.424189,14350.0,372.0,6310.0,-12.0,-13.0,17.0
2896.0,2815.0,2871.0,3125.0,3055.0,0.843628,0.007324,-0.536621,-0.016296,-1.0,-1.0,0.0,7173.0,209.0,3276.0,-242.0,-35.0,-197.0,75.0,-27.0,-303.0,0.905178,0.029848,0.423958,14474.0,232.0,6464.0,-19.0,-5.0,7.0
2895.0,2815.0,2871.0,3123.0,3055.0,0.843628,0.007202,-0.53656,-0.016296,-1.0,0.0,-1.0,7161.0,175.0,3259.0,-253.0,-67.0,-214.0,85.0,-59.0,-321.0,0.905079,0.02964,0.424025,14202.0,316.0,6550.0,-2.0,19.0,-8.0
2893.0,2807.0,2864.0,3117.0,3051.0,0.843689,0.007202,-0.536499,-0.016296,0.0,0.0,-1.0,7134.0,185.0,3275.0,-280.0,-57.0,-199.0,60.0,-48.0,-339.0,0.905042,0.029639,0.424194,14102.0,492.0,6648.0,1.0,22.0,-5.0
2895.0,2807.0,2867.0,3121.0,3053.0,0.843811,0.007202,-0.536316,-0.016418,-1.0,0.0,-1.0,7106.0,227.0,3332.0,-306.0,-16.0,-146.0,2.0,-5.0,-339.0,0.904862,0.029765,0.4246,14098.0,544.0,6846.0,-13.0,19.0,-2.0
2897.0,2815.0,2875.0,3127.0,3059.0,0.843872,0.007141,-0.536194,-0.016479,-2.0,0.0,-1.0,7071.0,262.0,3361.0,-340.0,18.0,-119.0,-36.0,29.0,-357.0,0.904723,0.029725,0.424837,13902.0,740.0,6882.0,-23.0,11.0,-5.0
2879.0,2815.0,2871.0,3125.0,3061.0,0.843933,0.006836,-0.536133,-0.016724,-2.0,-1.0,0.0,7063.0,246.0,3403.0,-348.0,4.0,-78.0,-77.0,15.0,-347.0,0.904692,0.02947,0.425018,14134.0,354.0,6882.0,-30.0,-13.0,6.0
2895.0,2811.0,2867.0,3119.0,3055.0,0.843872,0.006714,-0.536194,-0.016724,-1.0,-2.0,0.0,7046.0,246.0,3409.0,-365.0,6.0,-71.0,-90.0,18.0,-360.0,0.904733,0.029266,0.424851,14020.0,556.0,6876.0,-12.0,-24.0,9.0
2896.0,2813.0,2837.0,3117.0,3051.0,0.843689,0.006531,-0.536499,-0.016724,-1.0,-2.0,0.0,7148.0,254.0,3394.0,-266.0,16.0,-81.0,-39.0,24.0,-274.0,0.905058,0.028964,0.424217,14818.0,386.0,6702.0,-22.0,-23.0,11.0
2895.0,2814.0,2875.0,3127.0,3059.0,0.843689,0.00647,-0.536438,-0.016724,-1.0,0.0,0.0,7194.0,226.0,3373.0,-219.0,-10.0,-102.0,0.0,-3.0,-241.0,0.904957,0.028859,0.424283,14538.0,286.0,6604.0,-8.0,21.0,3.0
2896.0,2815.0,2875.0,3126.0,3058.0,0.843872,0.00647,-0.536255,-0.016785,-1.0,1.0,-1.0,7174.0,253.0,3347.0,-238.0,16.0,-132.0,18.0,23.0,-270.0,0.904844,0.028921,0.424791,14308.0,738.0,6682.0,-8.0,31.0,-3.0
2895.0,2807.0,2866.0,3119.0,3055.0,0.843933,0.006409,-0.536072,-0.016907,-2.0,1.0,-1.0,7142.0,271.0,3333.0,-268.0,33.0,-149.0,21.0,41.0,-304.0,0.904601,0.028943,0.425095,14048.0,590.0,6558.0,-36.0,33.0,-1.0
2896.0,2809.0,2867.0,3119.0,3054.0,0.843994,0.005981,-0.536072,-0.01709,-2.0,-1.0,-1.0,7084.0,203.0,3306.0,-327.0,-29.0,-177.0,20.0,-18.0,-371.0,0.904678,0.028419,0.425209,14066.0,258.0,6570.0,-25.0,-7.0,-2.0
2898.0,2814.0,2871.0,3123.0,3057.0,0.843933,0.00592,-0.536133,-0.017151,-1.0,-1.0,-1.0,7092.0,207.0,3311.0,-319.0,-25.0,-170.0,17.0,-15.0,-361.0,0.904717,0.028383,0.425044,14282.0,494.0,6662.0,-15.0,-16.0,-7.0
2896.0,2815.0,2874.0,3123.0,3057.0,0.843933,0.005798,-0.536133,-0.017334,-2.0,0.0,-1.0,7143.0,234.0,3356.0,-268.0,1.0,-126.0,0.0,9.0,-295.0,0.904719,0.028373,0.425052,14412.0,496.0,6806.0,-24.0,5.0,-12.0
2896.0,2807.0,2869.0,3119.0,3055.0,0.843933,0.005798,-0.536072,-0.017517,-1.0,0.0,-1.0,7166.0,234.0,3375.0,-244.0,0.0,-107.0,-6.0,7.0,-266.0,0.904614,0.028568,0.425123,14460.0,482.0,6886.0,-20.0,19.0,-17.0
2895.0,2807.0,2865.0,3120.0,3057.0,0.844116,0.005859,-0.535828,-0.017761,-1.0,0.0,-1.0,7117.0,273.0,3403.0,-291.0,36.0,-84.0,-46.0,45.0,-297.0,0.904393,0.028926,0.425702,14004.0,668.0,6946.0,-12.0,17.0,-15.0
2898.0,2819.0,2873.0,3125.0,3056.0,0.844177,0.005859,-0.535706,-0.017822,-1.0,-1.0,-1.0,7075.0,303.0,3412.0,-332.0,65.0,-77.0,-70.0,76.0,-331.0,0.904252,0.028988,0.425938,13928.0,820.0,6890.0,-16.0,-4.0,-2.0
2899.0,2815.0,2871.0,3131.0,3061.0,0.844116,0.005676,-0.535828,-0.018005,-2.0,-1.0,0.0,7097.0,307.0,3416.0,-311.0,70.0,-71.0,-66.0,80.0,-309.0,0.904397,0.028878,0.425713,14300.0,616.0,6808.0,-25.0,-19.0,10.0
2895.0,2811.0,2867.0,3119.0,3055.0,0.844055,0.005554,-0.535889,-0.018005,-2.0,-1.0,0.0,7115.0,305.0,3392.0,-294.0,70.0,-94.0,-38.0,79.0,-303.0,0.904439,0.028674,0.425546,14318.0,628.0,6650.0,-25.0,-12.0,7.0
2895.0,2813.0,2869.0,3119.0,3055.0,0.844055,0.005371,-0.53595,-0.018188,-2.0,0.0,0.0,7149.0,288.0,3334.0,-261.0,54.0,-151.0,27.0,61.0,-298.0,0.904547,0.028563,0.425489,14264.0,504.0,6450.0,-26.0,16.0,3.0
2895.0,2815.0,2875.0,3127.0,3063.0,0.844055,0.005249,-0.535889,-0.01825,-1.0,0.0,-1.0,7145.0,249.0,3305.0,-264.0,16.0,-181.0,51.0,23.0,-315.0,0.904448,0.02842,0.425558,14344.0,238.0,6512.0,-21.0,16.0,-1.0
2896.0,2815.0,2875.0,3127.0,3059.0,0.844177,0.005249,-0.535706,-0.01825,0.0,2.0,-1.0,7136.0,226.0,3277.0,-271.0,-6.0,-212.0,76.0,1.0,-335.0,0.904269,0.028415,0.42596,14072.0,560.0,6474.0,14.0,48.0,-12.0
2895.0,2811.0,2867.0,3123.0,3055.0,0.844299,0.00531,-0.535522,-0.018311,-1.0,1.0,-1.0,7113.0,251.0,3292.0,-293.0,16.0,-200.0,56.0,24.0,-349.0,0.904088,0.028578,0.426364,14078.0,622.0,6702.0,-1.0,38.0,-4.0
2897.0,2809.0,2867.0,3123.0,3057.0,0.844482,0.00531,-0.535278,-0.018311,0.0,0.0,-1.0,7057.0,201.0,3312.0,-347.0,-33.0,-185.0,18.0,-22.0,-393.0,0.903872,0.028571,0.426935,13970.0,248.0,6728.0,12.0,16.0,-2.0
2898.0,2819.0,2875.0,3123.0,3057.0,0.844482,0.005432,-0.535217,-0.018188,1.0,0.0,-1.0,7064.0,198.0,3341.0,-339.0,-36.0,-156.0,-4.0,-25.0,-374.0,0.903766,0.028644,0.426994,14252.0,438.0,6940.0,31.0,4.0,-1.0
2898.0,2821.0,2877.0,3127.0,3058.0,0.844604,0.005737,-0.535034,-0.018127,0.0,0.0,-1.0,7099.0,280.0,3400.0,-303.0,41.0,-101.0,-37.0,51.0,-315.0,0.903577,0.029089,0.427391,14332.0,762.0,6940.0,9.0,14.0,-2.0
2895.0,2811.0,2869.0,3121.0,3055.0,0.844666,0.005737,-0.534973,-0.018188,-1.0,0.0,0.0,7092.0,310.0,3408.0,-309.0,71.0,-94.0,-45.0,81.0,-317.0,0.903538,0.029153,0.427562,14110.0,796.0,6868.0,-18.0,15.0,7.0
2896.0,2813.0,2871.0,3111.0,3055.0,0.844666,0.005371,-0.534912,-0.018372,-3.0,-1.0,0.0,7116.0,251.0,3405.0,-285.0,15.0,-98.0,-32.0,24.0,-298.0,0.903446,0.028728,0.427638,14530.0,144.0,6778.0,-46.0,-7.0,7.0
2898.0,2815.0,2875.0,3121.0,3054.0,0.844666,0.005127,-0.534912,-0.018372,-1.0,0.0,-1.0,7141.0,185.0,3384.0,-260.0,-46.0,-119.0,-4.0,-37.0,-287.0,0.903455,0.028315,0.42764,14372.0,-14.0,6640.0,-21.0,11.0,-2.0
2899.0,2817.0,2874.0,3127.0,3059.0,0.844788,0.005188,-0.534729,-0.018372,0.0,1.0,-1.0,7132.0,167.0,3371.0,-267.0,-65.0,-135.0,6.0,-56.0,-300.0,0.903274,0.028413,0.428042,14250.0,582.0,6764.0,21.0,24.0,-20.0
2895.0,2811.0,2869.0,3119.0,3055.0,0.844849,0.00531,-0.534607,-0.018494,-1.0,1.0,-1.0,7113.0,207.0,3374.0,-285.0,-28.0,-134.0,-1.0,-18.0,-315.0,0.903127,0.028746,0.428278,14050.0,592.0,6748.0,-3.0,24.0,-22.0
2896.0,2815.0,2874.0,3120.0,3055.0,0.84491,0.00531,-0.534546,-0.018677,0.0,-1.0,-1.0,7073.0,181.0,3405.0,-325.0,-56.0,-104.0,-46.0,-44.0,-339.0,0.903088,0.02894,0.428454,14184.0,366.0,7012.0,10.0,-11.0,-19.0
2897.0,2818.0,2875.0,3125.0,3055.0,0.84491,0.005493,-0.534546,-0.018738,1.0,-1.0,-1.0,7092.0,219.0,3433.0,-306.0,-21.0,-76.0,-62.0,-10.0,-309.0,0.90308,0.029315,0.428454,14284.0,740.0,7030.0,26.0,-3.0,-21.0
2899.0,2801.0,2878.0,3126.0,3061.0,0.845032,0.005737,-0.534363,-0.018982,-2.0,-1.0,-1.0,7074.0,327.0,3478.0,-322.0,81.0,-35.0,-104.0,92.0,-303.0,0.902889,0.029983,0.428862,14062.0,754.0,7028.0,-26.0,-4.0,-9.0
2897.0,2815.0,2871.0,3119.0,3055.0,0.845032,0.005676,-0.534363,-0.019104,-1.0,-1.0,-1.0,7096.0,316.0,3492.0,-300.0,70.0,-21.0,-107.0,81.0,-277.0,0.90289,0.03001,0.428868,14352.0,564.0,7060.0,-20.0,-8.0,-7.0
2897.0,2813.0,2867.0,3120.0,3059.0,0.845032,0.005676,-0.534363,-0.019348,-1.0,-1.0,-1.0,7096.0,320.0,3454.0,-300.0,72.0,-59.0,-73.0,82.0,-293.0,0.902887,0.030271,0.428877,14180.0,518.0,6770.0,-18.0,-10.0,-5.0
