flex_1,flex_2,flex_3,flex_4,flex_5,Qw,Qx,Qy,Qz,GYRx,GYRy,GYRz,ACCx,ACCy,ACCz,ACCx_real,ACCy_real,ACCz_real,ACCx_world,ACCy_world,ACCz_world,GRAx,GRAy,GRAz,ACCx_raw,ACCy_raw,ACCz_raw,GYRx_raw,GYRy_raw,GYRz_raw
2903.0,2801.0,2867.0,3139.0,3031.0,1.0,0.0,0.0,0.0,0.0,0.0,0.0,0.0,0.0,0.0,0.0,0.0,0.0,0.0,0.0,0.0,0.0,0.0,0.0,0.0,0.0,0.0,0.0,0.0,0.0
2887.0,2790.0,2864.0,3165.0,3043.0,0.862183,0.00116,-0.506531,0.008362,-1.0,1.0,-1.0,7828.0,-83.0,945.0,672.0,-29.0,-3043.0,2985.0,11.0,-894.0,0.873463,-0.006471,0.486854,15424.0,-238.0,1800.0,-16.0,36.0,-1.0
2891.0,2805.0,2867.0,3150.0,3067.0,0.86084,0.001038,-0.508789,0.008484,0.0,0.0,0.0,7783.0,-139.0,965.0,606.0,-82.0,-2985.0,2908.0,-42.0,-908.0,0.875989,-0.006847,0.48225,15546.0,-324.0,2102.0,16.0,9.0,5.0
2895.0,2806.0,2881.0,3165.0,3053.0,0.860168,0.00116,-0.509888,0.008545,1.0,0.0,0.0,7772.0,-118.0,986.0,585.0,-62.0,-2945.0,2864.0,-22.0,-899.0,0.877198,-0.006719,0.479976,15468.0,-82.0,2072.0,28.0,7.0,2.0
2903.0,2815.0,2877.0,3154.0,3063.0,0.858765,0.001343,-0.512207,0.008728,0.0,-1.0,0.0,7778.0,-72.0,1042.0,571.0,-17.0,-2850.0,2778.0,22.0,-851.0,0.879754,-0.006635,0.475195,15590.0,-56.0,2206.0,11.0,-15.0,11.0
2899.0,2791.0,2859.0,3163.0,3031.0,0.858032,0.001343,-0.513489,0.008789,0.0,-2.0,0.0,7817.0,-65.0,1060.0,598.0,-9.0,-2811.0,2759.0,31.0,-801.0,0.881203,-0.006722,0.472624,15904.0,-116.0,2252.0,3.0,-23.0,14.0
2895.0,2795.0,2865.0,3157.0,3039.0,0.856689,0.001343,-0.515747,0.00885,0.0,0.0,0.0,7868.0,-55.0,1047.0,628.0,0.0,-2786.0,2755.0,40.0,-748.0,0.883694,-0.006828,0.467998,15712.0,-14.0,1940.0,2.0,14.0,4.0
2887.0,2805.0,2850.0,3167.0,3039.0,0.856018,0.001282,-0.516846,0.008789,-1.0,0.0,0.0,7858.0,-65.0,1018.0,609.0,-8.0,-2797.0,2758.0,31.0,-763.0,0.884881,-0.006891,0.465713,15626.0,-248.0,1842.0,-11.0,16.0,3.0
2885.0,2815.0,2851.0,3147.0,3054.0,0.854736,0.001221,-0.518982,0.00885,0.0,0.0,-1.0,7812.0,-118.0,971.0,544.0,-59.0,-2808.0,2742.0,-19.0,-812.0,0.887207,-0.007099,0.461309,15586.0,-330.0,1898.0,8.0,9.0,-6.0
2896.0,2799.0,2871.0,3151.0,3035.0,0.854065,0.001282,-0.520081,0.00885,0.0,0.0,-1.0,7806.0,-118.0,964.0,528.0,-60.0,-2796.0,2727.0,-20.0,-813.0,0.888388,-0.007016,0.45902,15612.0,-194.0,1932.0,10.0,11.0,-6.0
2874.0,2799.0,2885.0,3171.0,3019.0,0.852783,0.001221,-0.522156,0.008789,-1.0,0.0,-1.0,7805.0,-106.0,979.0,509.0,-47.0,-2745.0,2676.0,-9.0,-794.0,0.890593,-0.007097,0.454668,15594.0,-302.0,2018.0,-16.0,8.0,-4.0
2882.0,2811.0,2871.0,3153.0,3043.0,0.852173,0.00116,-0.523193,0.008728,-1.0,0.0,-1.0,7791.0,-121.0,998.0,486.0,-62.0,-2709.0,2636.0,-25.0,-792.0,0.891723,-0.007156,0.452542,15466.0,-300.0,2092.0,-7.0,3.0,-5.0
2878.0,2819.0,2855.0,3163.0,3043.0,0.85083,0.00116,-0.525391,0.008728,0.0,-1.0,-1.0,7828.0,-123.0,1035.0,503.0,-64.0,-2634.0,2581.0,-27.0,-729.0,0.894057,-0.007198,0.447951,15792.0,-200.0,2186.0,5.0,-7.0,-4.0
2885.0,2789.0,2879.0,3147.0,3025.0,0.850159,0.00116,-0.526428,0.008728,0.0,-1.0,0.0,7837.0,-101.0,1047.0,504.0,-41.0,-2604.0,2556.0,-5.0,-709.0,0.895115,-0.007218,0.445718,15712.0,-54.0,2152.0,7.0,-4.0,3.0
2896.0,2805.0,2863.0,3147.0,3059.0,0.848877,0.00116,-0.528564,0.00885,0.0,-1.0,0.0,7807.0,-79.0,1050.0,455.0,-18.0,-2565.0,2502.0,17.0,-723.0,0.897393,-0.007387,0.441289,15508.0,-86.0,2036.0,7.0,-14.0,12.0
2889.0,2815.0,2870.0,3155.0,3057.0,0.848145,0.001221,-0.529663,0.008911,0.0,-2.0,0.0,7796.0,-69.0,1035.0,435.0,-8.0,-2560.0,2490.0,27.0,-732.0,0.898483,-0.007369,0.438884,15502.0,-82.0,1950.0,7.0,-23.0,13.0
2891.0,2809.0,2863.0,3167.0,3046.0,0.84668,0.001221,-0.531982,0.008972,0.0,-2.0,0.0,7771.0,-65.0,973.0,391.0,-3.0,-2581.0,2494.0,32.0,-767.0,0.900859,-0.007479,0.43394,15516.0,-158.0,1728.0,1.0,-37.0,9.0
2885.0,2821.0,2851.0,3131.0,3025.0,0.845947,0.00116,-0.533203,0.009033,-1.0,-2.0,0.0,7783.0,-74.0,959.0,392.0,-11.0,-2575.0,2492.0,24.0,-757.0,0.902144,-0.007671,0.431401,15676.0,-214.0,1826.0,-1.0,-37.0,6.0
2895.0,2807.0,2843.0,3154.0,3055.0,0.844482,0.00116,-0.535461,0.009033,-1.0,-1.0,-1.0,7831.0,-86.0,947.0,422.0,-22.0,-2546.0,2482.0,13.0,-704.0,0.904396,-0.007715,0.426512,15768.0,-168.0,1896.0,-2.0,-8.0,-2.0
2879.0,2812.0,2891.0,3155.0,3045.0,0.843872,0.001099,-0.536438,0.008972,-1.0,0.0,-1.0,7850.0,-88.0,962.0,433.0,-24.0,-2514.0,2460.0,10.0,-674.0,0.90539,-0.007772,0.424434,15782.0,-192.0,2036.0,-9.0,7.0,-4.0
2882.0,2807.0,2871.0,3167.0,3039.0,0.842712,0.001038,-0.538269,0.008911,-1.0,0.0,-1.0,7829.0,-100.0,1006.0,396.0,-35.0,-2438.0,2378.0,-1.0,-665.0,0.90723,-0.007844,0.420509,15524.0,-270.0,2168.0,-1.0,8.0,-3.0
2875.0,2823.0,2851.0,3123.0,3059.0,0.842102,0.001038,-0.539185,0.008911,0.0,-1.0,0.0,7818.0,-89.0,1024.0,378.0,-24.0,-2404.0,2341.0,8.0,-662.0,0.908115,-0.007862,0.418494,15646.0,-64.0,2134.0,5.0,-9.0,3.0
2881.0,2800.0,2837.0,3139.0,3035.0,0.84082,0.001038,-0.541199,0.008911,-1.0,-1.0,0.0,7823.0,-69.0,1006.0,367.0,-4.0,-2386.0,2323.0,28.0,-654.0,0.91012,-0.007901,0.414161,15550.0,-252.0,1866.0,-12.0,-14.0,7.0
2895.0,2806.0,2865.0,3175.0,3051.0,0.840149,0.000916,-0.542236,0.008911,-1.0,-2.0,0.0,7810.0,-80.0,981.0,345.0,-13.0,-2393.0,2322.0,18.0,-671.0,0.911135,-0.008126,0.411909,15592.0,-184.0,1808.0,-10.0,-23.0,3.0
2886.0,2815.0,2865.0,3167.0,3055.0,0.838867,0.000793,-0.54425,0.008789,-1.0,0.0,-1.0,7837.0,-104.0,931.0,356.0,-36.0,-2407.0,2343.0,-4.0,-655.0,0.913122,-0.008236,0.407566,15636.0,-256.0,1714.0,-14.0,4.0,-4.0
2887.0,2800.0,2853.0,3135.0,3027.0,0.838257,0.000732,-0.545166,0.008728,-1.0,0.0,-1.0,7836.0,-102.0,911.0,348.0,-34.0,-2411.0,2345.0,-3.0,-659.0,0.913991,-0.008289,0.405544,15724.0,-204.0,1730.0,-14.0,11.0,-6.0
2894.0,2815.0,2879.0,3143.0,3047.0,0.837219,0.000671,-0.546814,0.008667,-1.0,1.0,-1.0,7796.0,-91.0,929.0,295.0,-22.0,-2364.0,2283.0,7.0,-680.0,0.915618,-0.008354,0.402005,15370.0,-88.0,1996.0,-5.0,23.0,-6.0
2895.0,2807.0,2867.0,3159.0,3051.0,0.83667,0.000671,-0.547607,0.008606,-1.0,0.0,-1.0,7780.0,-90.0,962.0,273.0,-21.0,-2316.0,2231.0,7.0,-676.0,0.916345,-0.008302,0.400216,15528.0,-240.0,2150.0,-7.0,5.0,-3.0
2884.0,2814.0,2864.0,3163.0,3051.0,0.83551,0.000732,-0.549377,0.008667,0.0,-1.0,0.0,7819.0,-65.0,1018.0,298.0,2.0,-2228.0,2163.0,30.0,-609.0,0.918034,-0.008299,0.396336,15716.0,48.0,2198.0,13.0,-2.0,3.0
2867.0,2773.0,2855.0,3147.0,3059.0,0.834961,0.000793,-0.550232,0.008667,0.0,-1.0,0.0,7821.0,-37.0,1042.0,293.0,30.0,-2189.0,2126.0,57.0,-594.0,0.918858,-0.008213,0.394479,15664.0,86.0,2210.0,8.0,-11.0,7.0
2882.0,2795.0,2863.0,3151.0,3043.0,0.83374,0.000732,-0.552063,0.008667,-1.0,-1.0,0.0,7846.0,-30.0,1036.0,304.0,38.0,-2162.0,2108.0,65.0,-564.0,0.920567,-0.008348,0.390424,15764.0,-106.0,1994.0,-10.0,-13.0,9.0
2895.0,2815.0,2875.0,3159.0,3055.0,0.833191,0.000671,-0.552917,0.008667,-1.0,-1.0,0.0,7844.0,-42.0,1007.0,296.0,27.0,-2176.0,2119.0,54.0,-573.0,0.921383,-0.008465,0.388564,15660.0,-186.0,1812.0,-12.0,-1.0,0.0
2885.0,2820.0,2868.0,3163.0,3025.0,0.832031,0.000488,-0.554626,0.008606,-1.0,0.0,0.0,7806.0,-90.0,937.0,245.0,-18.0,-2214.0,2137.0,8.0,-625.0,0.922942,-0.008734,0.384739,15432.0,-312.0,1652.0,-14.0,9.0,0.0
2885.0,2803.0,2859.0,3159.0,3027.0,0.831482,0.000427,-0.555481,0.008545,-1.0,0.0,-1.0,7781.0,-117.0,914.0,213.0,-45.0,-2222.0,2134.0,-19.0,-653.0,0.923752,-0.008783,0.382876,15402.0,-418.0,1724.0,-11.0,4.0,-2.0
2882.0,2805.0,2867.0,3163.0,3030.0,0.830322,0.000366,-0.55719,0.008667,0.0,-1.0,0.0,7778.0,-135.0,937.0,197.0,-60.0,-2168.0,2081.0,-34.0,-638.0,0.925301,-0.00905,0.379049,15644.0,-166.0,2024.0,18.0,-1.0,1.0
2883.0,2810.0,2939.0,3153.0,3043.0,0.829834,0.000488,-0.557983,0.008728,0.0,0.0,0.0,7798.0,-110.0,973.0,211.0,-36.0,-2118.0,2041.0,-10.0,-603.0,0.926076,-0.00893,0.377355,15768.0,-38.0,2206.0,18.0,1.0,1.0
2891.0,2811.0,2867.0,3164.0,3047.0,0.828857,0.00061,-0.559387,0.008728,0.0,0.0,0.0,7844.0,-74.0,1024.0,247.0,-2.0,-2041.0,1985.0,23.0,-534.0,0.927315,-0.008753,0.374166,15714.0,-66.0,2134.0,7.0,22.0,1.0
2893.0,2807.0,2862.0,3159.0,3199.0,0.828369,0.00061,-0.560059,0.008789,0.0,0.0,0.0,7848.0,-59.0,1029.0,246.0,13.0,-2023.0,1968.0,38.0,-525.0,0.927881,-0.008834,0.372607,15748.0,-30.0,2056.0,8.0,21.0,2.0
2885.0,2815.0,2863.0,3416.0,3039.0,0.827942,0.00061,-0.56073,0.008789,-1.0,0.0,0.0,7853.0,-47.0,1011.0,246.0,25.0,-2029.0,1974.0,50.0,-524.0,0.928514,-0.008846,0.371147,15742.0,-2.0,1892.0,-3.0,19.0,6.0
2886.0,2813.0,2871.0,3163.0,3039.0,0.826965,0.000488,-0.562195,0.008728,-1.0,0.0,0.0,7793.0,-96.0,954.0,175.0,-22.0,-2059.0,1979.0,2.0,-594.0,0.92984,-0.009006,0.367885,15242.0,-492.0,1740.0,-14.0,13.0,8.0
2886.0,2807.0,2871.0,3151.0,3033.0,0.826416,0.000366,-0.562988,0.008789,0.0,-1.0,0.0,7774.0,-139.0,945.0,151.0,-62.0,-2053.0,1966.0,-38.0,-610.0,0.930532,-0.009291,0.366085,15546.0,-506.0,1904.0,4.0,-11.0,6.0
2887.0,2807.0,2867.0,3159.0,3047.0,0.825317,0.000427,-0.564636,0.008972,0.0,-1.0,-1.0,7790.0,-115.0,985.0,154.0,-37.0,-1983.0,1904.0,-13.0,-574.0,0.932016,-0.009427,0.362415,15634.0,32.0,2118.0,10.0,-8.0,-2.0
2891.0,2815.0,2870.0,3153.0,3039.0,0.824768,0.000427,-0.565369,0.00885,-1.0,-1.0,-1.0,7816.0,-98.0,998.0,176.0,-21.0,-1956.0,1887.0,2.0,-541.0,0.932604,-0.009302,0.360679,15804.0,-178.0,2014.0,-13.0,0.0,-7.0
2887.0,2810.0,2871.0,3159.0,3043.0,0.823853,0.000366,-0.566711,0.008728,-1.0,0.0,-1.0,7830.0,-112.0,1017.0,180.0,-35.0,-1912.0,1850.0,-12.0,-515.0,0.93378,-0.009289,0.357647,15610.0,-244.0,2036.0,-7.0,16.0,-15.0
2883.0,2809.0,2867.0,3157.0,3051.0,0.823425,0.000366,-0.567383,0.008606,-1.0,0.0,-1.0,7822.0,-114.0,1017.0,167.0,-38.0,-1900.0,1835.0,-15.0,-520.0,0.934401,-0.009163,0.35618,15582.0,-254.0,2054.0,-6.0,11.0,-18.0
2887.0,2807.0,2870.0,3159.0,3047.0,0.822388,0.000488,-0.568848,0.008606,0.0,-2.0,-1.0,7776.0,-114.0,1000.0,111.0,-40.0,-1890.0,1808.0,-18.0,-562.0,0.935635,-0.008988,0.352808,15556.0,-166.0,2010.0,19.0,-26.0,-6.0
2879.0,2807.0,2871.0,3155.0,3039.0,0.821838,0.00061,-0.569702,0.008606,1.0,-2.0,-1.0,7798.0,-86.0,1013.0,126.0,-13.0,-1861.0,1787.0,8.0,-534.0,0.936417,-0.008802,0.350931,15740.0,58.0,2130.0,31.0,-27.0,-10.0
2885.0,2809.0,2875.0,3167.0,3047.0,0.82074,0.000916,-0.571228,0.008606,0.0,-2.0,-1.0,7805.0,-20.0,1003.0,123.0,48.0,-1842.0,1769.0,70.0,-524.0,0.937675,-0.008329,0.347385,15590.0,132.0,1948.0,10.0,-24.0,-1.0
2887.0,2811.0,2869.0,3154.0,3039.0,0.820129,0.000977,-0.572083,0.008606,0.0,-2.0,0.0,7800.0,-24.0,993.0,112.0,43.0,-1836.0,1760.0,65.0,-529.0,0.93838,-0.008245,0.345407,15540.0,-94.0,1846.0,5.0,-28.0,2.0
2887.0,2806.0,2859.0,3159.0,3045.0,0.81897,0.001099,-0.57373,0.008667,0.0,-1.0,0.0,7857.0,-20.0,967.0,158.0,46.0,-1831.0,1773.0,69.0,-477.0,0.939755,-0.008146,0.341619,15894.0,-42.0,1786.0,5.0,-10.0,0.0
2882.0,2811.0,2867.0,3159.0,3045.0,0.818481,0.001099,-0.574402,0.008667,0.0,0.0,0.0,7856.0,-21.0,952.0,153.0,45.0,-1833.0,1774.0,68.0,-479.0,0.940294,-0.008158,0.340048,15630.0,-16.0,1770.0,2.0,7.0,1.0
2881.0,2813.0,2874.0,3152.0,3051.0,0.817627,0.001099,-0.575684,0.008545,-1.0,0.0,-1.0,7843.0,-56.0,925.0,130.0,9.0,-1837.0,1772.0,32.0,-497.0,0.941408,-0.008042,0.337174,15614.0,-348.0,1752.0,-7.0,22.0,-2.0
2880.0,2807.0,2869.0,3157.0,3045.0,0.8172,0.001038,-0.576294,0.008606,0.0,1.0,-1.0,7819.0,-93.0,917.0,102.0,-25.0,-1833.0,1761.0,-2.0,-519.0,0.941912,-0.008223,0.335774,15514.0,-400.0,1790.0,5.0,27.0,-2.0
2883.0,2804.0,2861.0,3155.0,3045.0,0.816345,0.001221,-0.577515,0.008789,1.0,-1.0,0.0,7772.0,-110.0,960.0,47.0,-43.0,-1767.0,1682.0,-20.0,-543.0,0.942924,-0.008159,0.332972,15604.0,-88.0,2196.0,39.0,-4.0,3.0
2891.0,2815.0,2875.0,3159.0,3047.0,0.815857,0.001404,-0.578125,0.008911,1.0,-1.0,0.0,7793.0,-82.0,998.0,64.0,-16.0,-1717.0,1641.0,6.0,-508.0,0.94336,-0.008013,0.331471,15714.0,34.0,2210.0,38.0,-7.0,4.0
2879.0,2813.0,2875.0,3152.0,3047.0,0.815002,0.001526,-0.579407,0.008972,-1.0,-1.0,0.0,7845.0,-11.0,1059.0,107.0,53.0,-1632.0,1575.0,75.0,-435.0,0.944463,-0.00791,0.328595,15810.0,70.0,2232.0,-11.0,-3.0,11.0
2883.0,2807.0,2870.0,3157.0,3043.0,0.814575,0.001404,-0.580017,0.008972,-2.0,-1.0,0.0,7851.0,-25.0,1056.0,109.0,41.0,-1624.0,1569.0,63.0,-428.0,0.94496,-0.008121,0.327191,15692.0,-170.0,2062.0,-26.0,-1.0,11.0
2887.0,2805.0,2870.0,3159.0,3051.0,0.81366,0.00116,-0.581299,0.00885,-1.0,0.0,-1.0,7853.0,-88.0,1006.0,103.0,-19.0,-1649.0,1593.0,2.0,-437.0,0.945979,-0.008402,0.324211,15636.0,-394.0,1940.0,-21.0,9.0,-5.0
2883.0,2809.0,2865.0,3159.0,3039.0,0.813232,0.001099,-0.581848,0.008789,-1.0,0.0,-1.0,7822.0,-116.0,979.0,69.0,-46.0,-1665.0,1598.0,-25.0,-471.0,0.946375,-0.008441,0.322876,15456.0,-358.0,1852.0,-5.0,8.0,-6.0
2887.0,2811.0,2877.0,3163.0,3050.0,0.812317,0.001099,-0.58313,0.008789,0.0,-1.0,-1.0,7784.0,-143.0,961.0,22.0,-73.0,-1659.0,1579.0,-52.0,-509.0,0.947392,-0.008465,0.319894,15450.0,-304.0,1948.0,16.0,-4.0,-10.0
2886.0,2813.0,2871.0,3155.0,3045.0,0.81189,0.001221,-0.58374,0.00885,1.0,-1.0,-1.0,7779.0,-125.0,967.0,13.0,-56.0,-1642.0,1561.0,-35.0,-510.0,0.947887,-0.00835,0.318489,15576.0,-144.0,2000.0,25.0,-8.0,-14.0
2891.0,2807.0,2865.0,3153.0,3039.0,0.811035,0.001526,-0.5849,0.008789,0.0,0.0,-1.0,7820.0,-59.0,1001.0,47.0,4.0,-1585.0,1518.0,24.0,-455.0,0.948776,-0.007806,0.315745,15730.0,134.0,2012.0,12.0,1.0,-11.0
2891.0,2811.0,2874.0,3167.0,3049.0,0.810608,0.001587,-0.58551,0.008728,-1.0,0.0,-1.0,7852.0,-33.0,1012.0,75.0,29.0,-1563.0,1506.0,49.0,-420.0,0.949266,-0.007648,0.314337,15934.0,30.0,2066.0,-8.0,3.0,-8.0
2887.0,2815.0,2874.0,3165.0,3047.0,0.809875,0.001526,-0.586487,0.008606,-1.0,0.0,-1.0,7825.0,-49.0,990.0,42.0,13.0,-1565.0,1499.0,33.0,-448.0,0.949989,-0.007623,0.312003,15366.0,-140.0,1870.0,-14.0,20.0,-2.0
2890.0,2799.0,2865.0,3159.0,3039.0,0.809448,0.001465,-0.587097,0.008545,-1.0,-1.0,0.0,7797.0,-65.0,974.0,10.0,-2.0,-1570.0,1495.0,17.0,-478.0,0.950475,-0.007662,0.310594,15474.0,-254.0,1860.0,-15.0,-3.0,3.0
2878.0,2811.0,2867.0,3163.0,3047.0,0.808594,0.001404,-0.588318,0.008667,0.0,-1.0,0.0,7792.0,-81.0,982.0,-2.0,-16.0,-1539.0,1463.0,3.0,-475.0,0.951445,-0.007928,0.307779,15528.0,-28.0,2048.0,16.0,-7.0,5.0
2885.0,2820.0,2877.0,3163.0,3047.0,0.808167,0.001465,-0.588867,0.008667,-1.0,-1.0,0.0,7798.0,-42.0,999.0,0.0,22.0,-1511.0,1437.0,40.0,-463.0,0.951831,-0.00784,0.306441,15692.0,126.0,2122.0,0.0,-12.0,8.0
2883.0,2807.0,2867.0,3155.0,3043.0,0.807373,0.001282,-0.589966,0.008667,-1.0,0.0,0.0,7837.0,-54.0,1003.0,32.0,12.0,-1486.0,1425.0,30.0,-421.0,0.952667,-0.008157,0.303865,15766.0,-260.0,1960.0,-10.0,10.0,9.0
2885.0,2813.0,2873.0,3163.0,3054.0,0.807007,0.001282,-0.590454,0.008667,0.0,0.0,0.0,7851.0,-72.0,998.0,43.0,-5.0,-1481.0,1424.0,13.0,-407.0,0.953023,-0.008166,0.302697,15816.0,-238.0,2022.0,9.0,21.0,0.0
2887.0,2807.0,2871.0,3155.0,3046.0,0.806396,0.001465,-0.591309,0.008789,0.0,0.0,0.0,7822.0,-68.0,987.0,9.0,-2.0,-1476.0,1410.0,16.0,-435.0,0.953684,-0.008032,0.300705,15548.0,-202.0,1958.0,15.0,22.0,0.0
2883.0,2815.0,2878.0,3159.0,3046.0,0.80603,0.001526,-0.591797,0.00885,0.0,0.0,0.0,7792.0,-63.0,984.0,-23.0,2.0,-1469.0,1394.0,20.0,-461.0,0.954039,-0.008015,0.299537,15392.0,-70.0,1988.0,20.0,11.0,2.0
2893.0,2815.0,2871.0,3159.0,3053.0,0.805237,0.001648,-0.592834,0.008911,0.0,-1.0,0.0,7810.0,-50.0,1015.0,-11.0,14.0,-1418.0,1350.0,32.0,-431.0,0.954774,-0.007912,0.29703,15720.0,-88.0,2086.0,14.0,-5.0,4.0
2883.0,2815.0,2875.0,3157.0,3045.0,0.804871,0.001709,-0.593384,0.008972,0.0,-1.0,0.0,7816.0,-50.0,1016.0,-9.0,14.0,-1407.0,1341.0,32.0,-424.0,0.955225,-0.007897,0.29579,15666.0,-100.0,2030.0,10.0,-8.0,7.0
2879.0,2815.0,2871.0,3157.0,3047.0,0.804016,0.001648,-0.594482,0.009094,0.0,-1.0,0.0,7835.0,-84.0,1017.0,3.0,-17.0,-1384.0,1324.0,1.0,-402.0,0.955977,-0.008163,0.293113,15726.0,-304.0,1970.0,6.0,-10.0,8.0
2883.0,2814.0,2879.0,3163.0,3047.0,0.803589,0.001648,-0.595093,0.009155,0.0,-1.0,0.0,7838.0,-104.0,1016.0,2.0,-36.0,-1373.0,1314.0,-17.0,-398.0,0.95645,-0.008248,0.291701,15670.0,-296.0,1974.0,12.0,-9.0,3.0
2887.0,2815.0,2877.0,3167.0,3039.0,0.802917,0.001709,-0.596069,0.009155,-1.0,0.0,-1.0,7863.0,-103.0,999.0,21.0,-36.0,-1372.0,1319.0,-16.0,-376.0,0.95722,-0.00817,0.289459,15796.0,-244.0,1898.0,0.0,19.0,-10.0
2883.0,2811.0,2879.0,3167.0,3047.0,0.802612,0.001709,-0.596436,0.009155,0.0,1.0,-1.0,7864.0,-116.0,989.0,20.0,-49.0,-1374.0,1322.0,-29.0,-376.0,0.957444,-0.008178,0.288532,15716.0,-300.0,1946.0,2.0,35.0,-13.0
2883.0,2813.0,2871.0,3163.0,3051.0,0.802002,0.001831,-0.597229,0.009094,0.0,0.0,-1.0,7785.0,-103.0,973.0,-62.0,-38.0,-1374.0,1299.0,-19.0,-452.0,0.957991,-0.007926,0.286604,15434.0,-84.0,2004.0,8.0,11.0,-10.0
2894.0,2819.0,2867.0,3163.0,3039.0,0.801697,0.001892,-0.597656,0.009094,0.0,0.0,-1.0,7773.0,-87.0,984.0,-77.0,-22.0,-1355.0,1276.0,-4.0,-460.0,0.958313,-0.007837,0.285604,15472.0,-90.0,2056.0,9.0,4.0,-9.0
2879.0,2814.0,2882.0,3167.0,3039.0,0.800903,0.002136,-0.598694,0.009094,0.0,-1.0,-1.0,7788.0,-73.0,1021.0,-68.0,-11.0,-1298.0,1225.0,6.0,-432.0,0.959031,-0.007468,0.28309,15668.0,-116.0,2214.0,20.0,-11.0,-14.0
2891.0,2815.0,2865.0,3155.0,3047.0,0.800537,0.002258,-0.599182,0.009094,1.0,-1.0,-1.0,7790.0,-74.0,1020.0,-69.0,-14.0,-1289.0,1217.0,3.0,-429.0,0.959376,-0.007283,0.281918,15614.0,-152.0,2010.0,23.0,-17.0,-10.0
2895.0,2814.0,2874.0,3159.0,3051.0,0.799805,0.002502,-0.60022,0.009094,0.0,-1.0,-1.0,7842.0,-65.0,1039.0,-23.0,-8.0,-1250.0,1193.0,10.0,-371.0,0.960163,-0.006914,0.2795,15764.0,-104.0,2018.0,21.0,-3.0,-16.0
2883.0,2807.0,2866.0,3171.0,3039.0,0.799438,0.002625,-0.600647,0.009094,0.0,0.0,-1.0,7844.0,-52.0,1029.0,-23.0,3.0,-1251.0,1194.0,21.0,-370.0,0.960408,-0.006729,0.278401,15686.0,-18.0,1954.0,14.0,5.0,-16.0
2896.0,2815.0,2875.0,3175.0,3067.0,0.798767,0.002808,-0.601501,0.009033,0.0,0.0,-1.0,7819.0,-62.0,998.0,-53.0,-9.0,-1265.0,1201.0,9.0,-400.0,0.96097,-0.006382,0.276299,15462.0,-188.0,1934.0,13.0,14.0,-11.0
2890.0,2807.0,2870.0,3167.0,3047.0,0.798462,0.00293,-0.60199,0.009033,0.0,-1.0,-1.0,7788.0,-69.0,984.0,-87.0,-18.0,-1270.0,1197.0,0.0,-433.0,0.961385,-0.006197,0.275223,15424.0,-166.0,1898.0,20.0,0.0,-8.0
2883.0,2809.0,2875.0,3155.0,3047.0,0.797729,0.003235,-0.602905,0.009216,1.0,-1.0,-1.0,7794.0,-71.0,990.0,-86.0,-22.0,-1246.0,1175.0,-2.0,-422.0,0.96197,-0.005952,0.272952,15688.0,-144.0,2002.0,45.0,-6.0,-3.0
2886.0,2813.0,2865.0,3159.0,3037.0,0.797424,0.003418,-0.603333,0.009399,2.0,-1.0,-1.0,7795.0,-42.0,996.0,-88.0,6.0,-1231.0,1160.0,25.0,-419.0,0.962288,-0.005891,0.271952,15566.0,152.0,2020.0,50.0,-3.0,-1.0
2893.0,2815.0,2871.0,3159.0,3035.0,0.796692,0.003784,-0.604309,0.00946,0.0,-1.0,0.0,7819.0,12.0,1000.0,-69.0,56.0,-1208.0,1143.0,76.0,-392.0,0.962968,-0.005404,0.269604,15788.0,2.0,1978.0,8.0,-7.0,4.0
2875.0,2801.0,2863.0,3155.0,3051.0,0.796387,0.003784,-0.604736,0.00946,0.0,0.0,0.0,7851.0,8.0,1003.0,-40.0,52.0,-1197.0,1141.0,72.0,-360.0,0.96328,-0.005415,0.268601,15890.0,-6.0,2004.0,4.0,7.0,2.0
2879.0,2811.0,2867.0,3167.0,3047.0,0.795837,0.003845,-0.605408,0.009338,-1.0,1.0,-1.0,7872.0,-2.0,965.0,-22.0,40.0,-1221.0,1169.0,61.0,-347.0,0.963684,-0.005187,0.266911,15826.0,-44.0,1796.0,-9.0,38.0,-13.0
2887.0,2807.0,2873.0,3161.0,3033.0,0.795654,0.003845,-0.605652,0.009277,-1.0,2.0,-1.0,7875.0,-19.0,961.0,-20.0,22.0,-1220.0,1169.0,42.0,-344.0,0.96385,-0.005119,0.266323,15696.0,-108.0,1824.0,-15.0,54.0,-15.0
2890.0,2800.0,2885.0,3159.0,3055.0,0.795349,0.003723,-0.606079,0.009094,-1.0,2.0,-1.0,7853.0,-69.0,955.0,-45.0,-27.0,-1218.0,1162.0,-6.0,-366.0,0.964157,-0.005101,0.265317,15512.0,-398.0,2074.0,-12.0,64.0,-11.0
2883.0,2815.0,2859.0,3152.0,3039.0,0.795227,0.003784,-0.606201,0.009094,0.0,2.0,-1.0,7746.0,-81.0,972.0,-152.0,-39.0,-1198.0,1115.0,-20.0,-463.0,0.964204,-0.005007,0.264975,14782.0,-108.0,2036.0,18.0,51.0,-5.0
2891.0,2813.0,2875.0,3167.0,3050.0,0.794678,0.003784,-0.606934,0.009216,-1.0,-1.0,0.0,7756.0,-7.0,1083.0,-146.0,35.0,-1073.0,995.0,51.0,-423.0,0.964703,-0.005173,0.263215,15866.0,168.0,2492.0,-7.0,-21.0,20.0
2879.0,2815.0,2837.0,3151.0,3051.0,0.794373,0.003723,-0.6073,0.009216,-1.0,-1.0,1.0,7803.0,8.0,1120.0,-101.0,51.0,-1028.0,964.0,67.0,-367.0,0.964913,-0.005279,0.262286,15822.0,70.0,2330.0,-18.0,-6.0,23.0
2869.0,2799.0,2879.0,3170.0,3031.0,0.793823,0.003479,-0.608032,0.009216,-1.0,0.0,0.0,7840.0,-26.0,1113.0,-68.0,20.0,-1021.0,967.0,36.0,-331.0,0.965404,-0.005684,0.260525,15634.0,-122.0,2106.0,-7.0,8.0,7.0
2887.0,2815.0,2869.0,3175.0,3047.0,0.793579,0.003479,-0.608398,0.009216,-1.0,0.0,0.0,7836.0,-34.0,1083.0,-74.0,12.0,-1044.0,988.0,28.0,-342.0,0.965689,-0.005693,0.259692,15650.0,-120.0,1980.0,-9.0,1.0,0.0
2885.0,2823.0,2879.0,3183.0,3031.0,0.793213,0.003418,-0.608826,0.009155,-1.0,0.0,-1.0,7829.0,-52.0,1037.0,-83.0,-5.0,-1081.0,1022.0,12.0,-359.0,0.965919,-0.005726,0.25859,15618.0,-238.0,1770.0,-15.0,3.0,-6.0
2877.0,2815.0,2876.0,3139.0,3061.0,0.792603,0.003296,-0.609619,0.009033,-1.0,0.0,-1.0,7802.0,-127.0,954.0,-115.0,-79.0,-1148.0,1081.0,-61.0,-405.0,0.966431,-0.005789,0.256654,15370.0,-420.0,1694.0,-2.0,11.0,-17.0
2885.0,2815.0,2887.0,3157.0,3027.0,0.792297,0.003357,-0.610046,0.009033,0.0,0.0,-2.0,7782.0,-139.0,949.0,-137.0,-92.0,-1145.0,1073.0,-74.0,-424.0,0.966737,-0.005702,0.255649,15484.0,-310.0,1890.0,11.0,7.0,-23.0
2887.0,2800.0,2864.0,3155.0,3027.0,0.791748,0.00354,-0.610779,0.00885,-1.0,0.0,-1.0,7804.0,-73.0,986.0,-119.0,-30.0,-1093.0,1027.0,-13.0,-392.0,0.967229,-0.005205,0.25388,15738.0,30.0,2122.0,-6.0,6.0,-19.0
2891.0,2800.0,2893.0,3155.0,3031.0,0.791504,0.00354,-0.611084,0.008789,-1.0,0.0,-1.0,7827.0,-58.0,1022.0,-98.0,-15.0,-1051.0,992.0,1.0,-360.0,0.967413,-0.005138,0.25312,15768.0,-36.0,2218.0,-11.0,16.0,-15.0
2899.0,2803.0,2879.0,3189.0,3043.0,0.791138,0.003662,-0.611572,0.008606,0.0,1.0,-1.0,7866.0,-35.0,1085.0,-61.0,3.0,-978.0,930.0,18.0,-305.0,0.967739,-0.004732,0.251939,15826.0,68.0,2328.0,7.0,31.0,-16.0
2879.0,2815.0,2862.0,3147.0,3051.0,0.791016,0.003784,-0.611694,0.008545,0.0,1.0,-1.0,7840.0,-15.0,1092.0,-88.0,21.0,-969.0,915.0,36.0,-329.0,0.967784,-0.004467,0.251594,15444.0,76.0,2192.0,11.0,34.0,-15.0
2902.0,2801.0,2878.0,3159.0,3031.0,0.790588,0.004211,-0.612305,0.008606,1.0,0.0,-1.0,7788.0,9.0,1088.0,-143.0,40.0,-961.0,893.0,55.0,-379.0,0.968234,-0.00388,0.250169,15452.0,226.0,2016.0,44.0,1.0,-16.0
2881.0,2811.0,2847.0,3151.0,3047.0,0.790283,0.004395,-0.612671,0.008606,1.0,-1.0,0.0,7764.0,38.0,1058.0,-169.0,67.0,-983.0,908.0,82.0,-408.0,0.968443,-0.003599,0.249237,15376.0,246.0,1904.0,26.0,-17.0,2.0
2891.0,2829.0,2885.0,3157.0,3013.0,0.789429,0.004272,-0.613708,0.008606,-2.0,-2.0,0.0,7795.0,44.0,1005.0,-143.0,75.0,-1015.0,946.0,91.0,-389.0,0.969032,-0.003817,0.246615,15832.0,-54.0,1888.0,-23.0,-27.0,22.0
2890.0,2827.0,2879.0,3187.0,3047.0,0.789124,0.00415,-0.614136,0.008667,-1.0,0.0,0.0,7823.0,-1.0,979.0,-117.0,32.0,-1033.0,971.0,48.0,-367.0,0.96933,-0.004095,0.245611,15780.0,-290.0,1816.0,-18.0,3.0,20.0
2883.0,2814.0,2875.0,3173.0,3047.0,0.788635,0.004028,-0.614746,0.008789,0.0,0.0,0.0,7813.0,-33.0,974.0,-130.0,3.0,-1025.0,962.0,19.0,-376.0,0.969692,-0.004452,0.244094,15644.0,-64.0,2090.0,9.0,21.0,5.0
2894.0,2803.0,2831.0,3152.0,3035.0,0.788513,0.004089,-0.614929,0.00885,0.0,1.0,0.0,7798.0,-27.0,996.0,-146.0,9.0,-1000.0,933.0,25.0,-385.0,0.969832,-0.004435,0.243677,15428.0,-18.0,2052.0,14.0,27.0,11.0
2882.0,2815.0,2864.0,3150.0,3037.0,0.788269,0.004089,-0.615234,0.008972,0.0,0.0,0.0,7766.0,-1.0,1025.0,-180.0,36.0,-964.0,890.0,51.0,-408.0,0.970014,-0.004593,0.242919,15394.0,176.0,2242.0,13.0,6.0,20.0
2891.0,2815.0,2855.0,3159.0,3039.0,0.78772,0.004089,-0.615906,0.009155,0.0,-1.0,1.0,7808.0,9.0,1093.0,-141.0,48.0,-883.0,821.0,62.0,-350.0,0.970397,-0.004835,0.24123,15726.0,22.0,2348.0,6.0,-15.0,24.0
2879.0,2811.0,2838.0,3159.0,3031.0,0.787476,0.004028,-0.616272,0.009216,0.0,-2.0,1.0,7799.0,10.0,1100.0,-152.0,51.0,-869.0,805.0,64.0,-356.0,0.970672,-0.005015,0.240395,15530.0,12.0,2200.0,2.0,-23.0,23.0
2884.0,2805.0,2879.0,3159.0,3051.0,0.786804,0.003906,-0.617126,0.009338,-1.0,-2.0,0.0,7842.0,-30.0,1096.0,-113.0,14.0,-856.0,804.0,28.0,-313.0,0.971188,-0.005379,0.238288,15820.0,-262.0,2086.0,-9.0,-24.0,10.0
2887.0,2823.0,2879.0,3166.0,3043.0,0.786499,0.003784,-0.617554,0.009338,-1.0,-1.0,0.0,7836.0,-77.0,1061.0,-122.0,-31.0,-882.0,828.0,-16.0,-327.0,0.971481,-0.005581,0.237281,15624.0,-454.0,1888.0,-8.0,-10.0,5.0
2883.0,2791.0,2851.0,3159.0,3039.0,0.785889,0.003723,-0.618286,0.009399,0.0,0.0,-1.0,7835.0,-126.0,982.0,-126.0,-78.0,-946.0,891.0,-62.0,-344.0,0.971878,-0.005771,0.235418,15716.0,-358.0,1798.0,4.0,9.0,-16.0
2887.0,2821.0,2883.0,3135.0,3039.0,0.785645,0.003784,-0.618591,0.009338,0.0,0.0,-1.0,7814.0,-121.0,962.0,-149.0,-75.0,-960.0,899.0,-59.0,-369.0,0.972056,-0.005607,0.234655,15464.0,-162.0,1862.0,7.0,19.0,-20.0
2879.0,2789.0,2892.0,3183.0,3071.0,0.785278,0.003906,-0.61908,0.009216,0.0,0.0,-1.0,7794.0,-104.0,986.0,-171.0,-60.0,-926.0,861.0,-45.0,-382.0,0.972372,-0.005276,0.233472,15670.0,-108.0,2066.0,7.0,11.0,-18.0
2883.0,2803.0,2862.0,3159.0,3050.0,0.785034,0.004028,-0.619324,0.009216,0.0,0.0,-1.0,7820.0,-79.0,1011.0,-146.0,-37.0,-895.0,836.0,-22.0,-350.0,0.972455,-0.005091,0.232785,15754.0,8.0,2180.0,16.0,18.0,-19.0
2871.0,2807.0,2871.0,3174.0,3025.0,0.784668,0.004333,-0.619812,0.009155,0.0,-1.0,-1.0,7797.0,-31.0,1058.0,-171.0,6.0,-839.0,776.0,19.0,-360.0,0.972773,-0.004548,0.231602,15718.0,88.0,2334.0,21.0,-4.0,-11.0
2899.0,2803.0,2879.0,3165.0,3055.0,0.784485,0.004517,-0.620056,0.009155,1.0,-1.0,-1.0,7826.0,-1.0,1076.0,-144.0,33.0,-816.0,759.0,46.0,-328.0,0.972932,-0.004267,0.23101,15798.0,172.0,2284.0,23.0,-3.0,-9.0
2879.0,2813.0,2891.0,3175.0,3063.0,0.783997,0.0047,-0.620667,0.009155,0.0,0.0,-1.0,7852.0,20.0,1067.0,-121.0,52.0,-812.0,761.0,66.0,-304.0,0.973287,-0.003996,0.229485,15900.0,-42.0,2064.0,8.0,2.0,-6.0
2887.0,2811.0,2859.0,3167.0,3049.0,0.783813,0.004822,-0.62085,0.009155,0.0,1.0,-1.0,7875.0,7.0,1048.0,-98.0,38.0,-827.0,781.0,52.0,-284.0,0.973349,-0.003809,0.22897,15852.0,-82.0,1932.0,19.0,26.0,-14.0
2878.0,2799.0,2847.0,3155.0,3047.0,0.78363,0.00531,-0.621155,0.009155,2.0,2.0,-2.0,7836.0,-61.0,988.0,-139.0,-36.0,-882.0,827.0,-19.0,-336.0,0.973609,-0.003051,0.228299,15436.0,-282.0,1850.0,58.0,55.0,-42.0
2903.0,2823.0,2899.0,3169.0,3015.0,0.783508,0.005676,-0.621277,0.009216,2.0,1.0,-2.0,7770.0,-43.0,970.0,-206.0,-22.0,-897.0,826.0,-5.0,-404.0,0.973656,-0.002557,0.227953,15152.0,70.0,1848.0,61.0,41.0,-36.0
2887.0,2799.0,2875.0,3147.0,3037.0,0.783142,0.006104,-0.621765,0.009277,0.0,-1.0,0.0,7754.0,15.0,1032.0,-224.0,31.0,-825.0,751.0,46.0,-405.0,0.973974,-0.001977,0.226768,15674.0,102.0,2328.0,16.0,-8.0,4.0
2883.0,2822.0,2887.0,3145.0,3055.0,0.782959,0.006165,-0.622009,0.009338,0.0,-1.0,0.0,7788.0,35.0,1082.0,-192.0,51.0,-770.0,705.0,66.0,-361.0,0.974131,-0.001964,0.226178,15720.0,194.0,2392.0,7.0,0.0,12.0
2879.0,2821.0,2863.0,3155.0,3055.0,0.782593,0.006104,-0.622437,0.009338,-1.0,0.0,0.0,7866.0,55.0,1142.0,-115.0,71.0,-701.0,655.0,85.0,-269.0,0.974343,-0.002072,0.225074,15998.0,96.0,2364.0,-9.0,8.0,17.0
2891.0,2815.0,2879.0,3139.0,3039.0,0.782471,0.006042,-0.622559,0.009338,-1.0,1.0,0.0,7884.0,43.0,1138.0,-98.0,60.0,-703.0,661.0,74.0,-253.0,0.974381,-0.002171,0.224732,15806.0,-14.0,2162.0,-6.0,26.0,12.0
2879.0,2807.0,2871.0,3167.0,3053.0,0.782288,0.006042,-0.622864,0.009521,0.0,1.0,0.0,7831.0,-2.0,1055.0,-153.0,17.0,-780.0,725.0,32.0,-323.0,0.974632,-0.002407,0.224069,15322.0,-40.0,1742.0,20.0,39.0,2.0
2879.0,2811.0,2879.0,3135.0,3031.0,0.782043,0.006104,-0.623047,0.009583,0.0,0.0,0.0,7766.0,-6.0,1013.0,-218.0,13.0,-817.0,747.0,28.0,-395.0,0.974616,-0.002394,0.223459,15180.0,-16.0,1810.0,13.0,10.0,1.0
2895.0,2805.0,2875.0,3166.0,3053.0,0.781799,0.006165,-0.623413,0.009583,0.0,-1.0,0.0,7722.0,-18.0,988.0,-264.0,0.0,-835.0,755.0,16.0,-443.0,0.974886,-0.002309,0.22262,15204.0,-126.0,1864.0,7.0,-12.0,3.0
2879.0,2800.0,2867.0,3151.0,3043.0,0.781189,0.006165,-0.624146,0.009705,0.0,-1.0,0.0,7750.0,-27.0,1007.0,-239.0,-6.0,-801.0,728.0,9.0,-409.0,0.975271,-0.002483,0.220755,15630.0,12.0,2068.0,5.0,-20.0,3.0
2891.0,2822.0,2877.0,3151.0,3039.0,0.780945,0.006165,-0.624451,0.009705,-1.0,-1.0,0.0,7767.0,-12.0,1042.0,-223.0,8.0,-760.0,691.0,22.0,-384.0,0.975443,-0.002492,0.219992,15616.0,80.0,2244.0,-2.0,-15.0,5.0
2895.0,2815.0,2877.0,3159.0,3055.0,0.780518,0.006104,-0.625,0.009705,-1.0,0.0,0.0,7846.0,-1.0,1110.0,-147.0,20.0,-681.0,631.0,33.0,-292.0,0.975765,-0.002603,0.21864,15968.0,2.0,2416.0,-1.0,3.0,7.0
2890.0,2815.0,2871.0,3153.0,3035.0,0.780457,0.006165,-0.625122,0.009766,0.0,1.0,0.0,7865.0,-5.0,1122.0,-129.0,16.0,-667.0,622.0,29.0,-271.0,0.975882,-0.002587,0.218392,15738.0,-20.0,2288.0,16.0,24.0,3.0
2885.0,2807.0,2882.0,3155.0,3053.0,0.780151,0.006348,-0.625488,0.009888,0.0,-1.0,0.0,7790.0,17.0,1118.0,-206.0,37.0,-663.0,601.0,50.0,-345.0,0.976077,-0.002465,0.217458,15310.0,60.0,2162.0,17.0,-10.0,8.0
2877.0,2805.0,2875.0,3163.0,3058.0,0.779846,0.006348,-0.625854,0.009949,0.0,-2.0,0.0,7782.0,21.0,1104.0,-215.0,41.0,-669.0,605.0,54.0,-354.0,0.976267,-0.002553,0.216525,15564.0,12.0,2140.0,7.0,-32.0,9.0
2895.0,2818.0,2879.0,3159.0,3051.0,0.779175,0.006348,-0.626648,0.01001,0.0,-2.0,0.0,7778.0,-22.0,1048.0,-222.0,0.0,-709.0,644.0,14.0,-368.0,0.976664,-0.002653,0.214486,15588.0,-116.0,1862.0,2.0,-40.0,6.0
2879.0,2805.0,2887.0,3151.0,3051.0,0.77887,0.006348,-0.627075,0.01001,-1.0,-2.0,-1.0,7809.0,-33.0,1025.0,-194.0,-11.0,-723.0,665.0,3.0,-343.0,0.976947,-0.002666,0.213474,15820.0,-154.0,1926.0,-6.0,-26.0,-3.0
2877.0,2800.0,2864.0,3155.0,3047.0,0.778442,0.006226,-0.627625,0.009888,-1.0,0.0,-1.0,7812.0,-54.0,998.0,-193.0,-31.0,-739.0,681.0,-16.0,-345.0,0.977262,-0.002719,0.212119,15608.0,-226.0,1944.0,-17.0,6.0,-7.0
2893.0,2819.0,2870.0,3159.0,3047.0,0.778259,0.006165,-0.627808,0.009827,-1.0,0.0,-1.0,7818.0,-68.0,1009.0,-188.0,-45.0,-724.0,668.0,-30.0,-336.0,0.977315,-0.002743,0.211604,15682.0,-192.0,2106.0,-10.0,13.0,-11.0
2879.0,2811.0,2885.0,3147.0,3054.0,0.778015,0.006165,-0.628113,0.009705,-1.0,0.0,-1.0,7795.0,-36.0,1037.0,-212.0,-14.0,-690.0,629.0,0.0,-352.0,0.977482,-0.002599,0.210838,15438.0,70.0,2124.0,-10.0,11.0,-10.0
2879.0,2803.0,2865.0,3159.0,3051.0,0.777832,0.006165,-0.628357,0.009644,-1.0,-1.0,-1.0,7780.0,-26.0,1058.0,-228.0,-5.0,-664.0,601.0,7.0,-362.0,0.977631,-0.002529,0.210245,15468.0,-36.0,2232.0,-9.0,-3.0,-6.0
2885.0,2811.0,2869.0,3173.0,3056.0,0.777405,0.006226,-0.628906,0.009583,0.0,-2.0,0.0,7792.0,15.0,1102.0,-219.0,34.0,-609.0,548.0,45.0,-341.0,0.977949,-0.002373,0.208888,15742.0,168.0,2302.0,2.0,-23.0,0.0
2879.0,2810.0,2879.0,3165.0,3051.0,0.777161,0.006287,-0.62915,0.009583,0.0,-1.0,0.0,7800.0,30.0,1093.0,-211.0,48.0,-612.0,553.0,59.0,-333.0,0.978022,-0.002286,0.208201,15634.0,148.0,2106.0,5.0,-19.0,3.0
2901.0,2805.0,2867.0,3167.0,3051.0,0.776672,0.006348,-0.629761,0.009583,0.0,-1.0,0.0,7826.0,40.0,1056.0,-188.0,58.0,-637.0,582.0,70.0,-315.0,0.978357,-0.002209,0.206673,15652.0,134.0,1964.0,5.0,-9.0,2.0
2879.0,2800.0,2881.0,3157.0,3037.0,0.776489,0.006409,-0.630066,0.009583,-1.0,-1.0,0.0,7809.0,42.0,1027.0,-207.0,59.0,-660.0,601.0,72.0,-338.0,0.978602,-0.002123,0.206003,15512.0,52.0,1842.0,-2.0,-9.0,4.0
2891.0,2818.0,2885.0,3151.0,3051.0,0.776184,0.006348,-0.630371,0.009521,-1.0,-1.0,0.0,7814.0,24.0,1006.0,-203.0,41.0,-674.0,616.0,54.0,-337.0,0.978689,-0.00215,0.205144,15706.0,-94.0,1920.0,-6.0,-16.0,6.0
2881.0,2811.0,2874.0,3151.0,3055.0,0.775818,0.006348,-0.630859,0.009644,0.0,0.0,0.0,7817.0,7.0,1000.0,-202.0,25.0,-670.0,614.0,38.0,-334.0,0.978986,-0.002318,0.203963,15536.0,88.0,2006.0,2.0,6.0,7.0
2879.0,2795.0,2882.0,3159.0,3055.0,0.775635,0.006287,-0.631042,0.009583,-1.0,0.0,0.0,7813.0,15.0,1017.0,-207.0,34.0,-649.0,592.0,46.0,-334.0,0.979037,-0.002342,0.203447,15634.0,44.0,2148.0,-12.0,2.0,7.0
2885.0,2815.0,2869.0,3159.0,3057.0,0.775391,0.006165,-0.631409,0.009644,0.0,0.0,0.0,7815.0,-22.0,1043.0,-207.0,0.0,-616.0,561.0,11.0,-327.0,0.979296,-0.002618,0.202609,15542.0,-10.0,2122.0,1.0,9.0,4.0
2886.0,2811.0,2875.0,3153.0,3071.0,0.775208,0.006165,-0.631592,0.009583,-1.0,0.0,-1.0,7817.0,-14.0,1052.0,-205.0,6.0,-603.0,548.0,17.0,-322.0,0.979348,-0.002547,0.202092,15680.0,-16.0,2160.0,-4.0,1.0,-2.0
2886.0,2807.0,2883.0,3159.0,3045.0,0.774902,0.006165,-0.631958,0.009583,0.0,-1.0,-1.0,7825.0,-32.0,1044.0,-199.0,-11.0,-603.0,550.0,0.0,-316.0,0.97953,-0.002558,0.201157,15644.0,-78.0,2086.0,1.0,-1.0,-4.0
2875.0,2781.0,2864.0,3183.0,2999.0,0.774719,0.006165,-0.632202,0.009583,0.0,-1.0,-1.0,7823.0,-34.0,1039.0,-202.0,-12.0,-604.0,551.0,0.0,-319.0,0.979676,-0.002565,0.200564,15656.0,-38.0,2072.0,4.0,-2.0,-1.0
2896.0,2803.0,2839.0,3158.0,3031.0,0.774414,0.006226,-0.632568,0.00946,-1.0,0.0,-1.0,7821.0,-18.0,1038.0,-205.0,1.0,-597.0,543.0,12.0,-320.0,0.979857,-0.002326,0.199625,15584.0,-74.0,2042.0,-13.0,10.0,-8.0
2896.0,2805.0,2854.0,3165.0,3031.0,0.774292,0.006165,-0.63269,0.00946,0.0,0.0,-1.0,7810.0,-39.0,1039.0,-217.0,-19.0,-593.0,538.0,-7.0,-330.0,0.979891,-0.002425,0.199282,15530.0,-174.0,2060.0,2.0,8.0,-10.0
2901.0,2813.0,2865.0,3167.0,3055.0,0.774048,0.006409,-0.632996,0.009338,0.0,0.0,-1.0,7834.0,28.0,1092.0,-194.0,43.0,-534.0,483.0,53.0,-296.0,0.980057,-0.001901,0.198513,15676.0,296.0,2328.0,1.0,15.0,-11.0
2879.0,2817.0,2883.0,3167.0,3031.0,0.773987,0.006409,-0.633118,0.009277,-1.0,0.0,-1.0,7819.0,47.0,1092.0,-210.0,61.0,-532.0,478.0,71.0,-311.0,0.980168,-0.001827,0.198263,15534.0,158.0,2170.0,-13.0,13.0,-3.0
2887.0,2811.0,2871.0,3130.0,3039.0,0.773743,0.00647,-0.633423,0.009216,0.0,0.0,-1.0,7794.0,16.0,1060.0,-236.0,29.0,-557.0,498.0,39.0,-341.0,0.980332,-0.001664,0.197496,15450.0,-36.0,1944.0,12.0,10.0,-7.0
2871.0,2803.0,2877.0,3151.0,3051.0,0.77356,0.006531,-0.633606,0.009216,0.0,-1.0,-1.0,7776.0,16.0,1041.0,-255.0,28.0,-572.0,509.0,38.0,-362.0,0.980384,-0.001575,0.19698,15456.0,42.0,1966.0,15.0,-4.0,-6.0
2890.0,2815.0,2877.0,3151.0,3061.0,0.773193,0.006653,-0.634094,0.009216,0.0,-1.0,-1.0,7792.0,-6.0,1031.0,-241.0,5.0,-572.0,513.0,16.0,-348.0,0.980678,-0.0014,0.195793,15696.0,-110.0,2046.0,8.0,-6.0,-3.0
2879.0,2789.0,2855.0,3151.0,3059.0,0.77301,0.006714,-0.634277,0.009277,0.0,0.0,-1.0,7799.0,-6.0,1034.0,-235.0,5.0,-565.0,507.0,16.0,-340.0,0.98073,-0.001389,0.195278,15602.0,-12.0,2060.0,7.0,7.0,-6.0
2867.0,2796.0,2878.0,3159.0,3031.0,0.772827,0.006836,-0.634521,0.009216,0.0,0.0,-1.0,7849.0,-18.0,1059.0,-186.0,-8.0,-535.0,488.0,2.0,-286.0,0.980877,-0.00113,0.194682,15906.0,-40.0,2226.0,10.0,21.0,-10.0
2885.0,2799.0,2882.0,3151.0,3045.0,0.772766,0.006958,-0.634583,0.009216,0.0,1.0,-1.0,7840.0,-3.0,1063.0,-195.0,4.0,-530.0,481.0,14.0,-294.0,0.980896,-0.000943,0.194509,15534.0,88.0,2128.0,13.0,38.0,-15.0
2891.0,2819.0,2867.0,3152.0,3039.0,0.772705,0.006958,-0.634644,0.008972,-2.0,1.0,-1.0,7792.0,71.0,1071.0,-243.0,76.0,-520.0,461.0,86.0,-339.0,0.980909,-0.000635,0.194333,15334.0,260.0,2174.0,-34.0,23.0,-1.0
2884.0,2791.0,2867.0,3163.0,3023.0,0.772583,0.006775,-0.634827,0.00885,-3.0,-1.0,0.0,7739.0,74.0,1081.0,-297.0,80.0,-507.0,437.0,89.0,-389.0,0.981032,-0.000768,0.193912,15150.0,176.0,2202.0,-54.0,-4.0,20.0
2885.0,2815.0,2887.0,3151.0,3061.0,0.772095,0.006165,-0.635437,0.008728,-2.0,-3.0,1.0,7744.0,35.0,1108.0,-295.0,47.0,-468.0,401.0,54.0,-379.0,0.981343,-0.001573,0.192388,15764.0,-26.0,2294.0,-38.0,-53.0,30.0
2880.0,2815.0,2865.0,3158.0,3063.0,0.77179,0.005981,-0.635742,0.008728,-2.0,-2.0,1.0,7804.0,40.0,1117.0,-235.0,55.0,-452.0,397.0,62.0,-317.0,0.981423,-0.001865,0.191531,15980.0,144.0,2286.0,-27.0,-38.0,25.0
2895.0,2803.0,2883.0,3151.0,3055.0,0.771484,0.005737,-0.636169,0.008667,-1.0,0.0,0.0,7887.0,14.0,1082.0,-154.0,31.0,-478.0,439.0,39.0,-242.0,0.981689,-0.002175,0.190519,15914.0,-94.0,2006.0,-11.0,10.0,10.0
2873.0,2800.0,2883.0,3123.0,3037.0,0.771362,0.005737,-0.636292,0.008728,0.0,1.0,0.0,7883.0,2.0,1051.0,-159.0,20.0,-506.0,466.0,29.0,-252.0,0.981723,-0.002256,0.190176,15708.0,-40.0,1900.0,9.0,28.0,2.0
2879.0,2815.0,2880.0,3155.0,3055.0,0.771301,0.005798,-0.636353,0.008728,0.0,1.0,-1.0,7853.0,-3.0,1022.0,-189.0,14.0,-534.0,487.0,23.0,-287.0,0.98174,-0.002164,0.190004,15490.0,-56.0,1866.0,12.0,32.0,-4.0
2883.0,2815.0,2870.0,3147.0,3035.0,0.771118,0.005859,-0.636597,0.008728,0.0,0.0,-1.0,7765.0,-4.0,1001.0,-278.0,13.0,-550.0,487.0,22.0,-377.0,0.981885,-0.002076,0.18941,15328.0,-44.0,2050.0,1.0,4.0,-2.0
2874.0,2797.0,2887.0,3167.0,3051.0,0.770996,0.005859,-0.63678,0.008728,-1.0,-1.0,0.0,7739.0,-11.0,1024.0,-305.0,6.0,-524.0,456.0,14.0,-398.0,0.982012,-0.002081,0.188988,15314.0,-66.0,2196.0,-4.0,-11.0,4.0
2881.0,2815.0,2917.0,3167.0,3057.0,0.770569,0.005737,-0.637268,0.008728,-1.0,-2.0,0.0,7797.0,-4.0,1105.0,-249.0,14.0,-432.0,377.0,21.0,-325.0,0.982218,-0.002282,0.187709,15908.0,6.0,2398.0,-18.0,-29.0,8.0
2886.0,2809.0,2875.0,3149.0,3055.0,0.770447,0.005615,-0.637451,0.008667,-1.0,-1.0,0.0,7828.0,-12.0,1121.0,-219.0,7.0,-413.0,364.0,13.0,-292.0,0.982342,-0.002397,0.187288,15812.0,-76.0,2312.0,-14.0,-14.0,8.0
2895.0,2811.0,2870.0,3175.0,3055.0,0.770142,0.005554,-0.637756,0.008667,-1.0,-1.0,-1.0,7849.0,-22.0,1093.0,-198.0,-1.0,-434.0,389.0,6.0,-275.0,0.982422,-0.0025,0.186429,15750.0,-114.0,2082.0,-7.0,-2.0,-1.0
2881.0,2795.0,2864.0,3183.0,3061.0,0.77002,0.005554,-0.637939,0.008606,-1.0,0.0,-1.0,7825.0,-29.0,1056.0,-224.0,-9.0,-467.0,417.0,-1.0,-306.0,0.982547,-0.002426,0.186007,15490.0,-122.0,1896.0,-3.0,5.0,-3.0
2896.0,2802.0,2853.0,3150.0,3051.0,0.769714,0.005615,-0.638245,0.008606,0.0,0.0,-1.0,7792.0,-42.0,1006.0,-257.0,-22.0,-510.0,453.0,-13.0,-346.0,0.982629,-0.002341,0.185147,15424.0,-44.0,1934.0,19.0,10.0,-14.0
2875.0,2818.0,2871.0,3167.0,3047.0,0.769592,0.005737,-0.638428,0.008667,0.0,-1.0,-1.0,7762.0,-5.0,998.0,-288.0,13.0,-515.0,452.0,21.0,-378.0,0.982758,-0.002236,0.184725,15398.0,296.0,2014.0,19.0,-6.0,-8.0
2883.0,2811.0,2875.0,3151.0,3031.0,0.769226,0.005859,-0.638855,0.008606,-1.0,-1.0,0.0,7769.0,55.0,1020.0,-283.0,71.0,-484.0,422.0,79.0,-367.0,0.982949,-0.001982,0.183613,15636.0,246.0,2154.0,-4.0,-16.0,11.0
2877.0,2811.0,2864.0,3171.0,3047.0,0.769104,0.005859,-0.639038,0.008606,-1.0,-1.0,0.0,7794.0,71.0,1035.0,-259.0,87.0,-465.0,407.0,94.0,-339.0,0.983074,-0.001986,0.183191,15760.0,198.0,2120.0,-6.0,-9.0,9.0
2896.0,2811.0,2865.0,3167.0,3038.0,0.76886,0.005798,-0.639343,0.008606,-1.0,0.0,0.0,7837.0,54.0,1050.0,-217.0,71.0,-444.0,395.0,78.0,-294.0,0.983231,-0.002088,0.182426,15764.0,-24.0,2146.0,-4.0,6.0,13.0
2887.0,2827.0,2875.0,3161.0,3051.0,0.768799,0.005798,-0.639404,0.008667,0.0,0.0,0.0,7858.0,28.0,1054.0,-196.0,45.0,-439.0,394.0,52.0,-272.0,0.983247,-0.002168,0.182255,15794.0,-92.0,2136.0,8.0,20.0,12.0
2871.0,2805.0,2869.0,3139.0,3031.0,0.768799,0.005798,-0.639404,0.008728,0.0,1.0,0.0,7835.0,8.0,1044.0,-219.0,26.0,-449.0,400.0,33.0,-297.0,0.983248,-0.002246,0.182256,15462.0,-96.0,2056.0,13.0,29.0,12.0
2877.0,2807.0,2864.0,3167.0,3051.0,0.768555,0.005798,-0.639648,0.008972,0.0,-1.0,0.0,7777.0,-27.0,1036.0,-278.0,-5.0,-451.0,393.0,2.0,-355.0,0.983314,-0.002565,0.181573,15530.0,-128.0,2118.0,16.0,-7.0,16.0
2879.0,2811.0,2865.0,3163.0,3047.0,0.768433,0.005737,-0.639832,0.009094,0.0,-1.0,0.0,7784.0,-21.0,1041.0,-272.0,2.0,-443.0,386.0,9.0,-347.0,0.983439,-0.00282,0.181154,15610.0,-10.0,2100.0,2.0,-12.0,21.0
2891.0,2815.0,2874.0,3159.0,3043.0,0.768066,0.005432,-0.64032,0.009155,-2.0,-2.0,0.0,7813.0,-58.0,1065.0,-245.0,-30.0,-409.0,358.0,-23.0,-314.0,0.983716,-0.00338,0.179971,15820.0,-274.0,2274.0,-25.0,-23.0,15.0
2879.0,2800.0,2863.0,3143.0,3045.0,0.767944,0.005249,-0.640442,0.009155,-1.0,-1.0,0.0,7853.0,-77.0,1081.0,-205.0,-46.0,-390.0,347.0,-39.0,-271.0,0.983744,-0.003665,0.179629,15922.0,-274.0,2246.0,-20.0,-2.0,2.0
2885.0,2807.0,2863.0,3151.0,3056.0,0.767822,0.005188,-0.640564,0.008972,-1.0,1.0,-2.0,7839.0,-76.0,1076.0,-220.0,-47.0,-392.0,347.0,-40.0,-286.0,0.983772,-0.003528,0.179282,15584.0,-96.0,2182.0,-10.0,24.0,-23.0
2887.0,2815.0,2894.0,3153.0,3047.0,0.767822,0.005249,-0.640564,0.00885,-1.0,0.0,-2.0,7822.0,-65.0,1075.0,-237.0,-38.0,-393.0,344.0,-31.0,-303.0,0.983771,-0.003277,0.17928,15504.0,-80.0,2142.0,-10.0,22.0,-28.0
2886.0,2814.0,2881.0,3163.0,3047.0,0.767761,0.005493,-0.640686,0.008667,1.0,0.0,-2.0,7761.0,-75.0,1070.0,-298.0,-53.0,-396.0,337.0,-47.0,-363.0,0.983883,-0.002671,0.179024,15242.0,46.0,2074.0,26.0,10.0,-34.0
2886.0,2813.0,2871.0,3147.0,3043.0,0.767578,0.005676,-0.640808,0.008545,0.0,-1.0,-2.0,7750.0,-14.0,1083.0,-309.0,4.0,-379.0,317.0,9.0,-371.0,0.983838,-0.002237,0.178582,15530.0,336.0,2264.0,15.0,-16.0,-29.0
2895.0,2801.0,2859.0,3153.0,3043.0,0.767273,0.005859,-0.641235,0.008301,-1.0,-1.0,-1.0,7805.0,53.0,1097.0,-256.0,66.0,-357.0,304.0,71.0,-315.0,0.984102,-0.001654,0.17756,15790.0,238.0,2144.0,-8.0,-15.0,-3.0
2887.0,2802.0,2870.0,3159.0,3055.0,0.767151,0.005859,-0.641357,0.00824,-1.0,-1.0,-1.0,7824.0,54.0,1086.0,-238.0,66.0,-365.0,315.0,71.0,-299.0,0.984132,-0.001579,0.177215,15734.0,64.0,2116.0,-6.0,-10.0,-3.0
2883.0,2815.0,2871.0,3159.0,3046.0,0.766907,0.005981,-0.641663,0.00824,0.0,0.0,0.0,7831.0,61.0,1051.0,-232.0,72.0,-394.0,345.0,78.0,-297.0,0.984289,-0.0014,0.176447,15598.0,140.0,1966.0,3.0,4.0,1.0
2887.0,2803.0,2871.0,3151.0,3044.0,0.766785,0.005981,-0.641785,0.008179,-1.0,0.0,0.0,7810.0,55.0,1029.0,-253.0,65.0,-413.0,360.0,71.0,-321.0,0.984319,-0.001325,0.176102,15450.0,56.0,1906.0,-3.0,6.0,5.0
2882.0,2807.0,2871.0,3155.0,3043.0,0.766663,0.00592,-0.641968,0.00824,-1.0,-1.0,0.0,7781.0,28.0,1009.0,-283.0,40.0,-430.0,372.0,47.0,-354.0,0.984443,-0.001501,0.175682,15420.0,-136.0,1888.0,-3.0,-2.0,10.0
2885.0,2820.0,2867.0,3163.0,3043.0,0.766418,0.005981,-0.642212,0.008362,0.0,0.0,0.0,7799.0,7.0,1015.0,-266.0,19.0,-418.0,364.0,25.0,-335.0,0.984506,-0.001572,0.174995,15656.0,76.0,2128.0,19.0,8.0,2.0
2881.0,2803.0,2865.0,3154.0,3039.0,0.766357,0.006042,-0.642334,0.008423,0.0,0.0,0.0,7787.0,24.0,1022.0,-278.0,36.0,-409.0,353.0,42.0,-345.0,0.984617,-0.001559,0.174745,15460.0,148.0,2068.0,8.0,10.0,7.0
2889.0,2811.0,2875.0,3157.0,3039.0,0.766174,0.005981,-0.642578,0.008484,-1.0,-1.0,0.0,7818.0,27.0,1071.0,-249.0,41.0,-355.0,305.0,46.0,-307.0,0.984755,-0.001737,0.174153,15794.0,86.0,2284.0,-3.0,-4.0,16.0
2887.0,2814.0,2879.0,3165.0,3043.0,0.766113,0.00592,-0.642639,0.008545,-1.0,0.0,0.0,7842.0,22.0,1078.0,-225.0,37.0,-347.0,301.0,42.0,-282.0,0.98477,-0.001911,0.173982,15794.0,-12.0,2120.0,-4.0,10.0,16.0
2881.0,2814.0,2877.0,3155.0,3047.0,0.765991,0.005859,-0.6427,0.008667,0.0,0.0,0.0,7835.0,-22.0,1053.0,-231.0,-4.0,-370.0,324.0,2.0,-291.0,0.984707,-0.002164,0.17372,15570.0,-194.0,1992.0,8.0,19.0,5.0
2891.0,2811.0,2870.0,3151.0,3031.0,0.76593,0.005859,-0.642822,0.008728,0.0,0.0,0.0,7812.0,-40.0,1040.0,-255.0,-21.0,-381.0,331.0,-14.0,-317.0,0.984816,-0.002245,0.17347,15450.0,-154.0,2000.0,19.0,14.0,1.0
2875.0,2814.0,2871.0,3159.0,3023.0,0.765747,0.006042,-0.643066,0.00885,0.0,-1.0,-1.0,7771.0,-50.0,1029.0,-297.0,-32.0,-387.0,330.0,-25.0,-359.0,0.984959,-0.002128,0.172876,15544.0,-164.0,2158.0,15.0,-11.0,-8.0
2891.0,2815.0,2878.0,3163.0,3054.0,0.765625,0.006104,-0.643188,0.00885,0.0,-1.0,-1.0,7791.0,-59.0,1043.0,-278.0,-42.0,-370.0,317.0,-35.0,-337.0,0.98499,-0.002039,0.172531,15718.0,-166.0,2206.0,21.0,-13.0,-14.0
2883.0,2811.0,2873.0,3159.0,3053.0,0.765442,0.006531,-0.643433,0.008911,1.0,-1.0,-2.0,7819.0,-51.0,1094.0,-251.0,-38.0,-314.0,266.0,-32.0,-301.0,0.985137,-0.00147,0.171933,15722.0,46.0,2350.0,40.0,-2.0,-37.0
2887.0,2815.0,2875.0,3178.0,3051.0,0.765381,0.006897,-0.643494,0.00885,1.0,0.0,-2.0,7845.0,-17.0,1113.0,-225.0,-10.0,-294.0,251.0,-4.0,-272.0,0.985158,-0.000832,0.171755,15838.0,176.0,2300.0,35.0,7.0,-43.0
2886.0,2810.0,2877.0,3157.0,3047.0,0.765381,0.007446,-0.643494,0.008484,0.0,1.0,-3.0,7864.0,12.0,1119.0,-206.0,8.0,-287.0,247.0,13.0,-252.0,0.985162,0.00048,0.17174,15834.0,-148.0,2284.0,12.0,28.0,-57.0
2886.0,2811.0,2875.0,3157.0,3055.0,0.765442,0.007751,-0.643372,0.008362,1.0,1.0,-3.0,7852.0,-7.0,1110.0,-217.0,-16.0,-298.0,256.0,-9.0,-265.0,0.985057,0.001107,0.171984,15476.0,-88.0,2216.0,34.0,44.0,-61.0
2887.0,2811.0,2871.0,3155.0,3047.0,0.765381,0.008423,-0.643433,0.007996,-1.0,-1.0,-2.0,7767.0,82.0,1077.0,-302.0,60.0,-330.0,271.0,67.0,-354.0,0.985077,0.002604,0.171795,15542.0,210.0,2120.0,-9.0,-5.0,-44.0
2883.0,2807.0,2870.0,3158.0,3047.0,0.765259,0.008423,-0.643616,0.007812,-2.0,-1.0,-1.0,7758.0,98.0,1044.0,-312.0,74.0,-359.0,298.0,81.0,-368.0,0.985197,0.002835,0.17137,15470.0,282.0,1922.0,-33.0,-14.0,-5.0
2881.0,2798.0,2871.0,3155.0,3046.0,0.764893,0.008179,-0.644043,0.007568,-1.0,-1.0,0.0,7795.0,48.0,1031.0,-277.0,25.0,-363.0,309.0,32.0,-334.0,0.985371,0.002763,0.17026,15748.0,-48.0,2092.0,-19.0,-12.0,0.0
2887.0,2813.0,2871.0,3159.0,3053.0,0.764832,0.008179,-0.644104,0.007568,0.0,0.0,-1.0,7814.0,40.0,1031.0,-258.0,17.0,-362.0,312.0,24.0,-315.0,0.985386,0.002761,0.170088,15726.0,66.0,2048.0,7.0,3.0,-6.0
2891.0,2815.0,2875.0,3159.0,3047.0,0.764771,0.008301,-0.644226,0.007568,0.0,1.0,0.0,7810.0,76.0,1048.0,-263.0,51.0,-343.0,292.0,58.0,-317.0,0.985496,0.002945,0.169835,15560.0,268.0,2102.0,5.0,23.0,4.0
2887.0,2807.0,2871.0,3155.0,3039.0,0.764771,0.008301,-0.644226,0.007568,-1.0,1.0,0.0,7788.0,84.0,1057.0,-285.0,59.0,-334.0,279.0,66.0,-337.0,0.985496,0.002945,0.169835,15418.0,200.0,2132.0,0.0,23.0,10.0
2887.0,2815.0,2871.0,3166.0,3039.0,0.764709,0.008301,-0.644287,0.007629,-1.0,0.0,0.0,7777.0,80.0,1057.0,-296.0,56.0,-332.0,275.0,63.0,-347.0,0.985512,0.002864,0.169664,15534.0,120.0,2154.0,-2.0,7.0,13.0
2887.0,2811.0,2874.0,3163.0,3051.0,0.764526,0.00824,-0.64447,0.007751,0.0,-1.0,0.0,7793.0,70.0,1073.0,-280.0,48.0,-312.0,258.0,54.0,-328.0,0.985557,0.002608,0.169151,15728.0,284.0,2278.0,6.0,-4.0,18.0
2879.0,2810.0,2865.0,3153.0,3037.0,0.764465,0.008179,-0.644531,0.007751,-1.0,0.0,0.0,7810.0,95.0,1083.0,-263.0,74.0,-301.0,250.0,80.0,-309.0,0.98557,0.002513,0.16898,15672.0,310.0,2196.0,-12.0,4.0,19.0
2886.0,2811.0,2869.0,3155.0,3047.0,0.764343,0.007935,-0.644653,0.00769,-1.0,0.0,0.0,7810.0,30.0,1074.0,-263.0,11.0,-307.0,257.0,17.0,-310.0,0.985595,0.002214,0.168639,15594.0,-162.0,2106.0,-19.0,5.0,12.0
2887.0,2815.0,2871.0,3158.0,3051.0,0.764282,0.007812,-0.644775,0.007751,-1.0,0.0,0.0,7816.0,12.0,1078.0,-258.0,-3.0,-301.0,253.0,3.0,-305.0,0.985702,0.001946,0.168391,15662.0,-64.0,2156.0,-7.0,6.0,4.0
2887.0,2833.0,2879.0,3163.0,3043.0,0.764221,0.007751,-0.644836,0.007751,-1.0,0.0,0.0,7788.0,15.0,1095.0,-286.0,0.0,-283.0,230.0,5.0,-329.0,0.985716,0.001851,0.16822,15424.0,76.0,2200.0,-10.0,4.0,6.0
2891.0,2805.0,2867.0,3167.0,3039.0,0.76416,0.00769,-0.644958,0.007751,-1.0,-1.0,0.0,7769.0,15.0,1102.0,-306.0,0.0,-274.0,218.0,5.0,-347.0,0.985822,0.001755,0.16797,15406.0,12.0,2252.0,-7.0,-6.0,5.0
2891.0,2815.0,2873.0,3157.0,3047.0,0.764038,0.00769,-0.645081,0.007751,0.0,-1.0,0.0,7765.0,9.0,1106.0,-311.0,-5.0,-267.0,211.0,0.0,-351.0,0.985851,0.001751,0.167626,15550.0,24.0,2250.0,5.0,-18.0,3.0
2887.0,2815.0,2878.0,3165.0,3043.0,0.763794,0.007812,-0.645386,0.007812,0.0,-1.0,0.0,7797.0,28.0,1107.0,-280.0,12.0,-259.0,208.0,17.0,-319.0,0.986006,0.00185,0.166858,15636.0,112.0,2200.0,10.0,-10.0,0.0
2883.0,2807.0,2874.0,3151.0,3043.0,0.763672,0.007812,-0.645508,0.007812,-1.0,-1.0,0.0,7805.0,46.0,1090.0,-272.0,30.0,-274.0,224.0,35.0,-313.0,0.986034,0.001846,0.166514,15700.0,184.0,2102.0,-1.0,-10.0,6.0
2889.0,2807.0,2867.0,3155.0,3047.0,0.76355,0.00769,-0.64563,0.007812,-1.0,0.0,0.0,7839.0,31.0,1067.0,-238.0,17.0,-294.0,249.0,22.0,-283.0,0.986061,0.001656,0.166172,15726.0,36.0,2082.0,-11.0,15.0,8.0
2886.0,2815.0,2879.0,3163.0,3039.0,0.76355,0.007629,-0.64563,0.007751,-2.0,0.0,0.0,7840.0,46.0,1053.0,-237.0,32.0,-308.0,263.0,38.0,-284.0,0.986059,0.001642,0.166172,15668.0,190.0,2036.0,-25.0,22.0,6.0
2891.0,2803.0,2863.0,3159.0,3047.0,0.763489,0.007263,-0.645752,0.007507,-2.0,0.0,0.0,7778.0,10.0,1047.0,-300.0,-1.0,-312.0,257.0,4.0,-347.0,0.986158,0.001395,0.165923,15308.0,-194.0,2142.0,-37.0,6.0,1.0
2887.0,2809.0,2875.0,3157.0,3047.0,0.763367,0.007141,-0.645874,0.007446,-1.0,-1.0,0.0,7764.0,-1.0,1068.0,-314.0,-11.0,-288.0,232.0,-5.0,-357.0,0.986184,0.001284,0.16558,15524.0,10.0,2280.0,-17.0,-18.0,7.0
2889.0,2807.0,2863.0,3151.0,3039.0,0.763184,0.007141,-0.646118,0.007446,-1.0,-1.0,0.0,7787.0,21.0,1127.0,-292.0,10.0,-224.0,172.0,13.0,-324.0,0.98632,0.001278,0.164985,15632.0,174.0,2428.0,0.0,-22.0,1.0
2879.0,2817.0,2871.0,3163.0,3039.0,0.763062,0.007141,-0.646301,0.007385,-1.0,-2.0,0.0,7797.0,49.0,1141.0,-283.0,37.0,-207.0,156.0,40.0,-313.0,0.986441,0.001352,0.164561,15692.0,256.0,2348.0,-7.0,-31.0,4.0
2887.0,2813.0,2869.0,3159.0,3055.0,0.762817,0.00708,-0.646545,0.007324,-1.0,-1.0,0.0,7843.0,52.0,1135.0,-238.0,41.0,-207.0,164.0,44.0,-268.0,0.986496,0.001331,0.163873,15706.0,146.0,2162.0,-7.0,-9.0,5.0
2887.0,2815.0,2866.0,3157.0,3051.0,0.762695,0.007019,-0.646667,0.007324,-1.0,-1.0,0.0,7838.0,49.0,1100.0,-243.0,38.0,-239.0,195.0,42.0,-278.0,0.986523,0.001234,0.16353,15682.0,52.0,2014.0,-5.0,-7.0,0.0
2881.0,2811.0,2879.0,3159.0,3043.0,0.762512,0.00708,-0.646851,0.007263,-1.0,0.0,0.0,7797.0,58.0,1021.0,-284.0,46.0,-314.0,262.0,51.0,-331.0,0.986566,0.001401,0.163012,15396.0,90.0,1796.0,-8.0,7.0,3.0
2885.0,2815.0,2871.0,3151.0,3056.0,0.76239,0.007019,-0.647034,0.007202,-1.0,-1.0,0.0,7783.0,43.0,985.0,-299.0,31.0,-346.0,292.0,37.0,-351.0,0.986685,0.001382,0.162589,15528.0,-52.0,1836.0,-14.0,-2.0,8.0
2895.0,2815.0,2871.0,3167.0,3039.0,0.474609,0.000854,0.059265,-1.21228,2427.0,6299.0,-26287.0,31970.0,17165.0,25748.0,32447.0,18335.0,11892.0,-18745.0,3733.0,15601.0,-0.058327,-0.142881,1.691364,15592.0,-40.0,2068.0,6.0,9.0,-3.0
2883.0,2806.0,2867.0,3157.0,3047.0,0.762207,0.006958,-0.647217,0.007263,0.0,0.0,-1.0,7793.0,17.0,1007.0,-290.0,7.0,-320.0,268.0,12.0,-338.0,0.986727,0.001205,0.162074,15720.0,156.0,2174.0,6.0,18.0,-4.0
2883.0,2807.0,2880.0,3159.0,3051.0,0.762329,0.006897,-0.647095,0.007141,-2.0,1.0,0.0,7814.0,57.0,1074.0,-269.0,46.0,-256.0,207.0,50.0,-306.0,0.986697,0.001274,0.162417,15666.0,144.0,2318.0,-26.0,31.0,11.0
2891.0,2811.0,2864.0,3157.0,3059.0,0.76239,0.006775,-0.647034,0.00708,-2.0,1.0,0.0,7816.0,54.0,1102.0,-266.0,44.0,-229.0,181.0,47.0,-299.0,0.98668,0.001168,0.16259,15644.0,82.0,2358.0,-27.0,32.0,12.0
2891.0,2814.0,2866.0,3153.0,3039.0,0.762451,0.006653,-0.646912,0.00708,-1.0,1.0,0.0,7802.0,38.0,1119.0,-279.0,29.0,-215.0,166.0,32.0,-310.0,0.986571,0.000985,0.162843,15490.0,-42.0,2348.0,-19.0,25.0,12.0
2883.0,2815.0,2873.0,3155.0,3051.0,0.76239,0.00647,-0.647034,0.007141,-1.0,-1.0,0.0,7778.0,37.0,1138.0,-304.0,31.0,-193.0,140.0,33.0,-331.0,0.986677,0.000624,0.162595,15538.0,42.0,2310.0,0.0,-12.0,14.0
2897.0,2818.0,2883.0,3159.0,3046.0,0.762329,0.00647,-0.647156,0.007202,0.0,-1.0,0.0,7780.0,22.0,1143.0,-303.0,17.0,-186.0,133.0,19.0,-329.0,0.986785,0.000542,0.162345,15526.0,-58.0,2264.0,11.0,-20.0,8.0
2897.0,2826.0,2891.0,3170.0,3055.0,0.762024,0.006653,-0.647461,0.007385,0.0,-2.0,-1.0,7811.0,21.0,1144.0,-273.0,16.0,-178.0,131.0,18.0,-298.0,0.98686,0.000576,0.161485,15892.0,52.0,2228.0,18.0,-30.0,-2.0
2887.0,2811.0,2865.0,3155.0,3039.0,0.761963,0.006714,-0.647583,0.007385,0.0,-1.0,-1.0,7842.0,23.0,1139.0,-243.0,17.0,-181.0,139.0,19.0,-269.0,0.986968,0.000666,0.161233,15752.0,50.0,2156.0,13.0,-1.0,-1.0
2885.0,2813.0,2875.0,3155.0,3037.0,0.761841,0.006714,-0.647705,0.007385,-1.0,0.0,0.0,7817.0,17.0,1077.0,-268.0,11.0,-241.0,194.0,15.0,-303.0,0.986996,0.000663,0.160889,15540.0,-64.0,1880.0,-9.0,2.0,1.0
2879.0,2806.0,2877.0,3151.0,3047.0,0.761719,0.006653,-0.647827,0.007385,-1.0,0.0,-1.0,7822.0,-9.0,1052.0,-263.0,-13.0,-263.0,217.0,-8.0,-301.0,0.987022,0.000566,0.160546,15682.0,-176.0,2026.0,-6.0,7.0,-3.0
2879.0,2814.0,2887.0,3182.0,3043.0,0.761658,0.006714,-0.647888,0.007324,0.0,0.0,-1.0,7791.0,-16.0,1027.0,-294.0,-22.0,-286.0,235.0,-17.0,-336.0,0.987036,0.000737,0.160372,15432.0,14.0,2024.0,7.0,15.0,-9.0
2881.0,2813.0,2865.0,3147.0,3043.0,0.761597,0.006775,-0.647949,0.007324,0.0,0.0,-1.0,7780.0,7.0,1045.0,-305.0,0.0,-267.0,214.0,4.0,-343.0,0.987051,0.000828,0.160199,15508.0,168.0,2252.0,3.0,2.0,-5.0
2887.0,2800.0,2875.0,3154.0,3051.0,0.761475,0.006714,-0.648071,0.007263,-1.0,-1.0,0.0,7782.0,16.0,1098.0,-304.0,9.0,-211.0,159.0,12.0,-333.0,0.987077,0.000811,0.159855,15530.0,-4.0,2342.0,-9.0,-12.0,5.0
2871.0,2811.0,2858.0,3147.0,3039.0,0.761414,0.006714,-0.648193,0.007263,0.0,-1.0,0.0,7800.0,26.0,1131.0,-287.0,19.0,-176.0,127.0,21.0,-311.0,0.987184,0.000808,0.159604,15730.0,122.0,2458.0,2.0,-19.0,2.0
2863.0,2807.0,2878.0,3167.0,3055.0,0.761292,0.006836,-0.648376,0.007263,0.0,-1.0,0.0,7825.0,63.0,1137.0,-263.0,54.0,-166.0,120.0,56.0,-286.0,0.987306,0.00099,0.159179,15682.0,300.0,2260.0,6.0,-7.0,1.0
2882.0,2805.0,2882.0,3155.0,3061.0,0.76123,0.006836,-0.648438,0.007202,-1.0,-1.0,0.0,7830.0,77.0,1126.0,-258.0,68.0,-176.0,131.0,70.0,-282.0,0.987319,0.001067,0.159006,15724.0,204.0,2164.0,-4.0,-4.0,1.0
2884.0,2800.0,2864.0,3147.0,3063.0,0.761169,0.006836,-0.648499,0.007141,-1.0,0.0,0.0,7827.0,77.0,1099.0,-261.0,67.0,-202.0,156.0,70.0,-289.0,0.987332,0.001145,0.158833,15580.0,142.0,1986.0,-9.0,4.0,2.0
2867.0,2819.0,2891.0,3135.0,3061.0,0.760986,0.006775,-0.648682,0.00708,-1.0,-1.0,0.0,7775.0,47.0,1042.0,-313.0,37.0,-254.0,200.0,41.0,-349.0,0.987372,0.001126,0.158317,15374.0,18.0,1976.0,-5.0,-2.0,2.0
2887.0,2801.0,2871.0,3171.0,3047.0,0.760925,0.006775,-0.648804,0.00708,-1.0,-1.0,0.0,7755.0,35.0,1036.0,-334.0,25.0,-258.0,201.0,29.0,-370.0,0.987478,0.001123,0.158065,15426.0,-12.0,2010.0,0.0,-13.0,5.0
2899.0,2807.0,2864.0,3175.0,3025.0,0.760681,0.006775,-0.649048,0.007202,0.0,-1.0,0.0,7778.0,34.0,1053.0,-311.0,26.0,-236.0,183.0,29.0,-344.0,0.987535,0.000958,0.157379,15600.0,142.0,2146.0,9.0,-10.0,9.0
2869.0,2815.0,2881.0,3153.0,3031.0,0.76062,0.006775,-0.649109,0.007263,0.0,-1.0,0.0,7795.0,43.0,1064.0,-295.0,35.0,-223.0,173.0,38.0,-326.0,0.987549,0.000877,0.157207,15714.0,118.0,2212.0,4.0,-9.0,8.0
2877.0,2823.0,2859.0,3147.0,3045.0,0.760498,0.006775,-0.649231,0.007324,0.0,0.0,0.0,7821.0,41.0,1091.0,-269.0,34.0,-194.0,148.0,37.0,-296.0,0.987577,0.000794,0.156864,15710.0,76.0,2248.0,1.0,3.0,8.0
2871.0,2807.0,2875.0,3153.0,3035.0,0.760498,0.006775,-0.649292,0.007324,0.0,-1.0,0.0,7824.0,35.0,1099.0,-266.0,28.0,-185.0,140.0,31.0,-291.0,0.98767,0.000793,0.156785,15668.0,10.0,2278.0,1.0,-1.0,6.0
2859.0,2823.0,2864.0,3163.0,3057.0,0.760437,0.006775,-0.649292,0.007385,0.0,0.0,0.0,7815.0,19.0,1090.0,-275.0,13.0,-193.0,147.0,16.0,-301.0,0.987591,0.000713,0.156693,15582.0,-48.0,2106.0,9.0,1.0,4.0
2887.0,2805.0,2866.0,3143.0,3051.0,0.760376,0.006897,-0.649414,0.007507,0.0,0.0,-1.0,7812.0,4.0,1071.0,-279.0,-2.0,-210.0,163.0,1.0,-308.0,0.987701,0.000738,0.156442,15538.0,10.0,2058.0,21.0,13.0,-7.0
2871.0,2831.0,2883.0,3151.0,3039.0,0.760376,0.007019,-0.649414,0.007507,0.0,0.0,-1.0,7788.0,11.0,1056.0,-303.0,3.0,-225.0,174.0,6.0,-334.0,0.987703,0.000923,0.15644,15422.0,56.0,2034.0,16.0,7.0,-9.0
2879.0,2815.0,2875.0,3181.0,3039.0,0.760254,0.007019,-0.649597,0.007446,-1.0,-1.0,-1.0,7802.0,16.0,1066.0,-290.0,7.0,-212.0,163.0,10.0,-319.0,0.987822,0.000998,0.156016,15660.0,-70.0,2188.0,-11.0,0.0,-2.0
2887.0,2805.0,2835.0,3167.0,3059.0,0.760193,0.007019,-0.649597,0.007446,-1.0,0.0,-1.0,7804.0,-3.0,1062.0,-287.0,-11.0,-215.0,167.0,-7.0,-317.0,0.987743,0.000997,0.155923,15616.0,-124.0,2070.0,-8.0,1.0,-1.0
2879.0,2800.0,2865.0,3151.0,3019.0,0.760132,0.007019,-0.649658,0.007385,0.0,0.0,-1.0,7848.0,4.0,1078.0,-243.0,-4.0,-197.0,156.0,0.0,-270.0,0.987755,0.001075,0.15575,15774.0,140.0,2242.0,3.0,19.0,-12.0
2887.0,2830.0,2877.0,3153.0,3051.0,0.760193,0.00708,-0.649597,0.007324,-1.0,1.0,-1.0,7833.0,29.0,1085.0,-258.0,18.0,-192.0,149.0,21.0,-284.0,0.987742,0.001249,0.15592,15532.0,226.0,2182.0,-3.0,23.0,-12.0
2891.0,2815.0,2887.0,3159.0,3039.0,0.760193,0.007019,-0.649658,0.007141,-1.0,0.0,0.0,7802.0,36.0,1087.0,-290.0,24.0,-189.0,140.0,27.0,-315.0,0.987831,0.001393,0.155839,15502.0,66.0,2134.0,-19.0,1.0,2.0
2879.0,2809.0,2847.0,3155.0,3023.0,0.760132,0.006958,-0.649719,0.00708,-1.0,-1.0,-1.0,7794.0,47.0,1095.0,-298.0,35.0,-180.0,130.0,38.0,-322.0,0.987843,0.001378,0.155667,15542.0,168.0,2252.0,-21.0,-9.0,-2.0
2895.0,2822.0,2877.0,3199.0,3054.0,0.47522,0.002441,0.066772,-1.21228,1289.0,-12672.0,-6373.0,27780.0,25479.0,11172.0,28348.0,26786.0,-2680.0,-4667.0,126.0,-10773.0,-0.069383,-0.159573,1.690993,15650.0,-4.0,2210.0,-14.0,-19.0,-4.0
2895.0,2823.0,2864.0,3166.0,3055.0,0.759827,0.006836,-0.650024,0.006836,-1.0,-1.0,-1.0,7829.0,28.0,1096.0,-263.0,15.0,-172.0,128.0,17.0,-286.0,0.987905,0.001501,0.154805,15902.0,62.0,2208.0,-3.0,-5.0,-11.0
2891.0,2797.0,2859.0,3159.0,3019.0,0.759888,0.00708,-0.649963,0.006775,0.0,0.0,-1.0,7823.0,37.0,1083.0,-269.0,20.0,-186.0,141.0,23.0,-294.0,0.987894,0.001953,0.154973,15528.0,94.0,2146.0,20.0,21.0,-18.0
2895.0,2815.0,2880.0,3141.0,3014.0,0.759888,0.007263,-0.649963,0.006775,1.0,0.0,-1.0,7817.0,41.0,1072.0,-275.0,22.0,-197.0,151.0,25.0,-302.0,0.987897,0.002232,0.15497,15618.0,144.0,2008.0,28.0,21.0,-17.0
2897.0,2790.0,2859.0,3142.0,3007.0,0.759949,0.00769,-0.649902,0.006836,1.0,1.0,-1.0,7786.0,65.0,1041.0,-306.0,42.0,-229.0,177.0,46.0,-337.0,0.98789,0.002803,0.155137,15398.0,272.0,1986.0,31.0,24.0,-17.0
2877.0,2800.0,2871.0,3151.0,3063.0,0.759888,0.007874,-0.649902,0.006836,0.0,0.0,-1.0,7766.0,80.0,1050.0,-326.0,54.0,-220.0,165.0,58.0,-355.0,0.987813,0.003081,0.155041,15434.0,220.0,2186.0,16.0,9.0,-14.0
2891.0,2807.0,2866.0,3181.0,3045.0,0.759827,0.007935,-0.650024,0.006836,0.0,-1.0,-1.0,7781.0,50.0,1070.0,-312.0,24.0,-198.0,146.0,28.0,-338.0,0.98792,0.003171,0.154789,15706.0,-28.0,2228.0,12.0,-6.0,-1.0
2899.0,2811.0,2866.0,3152.0,3087.0,0.759766,0.008057,-0.650085,0.006897,1.0,-1.0,-1.0,7795.0,46.0,1093.0,-298.0,19.0,-173.0,124.0,22.0,-321.0,0.987936,0.003275,0.154615,15670.0,132.0,2312.0,26.0,-2.0,-3.0
2881.0,2805.0,2853.0,3150.0,3037.0,0.759766,0.008301,-0.650085,0.006897,0.0,0.0,-1.0,7826.0,98.0,1116.0,-267.0,68.0,-150.0,105.0,71.0,-286.0,0.98794,0.003646,0.154611,15638.0,396.0,2252.0,3.0,13.0,-1.0
2878.0,2807.0,2871.0,3143.0,3057.0,0.759766,0.00824,-0.650085,0.006836,-1.0,0.0,0.0,7818.0,100.0,1112.0,-275.0,70.0,-154.0,108.0,73.0,-295.0,0.987938,0.003633,0.154612,15608.0,150.0,2220.0,-17.0,10.0,1.0
2869.0,2811.0,2887.0,3163.0,3058.0,0.477234,0.004456,0.066589,-1.21228,-23229.0,-14367.0,23558.0,14599.0,11443.0,-11177.0,15208.0,12730.0,-25045.0,-5537.0,-29190.0,20005.0,-0.07436,-0.157197,1.692922,15424.0,-18.0,2118.0,4.0,19.0,-5.0
2909.0,2815.0,2837.0,3167.0,3035.0,0.759766,0.00824,-0.650146,0.006775,0.0,0.0,-1.0,7778.0,45.0,1087.0,-315.0,14.0,-178.0,126.0,17.0,-338.0,0.98803,0.003711,0.154531,15460.0,126.0,2254.0,12.0,1.0,-1.0
2891.0,2813.0,2869.0,3153.0,3061.0,0.759705,0.008362,-0.650208,0.006897,0.0,-1.0,0.0,7767.0,68.0,1104.0,-327.0,37.0,-160.0,106.0,40.0,-347.0,0.988047,0.003736,0.154359,15488.0,166.0,2330.0,14.0,-6.0,5.0
2897.0,2813.0,2879.0,3166.0,3039.0,0.759583,0.008423,-0.650269,0.006958,0.0,-1.0,0.0,7771.0,69.0,1100.0,-322.0,38.0,-162.0,109.0,41.0,-342.0,0.987982,0.003747,0.154094,15584.0,118.0,2192.0,14.0,-14.0,6.0
2895.0,2815.0,2861.0,3157.0,3055.0,0.759521,0.008606,-0.65033,0.00708,1.0,0.0,0.0,7839.0,74.0,1122.0,-254.0,42.0,-138.0,96.0,45.0,-272.0,0.988,0.003864,0.15392,15694.0,202.0,2234.0,25.0,17.0,2.0
2890.0,2822.0,2871.0,3147.0,3039.0,0.759583,0.008728,-0.65033,0.007141,1.0,0.0,0.0,7807.0,84.0,1116.0,-287.0,51.0,-145.0,97.0,54.0,-305.0,0.988083,0.003971,0.154012,15388.0,204.0,2184.0,24.0,20.0,2.0
2885.0,2819.0,2891.0,3167.0,3039.0,0.759521,0.008789,-0.65033,0.007202,0.0,-1.0,0.0,7774.0,90.0,1102.0,-319.0,57.0,-158.0,105.0,60.0,-339.0,0.988005,0.003983,0.153919,15428.0,212.0,2128.0,11.0,-6.0,8.0
2871.0,2798.0,2867.0,3147.0,3057.0,0.759399,0.008728,-0.650513,0.007263,0.0,-1.0,0.0,7791.0,53.0,1100.0,-303.0,21.0,-157.0,108.0,24.0,-323.0,0.988125,0.003807,0.153497,15580.0,-60.0,2176.0,3.0,-2.0,7.0
2895.0,2811.0,2897.0,3151.0,3061.0,0.759338,0.008728,-0.650574,0.007324,0.0,-1.0,0.0,7775.0,28.0,1092.0,-319.0,-2.0,-164.0,113.0,1.0,-340.0,0.988139,0.003725,0.153326,15478.0,-80.0,2142.0,10.0,-7.0,1.0
2871.0,2818.0,2863.0,3147.0,3039.0,0.759277,0.008911,-0.650635,0.007446,1.0,0.0,-1.0,7825.0,17.0,1104.0,-269.0,-14.0,-150.0,107.0,-10.0,-288.0,0.988157,0.003842,0.153153,15648.0,48.0,2202.0,23.0,14.0,-7.0
2890.0,2819.0,2859.0,3155.0,3063.0,0.759277,0.008972,-0.650635,0.007507,0.0,0.0,-1.0,7807.0,32.0,1110.0,-288.0,0.0,-144.0,98.0,3.0,-306.0,0.988159,0.003856,0.153152,15480.0,122.0,2276.0,16.0,13.0,-7.0
2883.0,2803.0,2877.0,3131.0,3047.0,0.759216,0.009094,-0.650757,0.007507,-1.0,-1.0,0.0,7800.0,39.0,1107.0,-295.0,5.0,-145.0,98.0,8.0,-313.0,0.988267,0.004038,0.152899,15758.0,142.0,2246.0,0.0,-14.0,0.0
2877.0,2821.0,2879.0,3167.0,3027.0,0.759155,0.009094,-0.650818,0.007446,-1.0,0.0,-1.0,7811.0,32.0,1106.0,-284.0,-1.0,-145.0,99.0,2.0,-302.0,0.988279,0.004116,0.152726,15604.0,-34.0,2192.0,-2.0,4.0,-7.0
2878.0,2801.0,2877.0,3151.0,3031.0,0.759155,0.009094,-0.650818,0.007446,0.0,0.0,-1.0,7792.0,25.0,1093.0,-303.0,-8.0,-158.0,109.0,-4.0,-323.0,0.988279,0.004116,0.152726,15460.0,66.0,2122.0,8.0,3.0,-8.0
2887.0,2815.0,2887.0,3167.0,3046.0,0.759033,0.009277,-0.65094,0.007446,0.0,0.0,-1.0,7833.0,50.0,1093.0,-263.0,14.0,-155.0,112.0,17.0,-283.0,0.988308,0.004389,0.152378,15810.0,252.0,2148.0,16.0,12.0,-12.0
2878.0,2805.0,2859.0,3157.0,3053.0,0.759094,0.009399,-0.650879,0.007385,0.0,0.0,-1.0,7820.0,80.0,1095.0,-276.0,41.0,-154.0,109.0,44.0,-296.0,0.988296,0.004656,0.152547,15510.0,334.0,2204.0,3.0,21.0,-9.0
2901.0,2806.0,2867.0,3159.0,3039.0,0.759033,0.009338,-0.65094,0.007324,-1.0,-1.0,0.0,7754.0,63.0,1094.0,-342.0,24.0,-154.0,99.0,27.0,-361.0,0.988307,0.004641,0.152375,15344.0,36.0,2180.0,-7.0,-12.0,5.0
2896.0,2823.0,2862.0,3143.0,3057.0,0.758911,0.009338,-0.651062,0.007324,0.0,-2.0,0.0,7765.0,64.0,1102.0,-331.0,26.0,-143.0,90.0,29.0,-348.0,0.988333,0.004637,0.152031,15648.0,178.0,2282.0,1.0,-25.0,5.0
2890.0,2807.0,2859.0,3153.0,3055.0,0.758728,0.009399,-0.651245,0.007324,0.0,-1.0,0.0,7780.0,79.0,1108.0,-316.0,40.0,-133.0,82.0,43.0,-332.0,0.988374,0.004723,0.151513,15590.0,162.0,2208.0,1.0,-20.0,5.0
2896.0,2818.0,2863.0,3159.0,3063.0,0.758667,0.009399,-0.651367,0.007385,0.0,-2.0,0.0,7796.0,77.0,1120.0,-301.0,38.0,-119.0,71.0,41.0,-315.0,0.98848,0.004641,0.151263,15714.0,136.0,2304.0,5.0,-24.0,8.0
2881.0,2800.0,2865.0,3151.0,3027.0,0.758606,0.009399,-0.651428,0.007385,0.0,-1.0,0.0,7821.0,85.0,1125.0,-276.0,46.0,-112.0,67.0,48.0,-289.0,0.988494,0.004639,0.151091,15744.0,228.0,2222.0,8.0,-10.0,3.0
2887.0,2811.0,2879.0,3159.0,3056.0,0.758545,0.00946,-0.65155,0.007324,-1.0,0.0,0.0,7824.0,97.0,1093.0,-274.0,57.0,-142.0,97.0,60.0,-292.0,0.988599,0.004808,0.150837,15568.0,144.0,2064.0,-9.0,5.0,4.0
2877.0,2800.0,2867.0,3155.0,3047.0,0.758484,0.009399,-0.651611,0.007324,-1.0,-1.0,0.0,7820.0,82.0,1074.0,-278.0,43.0,-160.0,115.0,47.0,-298.0,0.988611,0.004714,0.150666,15660.0,92.0,2032.0,-5.0,0.0,7.0
2887.0,2806.0,2882.0,3155.0,3031.0,0.758423,0.00946,-0.651611,0.007385,0.0,0.0,0.0,7797.0,70.0,1056.0,-301.0,31.0,-177.0,128.0,35.0,-324.0,0.988534,0.004725,0.150573,15426.0,102.0,2082.0,7.0,9.0,6.0
2877.0,2811.0,2885.0,3157.0,3047.0,0.758423,0.00946,-0.651672,0.007446,0.0,-1.0,0.0,7770.0,59.0,1055.0,-328.0,20.0,-177.0,125.0,24.0,-350.0,0.988627,0.004645,0.150494,15396.0,10.0,2118.0,11.0,0.0,10.0
2885.0,2802.0,2864.0,3159.0,3039.0,0.758362,0.00946,-0.651733,0.007568,0.0,-1.0,0.0,7765.0,50.0,1068.0,-333.0,13.0,-163.0,110.0,17.0,-353.0,0.988643,0.004484,0.150324,15562.0,116.0,2252.0,21.0,-11.0,9.0
2885.0,2815.0,2885.0,3159.0,3051.0,0.75824,0.009521,-0.651855,0.00769,0.0,-1.0,0.0,7811.0,76.0,1115.0,-288.0,39.0,-113.0,67.0,41.0,-301.0,0.988672,0.004413,0.14998,15788.0,288.0,2448.0,4.0,-8.0,12.0
2885.0,2815.0,2877.0,3159.0,3039.0,0.75824,0.009521,-0.651855,0.00769,-1.0,-1.0,0.0,7835.0,80.0,1131.0,-264.0,43.0,-97.0,55.0,45.0,-275.0,0.988672,0.004413,0.14998,15784.0,142.0,2328.0,-8.0,-1.0,13.0
2891.0,2803.0,2869.0,3167.0,3059.0,0.75824,0.009338,-0.651855,0.00769,-1.0,-1.0,0.0,7820.0,49.0,1132.0,-279.0,15.0,-96.0,52.0,17.0,-290.0,0.988669,0.004135,0.149984,15504.0,16.0,2238.0,-11.0,-3.0,10.0
2887.0,2819.0,2882.0,3150.0,3047.0,0.758179,0.009277,-0.651978,0.00769,-1.0,-1.0,0.0,7822.0,39.0,1122.0,-278.0,5.0,-104.0,61.0,7.0,-290.0,0.988774,0.00404,0.149733,15702.0,-8.0,2176.0,-12.0,-11.0,11.0
2877.0,2811.0,2865.0,3175.0,3034.0,0.758057,0.008972,-0.6521,0.007629,-2.0,0.0,0.0,7819.0,34.0,1065.0,-281.0,4.0,-158.0,114.0,7.0,-301.0,0.988794,0.003653,0.149394,15586.0,-14.0,1948.0,-36.0,3.0,11.0
2894.0,2821.0,2883.0,3151.0,3047.0,0.757996,0.008728,-0.652161,0.007568,-2.0,0.0,0.0,7795.0,9.0,1037.0,-305.0,-18.0,-185.0,137.0,-13.0,-329.0,0.988802,0.00336,0.149225,15456.0,-96.0,1942.0,-43.0,4.0,9.0
2899.0,2811.0,2880.0,3155.0,3047.0,0.757874,0.008301,-0.652283,0.007263,-3.0,-1.0,-1.0,7771.0,9.0,1011.0,-329.0,-16.0,-208.0,156.0,-11.0,-356.0,0.988816,0.003107,0.148883,15668.0,84.0,2044.0,-53.0,-1.0,-4.0
2896.0,2805.0,2887.0,3147.0,3071.0,0.757874,0.008118,-0.652283,0.007019,-3.0,0.0,-1.0,7793.0,34.0,1030.0,-307.0,8.0,-189.0,140.0,12.0,-331.0,0.98881,0.003148,0.148883,15716.0,264.0,2190.0,-61.0,19.0,-5.0
2883.0,2821.0,2873.0,3151.0,3051.0,0.758057,0.007507,-0.6521,0.00647,-4.0,1.0,0.0,7784.0,44.0,1064.0,-315.0,19.0,-159.0,109.0,22.0,-335.0,0.988754,0.002944,0.149401,15394.0,-16.0,2272.0,-75.0,31.0,7.0
2894.0,2802.0,2863.0,3167.0,3007.0,0.758118,0.007263,-0.652039,0.006287,-3.0,0.0,0.0,7754.0,23.0,1093.0,-345.0,0.0,-132.0,78.0,2.0,-360.0,0.988735,0.002814,0.149575,15374.0,-92.0,2372.0,-51.0,7.0,6.0
2875.0,2823.0,2865.0,3178.0,3023.0,0.758057,0.007202,-0.6521,0.006226,0.0,-1.0,-1.0,7795.0,60.0,1169.0,-304.0,37.0,-54.0,7.0,38.0,-308.0,0.988747,0.0028,0.149403,15752.0,438.0,2628.0,3.0,-10.0,-8.0
2887.0,2799.0,2849.0,3117.0,3025.0,0.758057,0.007263,-0.6521,0.006104,-1.0,-1.0,-1.0,7804.0,114.0,1186.0,-295.0,89.0,-37.0,-9.0,89.0,-296.0,0.988746,0.003052,0.1494,15676.0,508.0,2434.0,-11.0,-14.0,-2.0
2863.0,2823.0,2878.0,3143.0,3019.0,-1.21228,1.519104,1.677307,-1.053711,24153.0,30931.0,14033.0,-31203.0,-16531.0,-8124.0,27245.0,-22938.0,12692.0,-23453.0,-6121.0,25817.0,0.86534,-7.217954,-2.541106,15744.0,448.0,2270.0,-35.0,-18.0,12.0
2895.0,2811.0,2897.0,3147.0,3059.0,0.757874,0.006958,-0.652344,0.005737,-2.0,-1.0,0.0,7815.0,155.0,1125.0,-285.0,129.0,-94.0,48.0,130.0,-295.0,0.988868,0.003061,0.148804,15542.0,156.0,1892.0,-40.0,-8.0,15.0
2887.0,2822.0,2880.0,3167.0,3047.0,0.75769,0.006714,-0.652588,0.005676,-1.0,-1.0,0.0,7796.0,95.0,1043.0,-305.0,72.0,-171.0,122.0,75.0,-326.0,0.988995,0.002766,0.148211,15566.0,60.0,1872.0,-14.0,-6.0,13.0
2899.0,2815.0,2853.0,3151.0,3055.0,0.757568,0.006653,-0.652649,0.005676,-1.0,0.0,0.0,7808.0,79.0,1015.0,-293.0,57.0,-196.0,149.0,60.0,-318.0,0.988928,0.002671,0.147947,15704.0,82.0,1926.0,-4.0,5.0,10.0
2878.0,2800.0,2879.0,3151.0,3027.0,0.757629,0.006714,-0.652649,0.005859,1.0,0.0,0.0,7768.0,38.0,984.0,-333.0,17.0,-228.0,175.0,21.0,-363.0,0.989011,0.002525,0.148041,15378.0,142.0,1960.0,33.0,22.0,7.0
2887.0,2813.0,2891.0,3184.0,3039.0,0.757629,0.006836,-0.652649,0.005981,1.0,0.0,0.0,7777.0,59.0,1015.0,-325.0,38.0,-197.0,145.0,41.0,-350.0,0.989014,0.002551,0.148041,15674.0,220.0,2284.0,26.0,11.0,6.0
2896.0,2818.0,2870.0,3149.0,3039.0,0.75769,0.006897,-0.652527,0.006104,0.0,0.0,0.0,7789.0,57.0,1090.0,-312.0,36.0,-124.0,75.0,38.0,-326.0,0.988911,0.002486,0.148293,15560.0,-22.0,2434.0,6.0,10.0,18.0
2869.0,2815.0,2850.0,3151.0,3039.0,0.757751,0.006836,-0.652527,0.006226,0.0,-1.0,0.0,7806.0,51.0,1136.0,-295.0,32.0,-79.0,33.0,33.0,-303.0,0.988991,0.002235,0.148388,15766.0,56.0,2542.0,6.0,-2.0,18.0
2883.0,2807.0,2875.0,3163.0,3019.0,0.757751,0.006836,-0.652466,0.006287,0.0,0.0,0.0,7841.0,48.0,1175.0,-260.0,30.0,-41.0,1.0,30.0,-263.0,0.9889,0.002156,0.148468,15850.0,102.0,2552.0,10.0,7.0,13.0
2886.0,2815.0,2891.0,3167.0,3039.0,0.757874,0.006714,-0.652344,0.006348,-1.0,-1.0,0.0,7807.0,47.0,1174.0,-293.0,31.0,-45.0,0.0,31.0,-296.0,0.988873,0.001895,0.148815,15530.0,-2.0,2290.0,-12.0,-4.0,14.0
2863.0,2821.0,2855.0,3159.0,3056.0,0.757812,0.006592,-0.652405,0.006409,-1.0,-1.0,0.0,7799.0,13.0,1155.0,-301.0,0.0,-62.0,16.0,0.0,-306.0,0.988886,0.001629,0.148645,15570.0,-204.0,2176.0,-15.0,-14.0,15.0
2895.0,2802.0,2843.0,3135.0,3069.0,0.757568,0.00647,-0.652649,0.006531,0.0,-1.0,-1.0,7779.0,-47.0,1094.0,-322.0,-57.0,-118.0,70.0,-55.0,-335.0,0.988937,0.001278,0.14796,15580.0,-156.0,2084.0,12.0,-20.0,-2.0
2879.0,2815.0,2863.0,3155.0,3039.0,0.757507,0.006531,-0.652771,0.006592,0.0,-1.0,-1.0,7793.0,-46.0,1092.0,-309.0,-56.0,-118.0,72.0,-54.0,-323.0,0.989044,0.001288,0.147708,15686.0,-44.0,2196.0,14.0,-13.0,-10.0
2903.0,2815.0,2885.0,3167.0,3025.0,0.757446,0.006653,-0.652832,0.00647,-1.0,0.0,-1.0,7800.0,2.0,1094.0,-302.0,-11.0,-114.0,68.0,-9.0,-315.0,0.989056,0.001631,0.147533,15610.0,104.0,2174.0,-7.0,3.0,-14.0
2893.0,2795.0,2869.0,3175.0,3067.0,0.757446,0.006653,-0.652832,0.006287,-1.0,0.0,-1.0,7804.0,29.0,1097.0,-298.0,13.0,-111.0,65.0,14.0,-311.0,0.989054,0.00187,0.14753,15612.0,230.0,2196.0,-20.0,6.0,-16.0
2886.0,2800.0,2867.0,3167.0,3051.0,0.757385,0.006592,-0.652893,0.005981,-1.0,-1.0,-1.0,7791.0,5.0,1106.0,-311.0,-12.0,-101.0,54.0,-10.0,-322.0,0.989062,0.002175,0.147355,15516.0,-28.0,2202.0,-13.0,-9.0,-16.0
2885.0,2811.0,2883.0,3163.0,3051.0,0.757324,0.006653,-0.652954,0.00592,0.0,-1.0,-1.0,7779.0,2.0,1108.0,-323.0,-17.0,-97.0,48.0,-15.0,-333.0,0.989075,0.002345,0.147182,15538.0,-16.0,2240.0,6.0,-16.0,-21.0
2886.0,2818.0,2879.0,3155.0,3047.0,0.757202,0.006958,-0.653076,0.00592,0.0,-1.0,-1.0,7798.0,33.0,1089.0,-304.0,10.0,-113.0,66.0,12.0,-317.0,0.989104,0.002804,0.146833,15660.0,212.0,2088.0,21.0,-4.0,-16.0
2878.0,2802.0,2865.0,3133.0,3015.0,0.757202,0.00708,-0.653076,0.00592,0.0,0.0,-1.0,7815.0,53.0,1078.0,-287.0,28.0,-124.0,79.0,30.0,-301.0,0.989105,0.002989,0.146832,15706.0,240.0,2070.0,18.0,11.0,-11.0
2867.0,2799.0,2869.0,3151.0,3067.0,0.757324,0.007263,-0.653015,0.00592,0.0,1.0,0.0,7811.0,73.0,1041.0,-292.0,46.0,-163.0,117.0,49.0,-312.0,0.989174,0.003269,0.147094,15590.0,250.0,2080.0,14.0,33.0,0.0
2879.0,2814.0,2865.0,3151.0,3031.0,0.757385,0.007385,-0.652893,0.005981,0.0,1.0,0.0,7795.0,96.0,1037.0,-307.0,68.0,-170.0,121.0,71.0,-328.0,0.989071,0.003376,0.147344,15506.0,334.0,2086.0,8.0,36.0,3.0
2895.0,2803.0,2879.0,3159.0,3043.0,0.757446,0.007202,-0.652771,0.00592,-2.0,0.0,1.0,7759.0,127.0,1049.0,-342.0,100.0,-160.0,105.0,103.0,-361.0,0.988963,0.003181,0.147598,15540.0,240.0,2198.0,-31.0,7.0,28.0
2887.0,2815.0,2864.0,3151.0,3023.0,0.757446,0.007019,-0.652832,0.00592,-2.0,0.0,1.0,7797.0,87.0,1072.0,-305.0,63.0,-136.0,88.0,65.0,-321.0,0.989053,0.002903,0.147521,15842.0,-112.0,2320.0,-25.0,3.0,32.0
2897.0,2797.0,2859.0,3149.0,3027.0,0.757568,0.006897,-0.65271,0.006165,0.0,1.0,0.0,7862.0,67.0,1114.0,-240.0,47.0,-97.0,59.0,48.0,-251.0,0.98903,0.002403,0.14787,15894.0,196.0,2396.0,17.0,24.0,16.0
2899.0,2815.0,2895.0,3163.0,3051.0,0.75769,0.006897,-0.652588,0.006226,0.0,1.0,0.0,7868.0,73.0,1133.0,-233.0,53.0,-81.0,44.0,54.0,-242.0,0.989005,0.002326,0.148215,15750.0,148.0,2358.0,11.0,35.0,13.0
2887.0,2805.0,2869.0,3153.0,3035.0,0.757812,0.006897,-0.652405,0.006348,0.0,1.0,0.0,7849.0,57.0,1148.0,-251.0,39.0,-69.0,30.0,40.0,-258.0,0.988889,0.002171,0.148641,15542.0,-12.0,2352.0,9.0,39.0,17.0
2869.0,2800.0,2864.0,3155.0,3027.0,0.757996,0.006897,-0.652161,0.006592,0.0,1.0,0.0,7784.0,8.0,1157.0,-315.0,-7.0,-65.0,17.0,-6.0,-321.0,0.988761,0.001858,0.14924,15384.0,-52.0,2354.0,21.0,26.0,9.0
2896.0,2815.0,2882.0,3165.0,3047.0,0.758057,0.006958,-0.6521,0.006653,0.0,0.0,0.0,7744.0,1.0,1147.0,-355.0,-14.0,-76.0,22.0,-12.0,-362.0,0.988749,0.001873,0.149412,15250.0,-48.0,2252.0,16.0,9.0,5.0
2895.0,2818.0,2875.0,3159.0,3047.0,0.757996,0.006958,-0.652222,0.006775,-1.0,-1.0,0.0,7753.0,0.0,1137.0,-347.0,-14.0,-84.0,31.0,-12.0,-355.0,0.988857,0.001711,0.149162,15706.0,4.0,2310.0,0.0,-12.0,2.0
2894.0,2809.0,2875.0,3154.0,3055.0,0.757996,0.006958,-0.652222,0.006714,-1.0,0.0,-1.0,7791.0,-1.0,1138.0,-309.0,-15.0,-83.0,36.0,-13.0,-317.0,0.988856,0.00179,0.149161,15796.0,-24.0,2294.0,-4.0,4.0,-3.0
2879.0,2813.0,2881.0,3171.0,3043.0,0.757996,0.006958,-0.652161,0.006714,-1.0,0.0,-1.0,7798.0,-7.0,1129.0,-301.0,-21.0,-93.0,47.0,-19.0,-311.0,0.988763,0.001791,0.149241,15556.0,-36.0,2174.0,-2.0,16.0,-7.0
2886.0,2815.0,2877.0,3165.0,3047.0,0.758057,0.007019,-0.6521,0.006653,0.0,0.0,-1.0,7802.0,10.0,1152.0,-297.0,-6.0,-71.0,25.0,-4.0,-304.0,0.98875,0.001965,0.149411,15616.0,146.0,2346.0,8.0,6.0,-9.0
2883.0,2807.0,2875.0,3167.0,3043.0,0.758057,0.00708,-0.6521,0.006653,0.0,0.0,-1.0,7799.0,23.0,1163.0,-300.0,6.0,-60.0,14.0,6.0,-305.0,0.988751,0.002058,0.14941,15536.0,84.0,2404.0,5.0,1.0,-11.0
2891.0,2811.0,2865.0,3143.0,3045.0,0.757996,0.007263,-0.652161,0.006653,0.0,-1.0,-1.0,7791.0,18.0,1193.0,-308.0,-1.0,-29.0,-17.0,0.0,-308.0,0.988766,0.002333,0.149235,15598.0,20.0,2442.0,18.0,-18.0,-11.0
2887.0,2819.0,2875.0,3171.0,3045.0,0.757935,0.007385,-0.652283,0.006653,1.0,-2.0,-1.0,7778.0,29.0,1197.0,-322.0,8.0,-23.0,-25.0,8.0,-321.0,0.988873,0.002516,0.148982,15478.0,188.0,2384.0,25.0,-25.0,-8.0
2893.0,2809.0,2869.0,3163.0,3039.0,0.757629,0.007568,-0.652588,0.006592,-1.0,-2.0,-1.0,7780.0,81.0,1168.0,-321.0,57.0,-45.0,-4.0,57.0,-323.0,0.988939,0.002865,0.148118,15664.0,246.0,2280.0,-11.0,-44.0,-4.0
2881.0,2813.0,2883.0,3167.0,3046.0,0.757507,0.007568,-0.652771,0.00647,-2.0,-2.0,-1.0,7829.0,85.0,1132.0,-273.0,60.0,-77.0,34.0,61.0,-281.0,0.989056,0.00302,0.147692,16006.0,72.0,2130.0,-27.0,-34.0,-8.0
2881.0,2807.0,2863.0,3143.0,3054.0,0.757385,0.007385,-0.652893,0.006226,-2.0,0.0,-1.0,7844.0,55.0,1053.0,-258.0,29.0,-154.0,113.0,32.0,-277.0,0.989075,0.003058,0.147347,15704.0,-26.0,1908.0,-29.0,7.0,-2.0
2885.0,2819.0,2874.0,3167.0,3039.0,0.757385,0.007263,-0.652893,0.006165,-1.0,1.0,0.0,7839.0,37.0,1020.0,-263.0,12.0,-187.0,145.0,15.0,-287.0,0.989073,0.002952,0.147348,15612.0,-26.0,1794.0,-20.0,26.0,1.0
2883.0,2805.0,2867.0,3151.0,3037.0,0.757507,0.007141,-0.652771,0.006226,0.0,1.0,0.0,7772.0,28.0,1032.0,-330.0,5.0,-177.0,126.0,8.0,-352.0,0.989047,0.002691,0.147695,15426.0,90.0,2178.0,2.0,26.0,11.0
2891.0,2815.0,2864.0,3152.0,3043.0,0.757568,0.007141,-0.65271,0.006287,0.0,0.0,0.0,7752.0,38.0,1057.0,-350.0,16.0,-154.0,100.0,18.0,-368.0,0.989035,0.002613,0.147868,15378.0,170.0,2226.0,9.0,22.0,14.0
2891.0,2807.0,2875.0,3159.0,3037.0,0.757629,0.007141,-0.652649,0.006348,0.0,0.0,0.0,7754.0,53.0,1087.0,-348.0,32.0,-125.0,71.0,34.0,-362.0,0.989023,0.002535,0.148041,15552.0,202.0,2372.0,9.0,15.0,17.0
2893.0,2810.0,2879.0,3159.0,3043.0,0.757812,0.007202,-0.652405,0.00647,0.0,1.0,0.0,7800.0,77.0,1132.0,-301.0,56.0,-85.0,38.0,57.0,-310.0,0.988894,0.002474,0.148638,15720.0,254.0,2330.0,9.0,30.0,10.0
2883.0,2803.0,2867.0,3155.0,3039.0,0.757935,0.007202,-0.652283,0.006531,0.0,1.0,0.0,7827.0,75.0,1153.0,-273.0,55.0,-67.0,24.0,56.0,-279.0,0.988869,0.002398,0.148983,15832.0,96.0,2408.0,6.0,40.0,7.0
2894.0,2814.0,2877.0,3159.0,3047.0,0.758118,0.007263,-0.6521,0.006592,0.0,2.0,0.0,7830.0,63.0,1156.0,-270.0,43.0,-68.0,26.0,44.0,-277.0,0.988832,0.002416,0.149499,15654.0,30.0,2330.0,16.0,52.0,0.0
2885.0,2815.0,2871.0,3159.0,3043.0,0.758362,0.007507,-0.651733,0.006714,1.0,1.0,0.0,7773.0,67.0,1170.0,-325.0,45.0,-61.0,10.0,46.0,-330.0,0.9886,0.002635,0.150345,15276.0,274.0,2424.0,24.0,32.0,1.0
2881.0,2803.0,2865.0,3155.0,3039.0,0.758423,0.007568,-0.651672,0.006775,0.0,0.0,0.0,7750.0,100.0,1181.0,-348.0,78.0,-52.0,-2.0,78.0,-351.0,0.988589,0.00265,0.150517,15422.0,406.0,2456.0,2.0,2.0,10.0
2887.0,2813.0,2866.0,3157.0,3047.0,-1.21228,0.423645,1.559814,-0.263184,26474.0,28610.0,-2.0,3130.0,18110.0,8566.0,-26024.0,-32286.0,17360.0,-3852.0,31217.0,13953.0,3.558872,-1.848188,-1.073607,15718.0,204.0,2428.0,10.0,0.0,24.0
2896.0,2815.0,2863.0,3152.0,3039.0,0.758423,0.007446,-0.651672,0.006897,0.0,0.0,0.0,7805.0,92.0,1200.0,-293.0,73.0,-33.0,-12.0,73.0,-294.0,0.988589,0.002306,0.15052,15598.0,238.0,2384.0,10.0,8.0,13.0
2887.0,2814.0,2867.0,3153.0,3045.0,0.758484,0.007568,-0.651611,0.00708,1.0,0.0,0.0,7780.0,86.0,1185.0,-318.0,67.0,-49.0,0.0,67.0,-321.0,0.988581,0.002254,0.150693,15462.0,256.0,2318.0,28.0,10.0,11.0
2889.0,2813.0,2869.0,3152.0,3039.0,0.758484,0.00769,-0.65155,0.007202,0.0,0.0,0.0,7777.0,109.0,1179.0,-320.0,90.0,-56.0,5.0,90.0,-324.0,0.988492,0.002281,0.150773,15576.0,360.0,2332.0,22.0,4.0,13.0
2890.0,2805.0,2863.0,3157.0,3043.0,0.758545,0.007751,-0.65155,0.007324,0.0,0.0,0.0,7778.0,97.0,1151.0,-320.0,78.0,-84.0,33.0,79.0,-328.0,0.988574,0.002215,0.150866,15516.0,56.0,2228.0,14.0,14.0,14.0
2893.0,2811.0,2875.0,3159.0,3047.0,0.758545,0.007874,-0.651489,0.007507,1.0,0.0,0.0,7768.0,73.0,1132.0,-329.0,55.0,-104.0,51.0,56.0,-340.0,0.988486,0.002163,0.150947,15484.0,48.0,2136.0,33.0,9.0,12.0
2890.0,2807.0,2870.0,3157.0,3047.0,0.758484,0.008057,-0.65155,0.007812,1.0,-1.0,1.0,7782.0,92.0,1122.0,-315.0,75.0,-113.0,62.0,77.0,-328.0,0.988507,0.002041,0.150776,15724.0,228.0,2324.0,31.0,-5.0,26.0
2882.0,2809.0,2871.0,3159.0,3051.0,0.758484,0.008057,-0.651611,0.007996,0.0,0.0,1.0,7809.0,94.0,1113.0,-289.0,79.0,-121.0,74.0,81.0,-303.0,0.988602,0.001802,0.1507,15766.0,136.0,2122.0,16.0,4.0,32.0
2891.0,2810.0,2875.0,3155.0,3043.0,0.758484,0.007996,-0.65155,0.008179,0.0,0.0,1.0,7831.0,63.0,1109.0,-266.0,50.0,-126.0,83.0,52.0,-281.0,0.988512,0.001471,0.150783,15734.0,-102.0,2190.0,10.0,18.0,30.0
2885.0,2814.0,2877.0,3163.0,3051.0,0.758606,0.007935,-0.651489,0.008484,0.0,0.0,0.0,7794.0,23.0,1106.0,-304.0,14.0,-131.0,83.0,16.0,-320.0,0.988582,0.000984,0.151054,15454.0,-82.0,2242.0,5.0,16.0,22.0
2883.0,2809.0,2859.0,3155.0,3047.0,0.758606,0.007812,-0.651428,0.008545,-1.0,0.0,0.0,7785.0,-3.0,1110.0,-312.0,-8.0,-128.0,79.0,-5.0,-327.0,0.988488,0.00072,0.151136,15558.0,-150.0,2238.0,-3.0,10.0,22.0
2884.0,2814.0,2871.0,3155.0,3039.0,0.758667,0.00769,-0.651367,0.00885,0.0,0.0,0.0,7781.0,-48.0,1125.0,-316.0,-49.0,-114.0,66.0,-47.0,-329.0,0.988478,0.00014,0.151316,15518.0,-116.0,2314.0,16.0,19.0,13.0
2889.0,2811.0,2869.0,3163.0,3047.0,0.758728,0.00769,-0.651306,0.008911,0.0,0.0,0.0,7790.0,-28.0,1152.0,-307.0,-28.0,-88.0,41.0,-27.0,-316.0,0.988466,6.2e-05,0.151489,15682.0,110.0,2488.0,14.0,18.0,11.0
2891.0,2815.0,2879.0,3161.0,3047.0,0.758972,0.007507,-0.651001,0.008972,-1.0,1.0,1.0,7812.0,44.0,1183.0,-284.0,46.0,-64.0,18.0,46.0,-290.0,0.988318,-0.000286,0.152261,15556.0,260.0,2392.0,-22.0,42.0,27.0
2887.0,2813.0,2867.0,3153.0,3031.0,0.759094,0.007324,-0.650818,0.008972,-2.0,1.0,1.0,7789.0,52.0,1187.0,-306.0,56.0,-63.0,14.0,56.0,-312.0,0.988196,-0.000559,0.152687,15430.0,124.0,2356.0,-33.0,39.0,34.0
2887.0,2811.0,2863.0,3152.0,3045.0,0.759277,0.006897,-0.650635,0.009033,-1.0,1.0,1.0,7780.0,1.0,1171.0,-314.0,11.0,-84.0,34.0,11.0,-323.0,0.988149,-0.001281,0.153211,15544.0,-144.0,2308.0,-13.0,26.0,28.0
2893.0,2815.0,2875.0,3154.0,3055.0,0.759338,0.006775,-0.650574,0.009155,0.0,0.0,0.0,7762.0,-21.0,1172.0,-332.0,-7.0,-84.0,32.0,-6.0,-340.0,0.988135,-0.001623,0.153387,15404.0,-174.0,2368.0,4.0,17.0,21.0
2893.0,2810.0,2865.0,3167.0,3055.0,0.759338,0.006775,-0.650635,0.00946,1.0,-1.0,0.0,7781.0,-60.0,1184.0,-314.0,-43.0,-71.0,23.0,-43.0,-321.0,0.988232,-0.002022,0.153313,15686.0,-104.0,2388.0,31.0,-7.0,5.0
2887.0,2807.0,2867.0,3157.0,3045.0,0.759277,0.006897,-0.650635,0.009521,1.0,-1.0,-1.0,7817.0,-41.0,1204.0,-277.0,-25.0,-51.0,8.0,-25.0,-281.0,0.988156,-0.001917,0.15322,15876.0,44.0,2528.0,23.0,-8.0,-3.0
2885.0,2807.0,2867.0,3159.0,3047.0,0.759399,0.006897,-0.650574,0.009521,-1.0,0.0,0.0,7837.0,-35.0,1219.0,-258.0,-19.0,-38.0,-1.0,-19.0,-260.0,0.988222,-0.001914,0.153484,15660.0,-162.0,2430.0,-21.0,18.0,0.0
2885.0,2815.0,2879.0,3167.0,3054.0,0.75946,0.006775,-0.650452,0.00946,-2.0,1.0,-1.0,7815.0,-55.0,1204.0,-279.0,-38.0,-55.0,12.0,-38.0,-284.0,0.988113,-0.002017,0.153736,15454.0,-188.0,2320.0,-23.0,23.0,-3.0
2887.0,2806.0,2867.0,3142.0,3051.0,0.759521,0.006592,-0.650391,0.009216,-2.0,-1.0,-1.0,7730.0,-53.0,1188.0,-364.0,-36.0,-72.0,15.0,-36.0,-370.0,0.988093,-0.001975,0.153906,15248.0,-94.0,2384.0,-31.0,-3.0,-5.0
2891.0,2806.0,2864.0,3152.0,3053.0,0.75946,0.006409,-0.650452,0.009155,-2.0,-1.0,0.0,7723.0,-59.0,1195.0,-371.0,-41.0,-64.0,7.0,-41.0,-376.0,0.988102,-0.002176,0.153736,15458.0,-166.0,2412.0,-35.0,-19.0,0.0
2886.0,2807.0,2875.0,3159.0,3043.0,0.759277,0.006287,-0.650635,0.009033,0.0,-2.0,-1.0,7759.0,-88.0,1233.0,-335.0,-69.0,-22.0,-28.0,-70.0,-334.0,0.988138,-0.002208,0.153219,15746.0,-108.0,2646.0,1.0,-25.0,-14.0
2887.0,2817.0,2865.0,3155.0,3047.0,0.759277,0.006348,-0.650696,0.008972,0.0,-1.0,-2.0,7778.0,-60.0,1261.0,-317.0,-43.0,6.0,-53.0,-44.0,-312.0,0.988231,-0.002037,0.153137,15618.0,64.0,2668.0,6.0,-15.0,-23.0
2887.0,2813.0,2870.0,3165.0,3051.0,0.759155,0.006531,-0.650818,0.008789,0.0,-2.0,-1.0,7791.0,-20.0,1255.0,-304.0,-7.0,3.0,-49.0,-8.0,-299.0,0.988258,-0.001524,0.152787,15660.0,98.0,2406.0,3.0,-27.0,-19.0
2893.0,2807.0,2869.0,3153.0,3053.0,0.759033,0.006653,-0.65094,0.008667,0.0,-2.0,-1.0,7804.0,-7.0,1240.0,-292.0,2.0,-8.0,-36.0,0.0,-289.0,0.988285,-0.001184,0.152439,15680.0,88.0,2392.0,7.0,-29.0,-20.0
2883.0,2821.0,2875.0,3159.0,3039.0,0.758972,0.006775,-0.651062,0.008606,0.0,-2.0,-1.0,7796.0,11.0,1209.0,-300.0,18.0,-37.0,-9.0,17.0,-302.0,0.988392,-0.000922,0.152185,15524.0,128.0,2280.0,9.0,-30.0,-20.0
2882.0,2815.0,2875.0,3159.0,3043.0,0.758667,0.007019,-0.651428,0.008484,-1.0,-2.0,-1.0,7795.0,48.0,1181.0,-303.0,51.0,-57.0,9.0,51.0,-308.0,0.988553,-0.000403,0.15124,15572.0,180.0,2368.0,-2.0,-39.0,-14.0
2891.0,2811.0,2875.0,3159.0,3055.0,0.758545,0.00708,-0.65155,0.008362,-1.0,-2.0,-1.0,7785.0,47.0,1171.0,-313.0,48.0,-65.0,15.0,48.0,-319.0,0.988579,-0.000155,0.150892,15492.0,62.0,2232.0,-7.0,-38.0,-17.0
2887.0,2819.0,2879.0,3155.0,3047.0,0.758179,0.007202,-0.651917,0.008179,0.0,-2.0,-2.0,7805.0,33.0,1173.0,-294.0,30.0,-54.0,8.0,30.0,-298.0,0.988656,0.000257,0.149855,15706.0,136.0,2384.0,8.0,-42.0,-23.0
2891.0,2815.0,2877.0,3167.0,3039.0,0.758057,0.007324,-0.6521,0.008057,0.0,-2.0,-2.0,7801.0,58.0,1159.0,-299.0,53.0,-65.0,18.0,53.0,-305.0,0.988775,0.000597,0.149427,15558.0,258.0,2224.0,1.0,-38.0,-26.0
2886.0,2814.0,2879.0,3163.0,3055.0,0.757812,0.007507,-0.652405,0.007751,-1.0,-1.0,-2.0,7809.0,71.0,1153.0,-292.0,60.0,-64.0,18.0,60.0,-298.0,0.988917,0.001264,0.148651,15662.0,158.0,2306.0,-9.0,-19.0,-28.0
2891.0,2807.0,2866.0,3159.0,3047.0,0.757751,0.007629,-0.652466,0.007568,-1.0,-1.0,-2.0,7812.0,80.0,1143.0,-289.0,66.0,-73.0,27.0,67.0,-296.0,0.988929,0.001686,0.148475,15662.0,244.0,2234.0,-10.0,-7.0,-27.0
2886.0,2807.0,2871.0,3162.0,3054.0,0.757751,0.007751,-0.652466,0.007263,-1.0,0.0,-2.0,7804.0,70.0,1125.0,-297.0,51.0,-91.0,44.0,52.0,-307.0,0.988926,0.002269,0.148468,15520.0,-12.0,2190.0,-6.0,1.0,-24.0
2893.0,2811.0,2902.0,3167.0,3055.0,0.75769,0.007874,-0.652527,0.007202,0.0,-1.0,-1.0,7786.0,48.0,1118.0,-315.0,27.0,-96.0,47.0,28.0,-325.0,0.98894,0.002532,0.148293,15472.0,4.0,2198.0,19.0,-7.0,-22.0
2891.0,2815.0,2865.0,3159.0,3051.0,0.757507,0.008301,-0.65271,0.007202,1.0,-2.0,-2.0,7778.0,69.0,1107.0,-323.0,42.0,-103.0,53.0,44.0,-334.0,0.988985,0.003174,0.14777,15600.0,284.0,2212.0,33.0,-26.0,-25.0
2886.0,2814.0,2872.0,3152.0,3047.0,0.757385,0.008545,-0.652832,0.007141,0.0,-2.0,-2.0,7795.0,91.0,1089.0,-306.0,61.0,-118.0,70.0,63.0,-319.0,0.989013,0.00362,0.147421,15744.0,280.0,2056.0,19.0,-33.0,-23.0
2886.0,2814.0,2864.0,3159.0,3051.0,0.757202,0.00885,-0.653076,0.007019,0.0,0.0,-2.0,7883.0,70.0,1054.0,-220.0,35.0,-148.0,113.0,38.0,-239.0,0.989146,0.004235,0.146818,15978.0,6.0,2000.0,13.0,5.0,-27.0
2886.0,2815.0,2883.0,3167.0,3047.0,0.757263,0.009033,-0.653015,0.006958,0.0,1.0,-2.0,7883.0,61.0,1044.0,-219.0,23.0,-160.0,125.0,26.0,-240.0,0.989134,0.004594,0.146986,15666.0,108.0,2024.0,19.0,39.0,-33.0
2895.0,2819.0,2887.0,3153.0,3039.0,0.757507,0.009399,-0.65271,0.006897,1.0,1.0,-1.0,7775.0,65.0,1073.0,-326.0,22.0,-137.0,86.0,25.0,-342.0,0.988995,0.005237,0.147746,15258.0,194.0,2320.0,23.0,37.0,-18.0
2887.0,2807.0,2864.0,3151.0,3039.0,0.757629,0.009521,-0.652588,0.006897,0.0,1.0,-1.0,7739.0,77.0,1104.0,-362.0,32.0,-109.0,53.0,35.0,-373.0,0.988971,0.005426,0.148088,15264.0,190.0,2388.0,20.0,29.0,-4.0
2879.0,2814.0,2884.0,3159.0,3055.0,0.75769,0.009644,-0.652466,0.00708,0.0,-1.0,0.0,7710.0,98.0,1176.0,-390.0,53.0,-39.0,-20.0,54.0,-391.0,0.988871,0.005375,0.14834,15476.0,386.0,2602.0,8.0,-9.0,12.0
2883.0,2810.0,2867.0,3155.0,3056.0,0.75769,0.009583,-0.652527,0.00708,-1.0,-1.0,0.0,7729.0,110.0,1195.0,-372.0,66.0,-19.0,-37.0,67.0,-370.0,0.988962,0.005281,0.148262,15622.0,262.0,2542.0,-10.0,-22.0,17.0
2875.0,2813.0,2887.0,3166.0,3063.0,0.757629,0.009399,-0.652588,0.007019,-1.0,-1.0,0.0,7802.0,82.0,1194.0,-299.0,40.0,-19.0,-26.0,40.0,-298.0,0.988971,0.005081,0.148092,15846.0,20.0,2344.0,-12.0,-10.0,13.0
2885.0,2827.0,2879.0,3157.0,3045.0,0.757629,0.009338,-0.652588,0.00708,-1.0,0.0,0.0,7825.0,70.0,1178.0,-276.0,29.0,-35.0,-6.0,30.0,-277.0,0.988972,0.004909,0.148094,15718.0,80.0,2204.0,-1.0,7.0,7.0
2897.0,2807.0,2865.0,3149.0,3031.0,0.75769,0.009338,-0.652527,0.007141,0.0,0.0,0.0,7808.0,58.0,1143.0,-293.0,18.0,-71.0,26.0,20.0,-300.0,0.98896,0.004832,0.148267,15444.0,110.0,2162.0,4.0,17.0,5.0
2877.0,2813.0,2867.0,3157.0,3047.0,0.75769,0.009338,-0.652527,0.007141,0.0,0.0,0.0,7771.0,51.0,1126.0,-330.0,11.0,-88.0,37.0,13.0,-339.0,0.98896,0.004832,0.148267,15288.0,68.0,2170.0,5.0,10.0,4.0
2895.0,2800.0,2871.0,3155.0,3057.0,0.75769,0.009338,-0.652527,0.007202,0.0,-1.0,0.0,7741.0,47.0,1126.0,-360.0,8.0,-88.0,33.0,10.0,-369.0,0.988961,0.004752,0.148268,15358.0,86.0,2294.0,10.0,-9.0,10.0
2891.0,2819.0,2886.0,3167.0,3045.0,0.757507,0.009399,-0.65271,0.007324,0.0,-1.0,0.0,7767.0,105.0,1162.0,-334.0,66.0,-48.0,-3.0,67.0,-337.0,0.989003,0.004679,0.147752,15712.0,446.0,2434.0,5.0,-22.0,17.0
2886.0,2823.0,2867.0,3153.0,3043.0,0.757507,0.009399,-0.652771,0.007385,-1.0,-1.0,0.0,7795.0,123.0,1166.0,-307.0,85.0,-43.0,-4.0,86.0,-309.0,0.989096,0.004598,0.147674,15772.0,346.0,2346.0,-3.0,-16.0,21.0
2879.0,2821.0,2879.0,3157.0,3043.0,0.757446,0.009277,-0.652771,0.007446,0.0,0.0,0.0,7843.0,113.0,1165.0,-259.0,77.0,-44.0,3.0,78.0,-262.0,0.989016,0.004333,0.147584,15702.0,76.0,2254.0,2.0,5.0,15.0
2883.0,2814.0,2870.0,3153.0,3055.0,0.757446,0.009338,-0.652771,0.007507,0.0,0.0,0.0,7844.0,95.0,1152.0,-258.0,59.0,-57.0,16.0,60.0,-263.0,0.989018,0.004346,0.147584,15702.0,128.0,2256.0,19.0,4.0,11.0
2867.0,2821.0,2854.0,3179.0,3023.0,0.757446,0.009399,-0.652771,0.00769,1.0,0.0,0.0,7836.0,94.0,1138.0,-266.0,59.0,-71.0,29.0,60.0,-273.0,0.989022,0.004199,0.147586,15596.0,220.0,2174.0,29.0,9.0,10.0
2875.0,2814.0,2847.0,3167.0,3067.0,0.757385,0.00946,-0.652893,0.007935,0.0,-1.0,1.0,7789.0,102.0,1089.0,-313.0,69.0,-117.0,67.0,71.0,-326.0,0.989133,0.00397,0.147336,15524.0,122.0,2008.0,12.0,-15.0,31.0
2875.0,2818.0,2864.0,3159.0,3039.0,0.757263,0.009399,-0.652954,0.008118,0.0,-1.0,1.0,7784.0,74.0,1066.0,-318.0,44.0,-138.0,88.0,47.0,-334.0,0.989069,0.003635,0.147076,15550.0,-16.0,1970.0,18.0,-14.0,30.0
2893.0,2813.0,2887.0,3159.0,3035.0,0.757202,0.009583,-0.653076,0.008545,1.0,0.0,0.0,7805.0,70.0,1050.0,-298.0,42.0,-152.0,105.0,45.0,-316.0,0.989185,0.003351,0.146828,15698.0,324.0,2130.0,42.0,12.0,18.0
2879.0,2805.0,2899.0,3175.0,3007.0,0.757263,0.009644,-0.653015,0.008667,1.0,1.0,0.0,7828.0,98.0,1057.0,-275.0,71.0,-147.0,103.0,74.0,-293.0,0.989176,0.003286,0.147001,15792.0,366.0,2142.0,27.0,35.0,20.0
2885.0,2822.0,2879.0,3147.0,3031.0,0.757385,0.009705,-0.652832,0.008789,0.0,2.0,0.0,7839.0,102.0,1072.0,-263.0,75.0,-135.0,92.0,78.0,-279.0,0.989061,0.003225,0.147426,15688.0,170.0,2260.0,18.0,61.0,20.0
2887.0,2810.0,2869.0,3183.0,3062.0,0.757812,0.009766,-0.652344,0.009033,0.0,1.0,0.0,7767.0,98.0,1109.0,-333.0,73.0,-109.0,56.0,75.0,-345.0,0.988885,0.003016,0.148714,15482.0,140.0,2440.0,16.0,43.0,22.0
2859.0,2803.0,2863.0,3167.0,3023.0,0.757935,0.009766,-0.652222,0.009216,0.0,1.0,1.0,7763.0,80.0,1139.0,-337.0,57.0,-82.0,29.0,58.0,-345.0,0.988863,0.002781,0.149061,15476.0,76.0,2464.0,20.0,35.0,27.0
2893.0,2823.0,2863.0,3185.0,3023.0,0.758057,0.009766,-0.652039,0.009583,0.0,0.0,1.0,7768.0,61.0,1209.0,-331.0,42.0,-15.0,-35.0,41.0,-329.0,0.988752,0.002309,0.149492,15622.0,28.0,2670.0,19.0,2.0,34.0
2891.0,2793.0,2855.0,3152.0,3031.0,0.758118,0.009705,-0.651978,0.009827,0.0,-1.0,1.0,7782.0,43.0,1230.0,-317.0,27.0,3.0,-51.0,26.0,-312.0,0.988742,0.001901,0.14967,15638.0,-24.0,2564.0,18.0,-1.0,34.0
2869.0,2795.0,2879.0,3171.0,3069.0,0.758118,0.009644,-0.651978,0.01001,0.0,-1.0,1.0,7803.0,18.0,1254.0,-296.0,5.0,27.0,-71.0,3.0,-288.0,0.988744,0.00157,0.149675,15750.0,-96.0,2606.0,14.0,-11.0,31.0
2864.0,2807.0,2896.0,3167.0,3027.0,0.758179,0.009644,-0.651855,0.010376,1.0,0.0,0.0,7829.0,-50.0,1262.0,-269.0,-58.0,33.0,-71.0,-59.0,-261.0,0.988646,0.001096,0.149934,15616.0,-218.0,2514.0,36.0,13.0,10.0
2886.0,2823.0,2878.0,3175.0,3059.0,0.75824,0.009766,-0.651794,0.010559,1.0,0.0,-1.0,7799.0,-67.0,1262.0,-299.0,-75.0,32.0,-74.0,-76.0,-290.0,0.988639,0.001045,0.150108,15376.0,-224.0,2546.0,39.0,13.0,-3.0
2879.0,2811.0,2861.0,3167.0,3025.0,0.75824,0.01001,-0.651794,0.010803,0.0,-2.0,-1.0,7732.0,-32.0,1242.0,-367.0,-40.0,12.0,-65.0,-41.0,-361.0,0.988649,0.001097,0.150108,15460.0,200.0,2490.0,22.0,-27.0,-5.0
2871.0,2813.0,2865.0,3155.0,3071.0,0.758179,0.010071,-0.651917,0.010742,-1.0,-2.0,-1.0,7744.0,-27.0,1251.0,-355.0,-37.0,23.0,-74.0,-38.0,-347.0,0.988755,0.001265,0.149854,15538.0,-128.0,2538.0,-7.0,-32.0,-1.0
2875.0,2800.0,2883.0,3155.0,3071.0,0.757935,0.01001,-0.652161,0.010742,0.0,-2.0,-1.0,7766.0,-76.0,1228.0,-334.0,-85.0,6.0,-53.0,-86.0,-329.0,0.988805,0.001162,0.149166,15764.0,-250.0,2428.0,6.0,-42.0,-16.0
2864.0,2809.0,2851.0,3143.0,3046.0,0.757812,0.010071,-0.652344,0.010742,0.0,-2.0,-2.0,7780.0,-71.0,1212.0,-321.0,-81.0,-6.0,-39.0,-81.0,-318.0,0.988925,0.001248,0.148741,15594.0,-48.0,2336.0,15.0,-32.0,-23.0
2870.0,2815.0,2871.0,3143.0,3011.0,0.757507,0.010254,-0.652649,0.010559,-1.0,-2.0,-1.0,7797.0,-36.0,1199.0,-304.0,-50.0,-12.0,-31.0,-50.0,-302.0,0.988989,0.001752,0.147873,15728.0,-46.0,2296.0,-3.0,-43.0,-21.0
2879.0,2807.0,2861.0,3121.0,3063.0,0.757385,0.010315,-0.652771,0.010498,0.0,-2.0,-1.0,7821.0,-31.0,1179.0,-281.0,-46.0,-29.0,-11.0,-45.0,-282.0,0.989015,0.001919,0.147526,15786.0,-18.0,2194.0,3.0,-33.0,-22.0
2899.0,2800.0,2879.0,3159.0,3043.0,0.757202,0.01062,-0.653015,0.010315,0.0,-2.0,-2.0,7799.0,25.0,1128.0,-304.0,3.0,-75.0,29.0,4.0,-311.0,0.989148,0.002612,0.14692,15488.0,222.0,2110.0,8.0,-24.0,-27.0
2897.0,2823.0,2896.0,3163.0,3055.0,0.757019,0.010742,-0.653198,0.010254,0.0,-2.0,-1.0,7797.0,56.0,1112.0,-306.0,32.0,-87.0,40.0,34.0,-315.0,0.989187,0.002868,0.1464,15612.0,356.0,2212.0,3.0,-31.0,-18.0
2891.0,2815.0,2879.0,3151.0,3056.0,0.756836,0.010742,-0.653442,0.009949,-2.0,-1.0,-1.0,7808.0,117.0,1062.0,-296.0,90.0,-132.0,84.0,93.0,-311.0,0.989311,0.003258,0.145797,15666.0,274.0,1936.0,-31.0,-19.0,-1.0
2896.0,2803.0,2889.0,3135.0,3057.0,0.756714,0.010681,-0.653564,0.009827,-2.0,-1.0,0.0,7809.0,115.0,1038.0,-295.0,87.0,-153.0,105.0,91.0,-313.0,0.989332,0.00332,0.145452,15598.0,212.0,1924.0,-26.0,-9.0,1.0
2898.0,2815.0,2887.0,3127.0,3055.0,0.756653,0.01062,-0.653625,0.009644,-1.0,0.0,0.0,7801.0,122.0,998.0,-303.0,93.0,-192.0,143.0,98.0,-327.0,0.98934,0.003465,0.145277,15596.0,196.0,1872.0,-14.0,22.0,4.0
2897.0,2801.0,2867.0,3150.0,3015.0,0.756714,0.010559,-0.653625,0.009583,-1.0,1.0,0.0,7790.0,124.0,984.0,-315.0,95.0,-206.0,155.0,100.0,-341.0,0.989417,0.003454,0.14537,15522.0,290.0,1946.0,-1.0,34.0,8.0
2893.0,2821.0,2892.0,3173.0,3050.0,0.756958,0.01062,-0.65332,0.009705,0.0,2.0,1.0,7783.0,175.0,1006.0,-321.0,147.0,-191.0,137.0,152.0,-344.0,0.989278,0.003398,0.146139,15454.0,596.0,2142.0,6.0,51.0,26.0
2898.0,2833.0,2866.0,3167.0,3057.0,0.75708,0.010559,-0.653137,0.009766,-1.0,2.0,1.0,7775.0,209.0,1041.0,-328.0,182.0,-159.0,103.0,186.0,-347.0,0.989161,0.003232,0.146566,15518.0,604.0,2290.0,-6.0,48.0,43.0
2867.0,2806.0,2891.0,3155.0,3038.0,0.757385,0.010193,-0.652832,0.009888,-2.0,1.0,2.0,7789.0,205.0,1099.0,-313.0,184.0,-108.0,55.0,186.0,-325.0,0.989092,0.00253,0.147437,15634.0,218.0,2306.0,-27.0,40.0,61.0
2887.0,2806.0,2895.0,3167.0,3025.0,0.757507,0.009949,-0.65271,0.010071,-1.0,1.0,2.0,7773.0,168.0,1114.0,-329.0,152.0,-96.0,41.0,153.0,-339.0,0.989066,0.001926,0.147789,15438.0,92.0,2328.0,-16.0,36.0,59.0
2883.0,2813.0,2887.0,3165.0,3036.0,0.75769,0.009644,-0.652466,0.010559,0.0,1.0,2.0,7796.0,115.0,1162.0,-305.0,108.0,-53.0,4.0,108.0,-309.0,0.988938,0.000835,0.148402,15814.0,298.0,2526.0,16.0,24.0,52.0
2883.0,2807.0,2871.0,3159.0,3061.0,0.757812,0.00946,-0.652283,0.010742,-1.0,1.0,2.0,7819.0,117.0,1177.0,-281.0,114.0,-42.0,-3.0,114.0,-284.0,0.988819,0.000325,0.148833,15758.0,194.0,2420.0,-8.0,42.0,51.0
2897.0,2818.0,2858.0,3183.0,3013.0,0.758179,0.008972,-0.651855,0.010986,-1.0,2.0,1.0,7811.0,16.0,1191.0,-287.0,21.0,-37.0,-7.0,20.0,-289.0,0.988643,-0.000718,0.14996,15556.0,-304.0,2416.0,-17.0,54.0,42.0
2863.0,2801.0,2865.0,3151.0,3043.0,0.758362,0.008789,-0.651672,0.011108,-1.0,2.0,1.0,7798.0,-17.0,1197.0,-300.0,-7.0,-35.0,-10.0,-7.0,-301.0,0.988602,-0.001147,0.150482,15526.0,-200.0,2466.0,-6.0,56.0,28.0
2891.0,2811.0,2871.0,3127.0,3055.0,0.758728,0.008484,-0.651245,0.01123,-2.0,1.0,0.0,7775.0,-9.0,1201.0,-322.0,5.0,-40.0,-9.0,4.0,-324.0,0.988426,-0.001754,0.151602,15546.0,-6.0,2384.0,-23.0,43.0,21.0
2886.0,2800.0,2867.0,3151.0,3034.0,0.75885,0.008301,-0.651062,0.01123,-2.0,1.0,1.0,7761.0,-35.0,1192.0,-335.0,-18.0,-53.0,1.0,-18.0,-339.0,0.988303,-0.002025,0.152029,15344.0,-252.0,2344.0,-25.0,40.0,26.0
2899.0,2803.0,2870.0,3147.0,3038.0,0.758972,0.008057,-0.65094,0.011475,0.0,0.0,0.0,7753.0,-49.0,1214.0,-342.0,-26.0,-34.0,-17.0,-27.0,-343.0,0.988275,-0.002709,0.152383,15760.0,32.0,2600.0,14.0,4.0,21.0
2883.0,2803.0,2863.0,3153.0,3055.0,0.759033,0.008057,-0.650879,0.011597,0.0,0.0,0.0,7808.0,-7.0,1252.0,-287.0,16.0,2.0,-46.0,13.0,-283.0,0.988264,-0.002866,0.152558,15932.0,272.0,2726.0,10.0,12.0,22.0
2887.0,2815.0,2879.0,3153.0,3047.0,0.759277,0.007812,-0.650635,0.011597,-2.0,0.0,1.0,7828.0,38.0,1293.0,-267.0,64.0,37.0,-79.0,60.0,-258.0,0.988206,-0.003227,0.15325,15534.0,38.0,2646.0,-37.0,21.0,29.0
2899.0,2806.0,2864.0,3142.0,3039.0,0.759338,0.007568,-0.650513,0.011536,-2.0,0.0,1.0,7820.0,-9.0,1284.0,-274.0,19.0,26.0,-68.0,16.0,-266.0,0.988093,-0.003514,0.153504,15616.0,-358.0,2498.0,-37.0,8.0,24.0
2875.0,2802.0,2871.0,3163.0,3035.0,0.75946,0.007202,-0.650452,0.011597,-1.0,0.0,0.0,7797.0,-70.0,1255.0,-297.0,-36.0,-4.0,-40.0,-38.0,-293.0,0.988152,-0.004147,0.153775,15418.0,-256.0,2428.0,-21.0,13.0,9.0
2879.0,2803.0,2883.0,3159.0,3025.0,0.75946,0.007019,-0.650391,0.011536,-2.0,0.0,0.0,7772.0,-64.0,1229.0,-322.0,-28.0,-31.0,-18.0,-29.0,-322.0,0.988054,-0.004344,0.153856,15420.0,-60.0,2264.0,-30.0,6.0,7.0
2895.0,2815.0,2871.0,3159.0,3044.0,0.75946,0.006714,-0.650391,0.011353,-2.0,0.0,-1.0,7769.0,-109.0,1212.0,-325.0,-71.0,-48.0,0.0,-72.0,-328.0,0.988044,-0.004569,0.153856,15490.0,-332.0,2374.0,-23.0,6.0,-5.0
2879.0,2814.0,2883.0,3167.0,3022.0,0.75946,0.006653,-0.650391,0.011292,-1.0,0.0,-1.0,7750.0,-91.0,1216.0,-344.0,-53.0,-44.0,-8.0,-54.0,-346.0,0.988042,-0.004583,0.153855,15412.0,-14.0,2460.0,-10.0,3.0,-10.0
2891.0,2807.0,2867.0,3152.0,3053.0,0.759521,0.006531,-0.65033,0.011047,-2.0,0.0,0.0,7787.0,-16.0,1221.0,-306.0,20.0,-40.0,-8.0,18.0,-308.0,0.988023,-0.004448,0.154024,15556.0,94.0,2382.0,-38.0,14.0,4.0
2889.0,2826.0,2885.0,3151.0,3035.0,0.759583,0.006348,-0.65033,0.010925,-2.0,0.0,0.0,7769.0,-30.0,1216.0,-325.0,7.0,-46.0,-4.0,5.0,-328.0,0.988097,-0.004567,0.154116,15436.0,-216.0,2394.0,-38.0,3.0,4.0
2887.0,2805.0,2863.0,3159.0,3043.0,0.759521,0.006226,-0.65033,0.010864,0.0,-1.0,0.0,7770.0,-40.0,1224.0,-323.0,-1.0,-37.0,-13.0,-2.0,-324.0,0.988014,-0.004674,0.154024,15538.0,-50.0,2488.0,4.0,-2.0,4.0
2893.0,2815.0,2879.0,3154.0,3039.0,0.759583,0.006226,-0.65033,0.010925,0.0,0.0,0.0,7773.0,-38.0,1243.0,-321.0,0.0,-19.0,-30.0,-2.0,-320.0,0.988094,-0.004752,0.154118,15542.0,-68.0,2650.0,15.0,2.0,1.0
2883.0,2802.0,2881.0,3157.0,3055.0,0.759644,0.006409,-0.650208,0.011047,0.0,-1.0,0.0,7749.0,-22.0,1272.0,-344.0,15.0,7.0,-60.0,11.0,-338.0,0.987993,-0.00463,0.154369,15440.0,44.0,2634.0,19.0,-4.0,0.0
2886.0,2805.0,2873.0,3166.0,3047.0,0.759583,0.00647,-0.650269,0.011047,0.0,-1.0,0.0,7754.0,8.0,1269.0,-339.0,45.0,5.0,-58.0,42.0,-334.0,0.988008,-0.004539,0.154197,15558.0,196.0,2498.0,2.0,-18.0,4.0
2879.0,2811.0,2863.0,3159.0,3039.0,0.759521,0.00647,-0.65033,0.010986,-1.0,-1.0,0.0,7768.0,-1.0,1259.0,-325.0,35.0,-2.0,-48.0,32.0,-321.0,0.988021,-0.004462,0.154023,15618.0,-148.0,2438.0,-14.0,-17.0,4.0
2883.0,2799.0,2867.0,3187.0,3025.0,0.75946,0.006287,-0.650452,0.010986,-1.0,-1.0,-1.0,7797.0,-34.0,1229.0,-297.0,4.0,-30.0,-16.0,2.0,-298.0,0.988123,-0.004743,0.153774,15818.0,-170.0,2388.0,-8.0,-10.0,-3.0
2893.0,2811.0,2891.0,3151.0,3055.0,0.75946,0.006287,-0.650452,0.010986,0.0,0.0,-1.0,7801.0,-46.0,1200.0,-293.0,-7.0,-59.0,13.0,-8.0,-298.0,0.988123,-0.004743,0.153774,15558.0,-138.0,2154.0,3.0,8.0,-4.0
2891.0,2815.0,2901.0,3171.0,3031.0,0.759399,0.006348,-0.650513,0.010986,0.0,-1.0,0.0,7783.0,-26.0,1166.0,-311.0,12.0,-92.0,42.0,11.0,-321.0,0.988137,-0.004653,0.153601,15648.0,-14.0,2340.0,1.0,-8.0,6.0
2880.0,2811.0,2884.0,3157.0,3043.0,0.759338,0.006348,-0.650513,0.011047,0.0,-1.0,0.0,7789.0,-20.0,1166.0,-305.0,18.0,-91.0,42.0,17.0,-315.0,0.988059,-0.004733,0.15351,15584.0,2.0,2316.0,3.0,0.0,13.0
2879.0,2813.0,2879.0,3173.0,3039.0,0.759277,0.006348,-0.650635,0.011169,0.0,-1.0,0.0,7780.0,-21.0,1187.0,-315.0,19.0,-68.0,18.0,17.0,-321.0,0.988166,-0.004895,0.153261,15668.0,-78.0,2572.0,5.0,-16.0,7.0
2878.0,2815.0,2864.0,3167.0,3035.0,0.759277,0.006348,-0.650635,0.01123,0.0,-1.0,0.0,7820.0,-23.0,1216.0,-275.0,17.0,-39.0,-4.0,15.0,-277.0,0.988167,-0.004975,0.153262,15904.0,-46.0,2616.0,12.0,-4.0,6.0
2896.0,2819.0,2864.0,3179.0,3063.0,0.75946,0.00647,-0.650452,0.011292,0.0,0.0,0.0,7792.0,-11.0,1245.0,-302.0,28.0,-14.0,-33.0,25.0,-300.0,0.988131,-0.004862,0.153778,15338.0,28.0,2534.0,16.0,12.0,1.0
2915.0,2815.0,2855.0,3183.0,3034.0,0.75946,0.006592,-0.650452,0.011353,0.0,-1.0,0.0,7777.0,-3.0,1251.0,-317.0,35.0,-8.0,-41.0,32.0,-314.0,0.988134,-0.004756,0.153778,15506.0,62.0,2542.0,13.0,-3.0,3.0
2902.0,2803.0,2871.0,3167.0,3053.0,0.75946,0.006653,-0.650391,0.011353,0.0,0.0,0.0,7771.0,5.0,1243.0,-323.0,43.0,-17.0,-33.0,40.0,-321.0,0.988043,-0.004662,0.153857,15458.0,46.0,2386.0,9.0,1.0,2.0
2885.0,2801.0,2847.0,3171.0,3043.0,0.759399,0.006714,-0.650452,0.011414,0.0,-1.0,-1.0,7732.0,-13.0,1205.0,-362.0,25.0,-53.0,-3.0,23.0,-365.0,0.988058,-0.004651,0.153685,15322.0,6.0,2282.0,15.0,-12.0,-1.0
2871.0,2799.0,2871.0,3151.0,3059.0,0.759338,0.006775,-0.650574,0.011414,0.0,-1.0,0.0,7731.0,8.0,1180.0,-364.0,45.0,-76.0,18.0,43.0,-371.0,0.988166,-0.004562,0.153433,15468.0,146.0,2204.0,6.0,-19.0,0.0
2893.0,2805.0,2831.0,3153.0,3023.0,0.759155,0.006775,-0.650757,0.011353,-1.0,-1.0,0.0,7777.0,22.0,1145.0,-318.0,58.0,-107.0,55.0,57.0,-330.0,0.988205,-0.004489,0.152915,15750.0,74.0,2226.0,-17.0,-5.0,1.0
2893.0,2831.0,2879.0,3167.0,3047.0,0.759155,0.006653,-0.650757,0.01123,-2.0,0.0,0.0,7802.0,27.0,1130.0,-293.0,63.0,-122.0,74.0,63.0,-308.0,0.9882,-0.004516,0.152914,15748.0,84.0,2216.0,-28.0,10.0,1.0
2882.0,2807.0,2843.0,3135.0,3027.0,0.759216,0.006531,-0.650696,0.011108,-2.0,1.0,0.0,7805.0,44.0,1126.0,-290.0,81.0,-128.0,80.0,81.0,-306.0,0.988183,-0.00454,0.153085,15566.0,242.0,2238.0,-38.0,27.0,2.0
2882.0,2787.0,2880.0,3143.0,3057.0,0.759277,0.006042,-0.650696,0.010742,-3.0,0.0,0.0,7798.0,5.0,1122.0,-297.0,44.0,-132.0,83.0,44.0,-313.0,0.988247,-0.004804,0.153176,15642.0,-264.0,2284.0,-48.0,14.0,13.0
2879.0,2826.0,2874.0,3151.0,3058.0,0.759338,0.00592,-0.650635,0.010742,-1.0,1.0,0.0,7775.0,-39.0,1130.0,-320.0,1.0,-126.0,75.0,1.0,-335.0,0.988231,-0.004987,0.15335,15314.0,-312.0,2302.0,-5.0,23.0,7.0
2905.0,2811.0,2887.0,3167.0,3047.0,0.759399,0.006165,-0.650513,0.010986,1.0,0.0,0.0,7766.0,26.0,1205.0,-328.0,66.0,-53.0,0.0,64.0,-332.0,0.988133,-0.004931,0.153603,15670.0,410.0,2682.0,39.0,3.0,12.0
2871.0,2817.0,2879.0,3153.0,3027.0,0.759399,0.006287,-0.650452,0.011108,0.0,0.0,1.0,7780.0,85.0,1246.0,-314.0,125.0,-12.0,-39.0,122.0,-312.0,0.988045,-0.004903,0.153684,15644.0,498.0,2796.0,13.0,3.0,24.0
2890.0,2815.0,2893.0,3165.0,3047.0,0.759521,0.006104,-0.650391,0.011169,-1.0,-1.0,1.0,7784.0,97.0,1304.0,-310.0,140.0,42.0,-92.0,136.0,-300.0,0.988108,-0.005257,0.153952,15616.0,180.0,2830.0,-17.0,-8.0,34.0
2895.0,2810.0,2875.0,3177.0,3039.0,0.759521,0.00592,-0.65033,0.011169,-2.0,-1.0,1.0,7783.0,99.0,1319.0,-310.0,144.0,57.0,-107.0,139.0,-298.0,0.988011,-0.005534,0.154034,15548.0,212.0,2732.0,-28.0,-14.0,34.0
2895.0,2818.0,2874.0,3159.0,3031.0,0.75946,0.005432,-0.650452,0.011108,-2.0,-2.0,1.0,7795.0,29.0,1334.0,-299.0,79.0,74.0,-120.0,74.0,-284.0,0.988105,-0.0062,0.153787,15590.0,-176.0,2644.0,-30.0,-26.0,31.0
2877.0,2810.0,2843.0,3131.0,3043.0,0.759338,0.005249,-0.650574,0.011169,-1.0,-2.0,1.0,7786.0,-7.0,1330.0,-308.0,46.0,72.0,-119.0,41.0,-293.0,0.988128,-0.006562,0.153446,15516.0,-220.0,2648.0,-20.0,-34.0,24.0
2898.0,2813.0,2866.0,3173.0,3023.0,0.759094,0.005005,-0.650879,0.011292,-1.0,-3.0,0.0,7773.0,-86.0,1300.0,-322.0,-27.0,49.0,-96.0,-31.0,-310.0,0.98827,-0.0071,0.152683,15578.0,-392.0,2510.0,-3.0,-52.0,15.0
2879.0,2807.0,2871.0,3151.0,3051.0,0.758911,0.004944,-0.651062,0.011414,0.0,-3.0,0.0,7775.0,-120.0,1279.0,-321.0,-59.0,32.0,-78.0,-63.0,-311.0,0.988309,-0.007358,0.15217,15536.0,-448.0,2364.0,3.0,-48.0,13.0
2879.0,2815.0,2867.0,3159.0,3043.0,0.758606,0.004883,-0.651428,0.011597,0.0,-2.0,-1.0,7810.0,-153.0,1207.0,-287.0,-89.0,-31.0,-10.0,-91.0,-287.0,0.988468,-0.007701,0.151235,15870.0,-292.0,2178.0,10.0,-40.0,-4.0
2887.0,2811.0,2863.0,3151.0,3043.0,0.758484,0.004883,-0.65155,0.011597,0.0,-1.0,-1.0,7837.0,-140.0,1160.0,-260.0,-76.0,-76.0,37.0,-77.0,-267.0,0.988494,-0.007705,0.150891,15782.0,-170.0,2058.0,1.0,-6.0,-9.0
2885.0,2813.0,2877.0,3166.0,3053.0,0.758484,0.004761,-0.651611,0.011353,-2.0,1.0,-1.0,7812.0,-152.0,1059.0,-286.0,-89.0,-176.0,132.0,-88.0,-308.0,0.988581,-0.007573,0.150807,15450.0,-452.0,1830.0,-28.0,29.0,-11.0
2879.0,2822.0,2873.0,3159.0,3051.0,0.758484,0.004639,-0.651611,0.011292,-1.0,0.0,-1.0,7779.0,-153.0,1036.0,-319.0,-90.0,-199.0,150.0,-89.0,-344.0,0.988578,-0.007679,0.150806,15406.0,-252.0,1986.0,-18.0,20.0,-8.0
2896.0,2815.0,2865.0,3163.0,3050.0,0.758484,0.004517,-0.651611,0.011108,-2.0,0.0,-1.0,7785.0,-61.0,1065.0,-313.0,1.0,-170.0,120.0,1.0,-335.0,0.988574,-0.007625,0.150804,15640.0,220.0,2288.0,-26.0,10.0,-4.0
2896.0,2801.0,2863.0,3155.0,3039.0,0.758484,0.004456,-0.65155,0.010925,-2.0,0.0,0.0,7788.0,-28.0,1085.0,-309.0,33.0,-151.0,101.0,32.0,-328.0,0.988478,-0.007478,0.15088,15568.0,76.0,2310.0,-43.0,10.0,0.0
2879.0,2811.0,2879.0,3147.0,3031.0,0.758606,0.004211,-0.651428,0.01062,-2.0,1.0,-1.0,7833.0,3.0,1131.0,-264.0,64.0,-107.0,64.0,63.0,-277.0,0.988444,-0.007447,0.151219,15886.0,94.0,2338.0,-27.0,30.0,-2.0
2874.0,2815.0,2875.0,3159.0,3059.0,0.758789,0.004211,-0.651245,0.010498,-1.0,2.0,-1.0,7844.0,14.0,1133.0,-253.0,73.0,-109.0,67.0,72.0,-267.0,0.988404,-0.007282,0.151733,15662.0,86.0,2294.0,-17.0,54.0,-9.0
2887.0,2813.0,2887.0,3159.0,3055.0,0.759033,0.00415,-0.65094,0.010254,-1.0,1.0,-1.0,7782.0,22.0,1110.0,-313.0,79.0,-139.0,88.0,78.0,-331.0,0.988255,-0.007049,0.152497,15438.0,-40.0,2190.0,-21.0,40.0,-1.0
2889.0,2800.0,2860.0,3159.0,3061.0,0.759155,0.004089,-0.650818,0.010254,-1.0,1.0,0.0,7760.0,4.0,1109.0,-335.0,62.0,-143.0,88.0,61.0,-353.0,0.988227,-0.007138,0.152841,15368.0,-96.0,2250.0,-9.0,38.0,7.0
2879.0,2799.0,2877.0,3159.0,3043.0,0.473022,-0.000549,0.068604,-1.21228,-19231.0,-12455.0,-29775.0,29548.0,8582.0,-8046.0,30068.0,9948.0,-21879.0,-27643.0,22331.0,25019.0,-0.06357,-0.166853,1.688667,15366.0,56.0,2406.0,3.0,43.0,17.0
2883.0,2813.0,2862.0,3163.0,3043.0,0.759583,0.003967,-0.65033,0.010376,-1.0,1.0,0.0,7738.0,1.0,1169.0,-356.0,62.0,-93.0,35.0,60.0,-366.0,0.98804,-0.007469,0.154129,15522.0,34.0,2498.0,-5.0,43.0,22.0
2891.0,2821.0,2880.0,3167.0,3047.0,0.759949,0.003723,-0.649902,0.010559,-1.0,2.0,1.0,7753.0,0.0,1236.0,-339.0,66.0,-35.0,-19.0,62.0,-340.0,0.987864,-0.008066,0.155247,15622.0,42.0,2708.0,-6.0,49.0,36.0
2883.0,2810.0,2870.0,3153.0,3051.0,0.760132,0.003601,-0.649658,0.01062,-1.0,2.0,1.0,7777.0,16.0,1271.0,-314.0,84.0,-5.0,-45.0,80.0,-311.0,0.987728,-0.008324,0.155844,15706.0,128.0,2760.0,-10.0,50.0,36.0
2883.0,2817.0,2877.0,3155.0,3055.0,0.760376,0.003479,-0.649414,0.010681,-1.0,2.0,1.0,7785.0,14.0,1293.0,-306.0,84.0,10.0,-59.0,80.0,-301.0,0.987672,-0.008582,0.156535,15564.0,8.0,2708.0,-14.0,46.0,41.0
2883.0,2815.0,2873.0,3155.0,3055.0,0.760559,0.003113,-0.649109,0.010864,-1.0,0.0,1.0,7795.0,15.0,1317.0,-294.0,91.0,29.0,-76.0,86.0,-286.0,0.987439,-0.009369,0.157216,15634.0,32.0,2636.0,-18.0,15.0,38.0
2878.0,2813.0,2871.0,3165.0,3031.0,0.76062,0.00293,-0.649048,0.010925,-1.0,0.0,1.0,7789.0,19.0,1330.0,-299.0,98.0,40.0,-88.0,93.0,-289.0,0.987422,-0.009725,0.157391,15528.0,20.0,2726.0,-20.0,6.0,37.0
2887.0,2807.0,2851.0,3146.0,3055.0,0.760559,0.002502,-0.649109,0.011047,-1.0,-1.0,1.0,7800.0,-20.0,1311.0,-288.0,66.0,23.0,-69.0,61.0,-281.0,0.987427,-0.010535,0.157224,15710.0,-124.0,2600.0,-19.0,-18.0,37.0
2891.0,2811.0,2871.0,3159.0,3057.0,0.760559,0.00238,-0.64917,0.011108,-1.0,-1.0,1.0,7814.0,-27.0,1309.0,-275.0,61.0,21.0,-65.0,56.0,-268.0,0.987517,-0.010802,0.157146,15696.0,-90.0,2560.0,-16.0,-8.0,30.0
2881.0,2815.0,2877.0,3159.0,3055.0,0.760681,0.002075,-0.649048,0.011169,-2.0,0.0,0.0,7799.0,-49.0,1282.0,-290.0,43.0,-8.0,-38.0,38.0,-288.0,0.987483,-0.011342,0.157493,15410.0,-224.0,2404.0,-25.0,21.0,22.0
2870.0,2815.0,2863.0,3151.0,3047.0,0.760742,0.001892,-0.648987,0.011169,-1.0,0.0,0.0,7786.0,-77.0,1270.0,-303.0,18.0,-21.0,-27.0,13.0,-302.0,0.987466,-0.011619,0.157666,15506.0,-330.0,2476.0,-20.0,19.0,17.0
2890.0,2806.0,2873.0,3159.0,3039.0,0.760864,0.001587,-0.648804,0.011169,-1.0,1.0,0.0,7773.0,-103.0,1224.0,-315.0,-4.0,-71.0,20.0,-7.0,-322.0,0.987339,-0.012079,0.15809,15440.0,-270.0,2296.0,-17.0,23.0,12.0
2887.0,2809.0,2875.0,3155.0,3055.0,0.760864,0.001465,-0.648804,0.011169,-2.0,0.0,0.0,7744.0,-118.0,1208.0,-344.0,-17.0,-87.0,31.0,-20.0,-353.0,0.987336,-0.012264,0.158091,15334.0,-372.0,2348.0,-24.0,10.0,15.0
2887.0,2811.0,2865.0,3161.0,3039.0,0.760803,0.001221,-0.648865,0.01123,-1.0,-1.0,0.0,7751.0,-141.0,1235.0,-337.0,-36.0,-58.0,4.0,-40.0,-341.0,0.987344,-0.012717,0.157921,15632.0,-308.0,2638.0,-4.0,-14.0,9.0
2887.0,2806.0,2871.0,3163.0,3029.0,0.760803,0.001221,-0.648865,0.011292,0.0,-1.0,0.0,7783.0,-101.0,1273.0,-305.0,3.0,-20.0,-28.0,-1.0,-304.0,0.987344,-0.012796,0.157922,15742.0,132.0,2752.0,4.0,-8.0,1.0
2895.0,2813.0,2893.0,3163.0,3053.0,0.760803,0.001282,-0.648865,0.01123,-1.0,0.0,-1.0,7800.0,-53.0,1294.0,-288.0,50.0,0.0,-46.0,45.0,-284.0,0.987346,-0.012624,0.157921,15708.0,200.0,2722.0,-6.0,1.0,-6.0
2882.0,2814.0,2869.0,3163.0,3039.0,0.760925,0.001343,-0.648804,0.010864,-2.0,-1.0,-1.0,7773.0,1.0,1304.0,-315.0,99.0,8.0,-59.0,94.0,-310.0,0.987411,-0.012054,0.158177,15516.0,-86.0,2560.0,-23.0,-10.0,-15.0
2889.0,2803.0,2875.0,3159.0,3046.0,0.760864,0.001282,-0.648804,0.010803,-1.0,-1.0,0.0,7790.0,-8.0,1295.0,-298.0,90.0,0.0,-48.0,85.0,-295.0,0.987331,-0.012068,0.158083,15660.0,70.0,2520.0,-4.0,-8.0,14.0
2883.0,2811.0,2874.0,3153.0,3043.0,0.760803,0.001221,-0.648926,0.010925,-1.0,-1.0,1.0,7731.0,9.0,1245.0,-358.0,109.0,-47.0,-11.0,104.0,-362.0,0.987436,-0.012322,0.157835,15380.0,-90.0,2300.0,-5.0,-22.0,31.0
2890.0,2815.0,2878.0,3157.0,3047.0,0.760681,0.00116,-0.649048,0.011047,0.0,-2.0,1.0,7749.0,-12.0,1228.0,-340.0,91.0,-62.0,6.0,86.0,-346.0,0.987463,-0.012576,0.157493,15644.0,-124.0,2360.0,12.0,-24.0,32.0
2887.0,2815.0,2867.0,3163.0,3047.0,0.76062,0.00116,-0.649109,0.011353,0.0,0.0,1.0,7796.0,11.0,1213.0,-293.0,117.0,-75.0,25.0,113.0,-302.0,0.987477,-0.012974,0.157328,15710.0,158.0,2424.0,6.0,5.0,29.0
2887.0,2807.0,2870.0,3159.0,3047.0,0.76062,0.001038,-0.649109,0.011353,-1.0,0.0,1.0,7811.0,8.0,1203.0,-278.0,115.0,-85.0,38.0,111.0,-289.0,0.987474,-0.01316,0.157328,15694.0,-82.0,2304.0,-17.0,15.0,39.0
2885.0,2813.0,2875.0,3159.0,3043.0,0.760742,0.00061,-0.648926,0.011658,-1.0,1.0,1.0,7815.0,-84.0,1195.0,-273.0,32.0,-97.0,52.0,28.0,-285.0,0.987345,-0.014201,0.15776,15620.0,-392.0,2398.0,-6.0,26.0,38.0
2885.0,2815.0,2875.0,3159.0,3047.0,0.760803,0.000427,-0.648865,0.01178,-1.0,1.0,1.0,7812.0,-105.0,1193.0,-276.0,14.0,-100.0,54.0,10.0,-288.0,0.987327,-0.014637,0.157935,15594.0,-338.0,2390.0,-1.0,30.0,32.0
2885.0,2811.0,2875.0,3163.0,3047.0,0.760986,0.000122,-0.648682,0.012146,-1.0,1.0,1.0,7782.0,-156.0,1211.0,-305.0,-28.0,-87.0,38.0,-32.0,-314.0,0.987279,-0.015572,0.15846,15490.0,-492.0,2518.0,-1.0,23.0,41.0
2885.0,2807.0,2867.0,3155.0,3043.0,0.761047,-6.1e-05,-0.64856,0.012329,0.0,1.0,1.0,7774.0,-172.0,1237.0,-312.0,-40.0,-63.0,13.0,-44.0,-317.0,0.987168,-0.016085,0.158716,15466.0,-404.0,2594.0,5.0,24.0,43.0
2885.0,2807.0,2869.0,3155.0,3047.0,0.761292,-0.000366,-0.648315,0.012756,0.0,1.0,1.0,7759.0,-192.0,1270.0,-327.0,-51.0,-35.0,-16.0,-56.0,-327.0,0.987105,-0.017098,0.159414,15494.0,-438.0,2594.0,6.0,25.0,36.0
2885.0,2815.0,2875.0,3163.0,3055.0,0.761353,-0.000488,-0.648193,0.012878,0.0,1.0,1.0,7776.0,-187.0,1290.0,-309.0,-44.0,-18.0,-30.0,-49.0,-307.0,0.986995,-0.017439,0.159669,15698.0,-340.0,2702.0,6.0,25.0,28.0
2889.0,2811.0,2869.0,3159.0,3047.0,0.761658,-0.000671,-0.647827,0.013062,-1.0,1.0,0.0,7802.0,-160.0,1319.0,-282.0,-12.0,3.0,-47.0,-17.0,-277.0,0.986828,-0.017946,0.160613,15608.0,-226.0,2744.0,-14.0,44.0,17.0
2887.0,2813.0,2875.0,3157.0,3047.0,0.761841,-0.000793,-0.647644,0.013,-2.0,1.0,0.0,7780.0,-166.0,1309.0,-303.0,-18.0,-10.0,-38.0,-24.0,-300.0,0.986783,-0.018048,0.161127,15436.0,-422.0,2576.0,-29.0,36.0,14.0
2883.0,2809.0,2871.0,3157.0,3047.0,0.761963,-0.00116,-0.647522,0.013,-2.0,0.0,0.0,7767.0,-182.0,1281.0,-316.0,-29.0,-41.0,-9.0,-35.0,-317.0,0.986745,-0.018603,0.16147,15526.0,-330.0,2542.0,-26.0,9.0,16.0
2887.0,2814.0,2871.0,3159.0,3047.0,0.761963,-0.001343,-0.647522,0.012939,-2.0,0.0,0.0,7767.0,-185.0,1272.0,-316.0,-30.0,-50.0,-1.0,-36.0,-319.0,0.986741,-0.018803,0.161468,15552.0,-448.0,2506.0,-32.0,1.0,15.0
2887.0,2815.0,2919.0,3163.0,3051.0,0.761963,-0.001648,-0.647522,0.013,-1.0,-1.0,0.0,7766.0,-221.0,1282.0,-317.0,-62.0,-40.0,-10.0,-68.0,-318.0,0.986733,-0.019348,0.161469,15568.0,-480.0,2654.0,0.0,0.0,10.0
2891.0,2811.0,2871.0,3157.0,3045.0,0.761963,-0.001648,-0.647461,0.013123,0.0,0.0,0.0,7793.0,-195.0,1299.0,-289.0,-35.0,-24.0,-22.0,-41.0,-288.0,0.986639,-0.019504,0.161551,15772.0,-178.0,2658.0,15.0,11.0,4.0
2883.0,2811.0,2870.0,3154.0,3047.0,0.762207,-0.001587,-0.647217,0.013123,-1.0,0.0,0.0,7757.0,-126.0,1320.0,-325.0,32.0,-9.0,-44.0,24.0,-322.0,0.986585,-0.019405,0.16224,15258.0,-74.0,2758.0,-11.0,21.0,6.0
2889.0,2813.0,2871.0,3159.0,3046.0,0.762268,-0.001648,-0.647156,0.013,-2.0,0.0,0.0,7761.0,-112.0,1326.0,-320.0,46.0,-4.0,-48.0,39.0,-317.0,0.98657,-0.019339,0.162408,15662.0,-170.0,2756.0,-25.0,3.0,6.0
2889.0,2813.0,2874.0,3163.0,3047.0,0.76239,-0.00177,-0.646973,0.012878,-1.0,1.0,-1.0,7768.0,-138.0,1323.0,-312.0,20.0,-10.0,-41.0,13.0,-309.0,0.986446,-0.019363,0.162828,15360.0,-396.0,2636.0,-9.0,26.0,-2.0
2887.0,2811.0,2870.0,3155.0,3046.0,0.762451,-0.00177,-0.646912,0.012878,0.0,0.0,-1.0,7724.0,-147.0,1297.0,-356.0,11.0,-38.0,-20.0,3.0,-357.0,0.986431,-0.019362,0.163,15212.0,-328.0,2444.0,8.0,8.0,-4.0
2887.0,2807.0,2874.0,3157.0,3045.0,0.76239,-0.001648,-0.646973,0.013,0.0,-1.0,0.0,7765.0,-121.0,1289.0,-315.0,37.0,-44.0,-8.0,30.0,-318.0,0.986448,-0.019335,0.162831,15764.0,-138.0,2588.0,10.0,-8.0,6.0
2887.0,2815.0,2879.0,3159.0,3055.0,0.76239,-0.001648,-0.646973,0.013,0.0,0.0,0.0,7787.0,-123.0,1284.0,-293.0,35.0,-49.0,0.0,29.0,-297.0,0.986448,-0.019335,0.162831,15626.0,-308.0,2532.0,5.0,11.0,0.0
2879.0,2815.0,2874.0,3159.0,2999.0,0.762451,-0.001526,-0.646912,0.013123,1.0,0.0,-1.0,7797.0,-154.0,1296.0,-283.0,4.0,-39.0,-7.0,-1.0,-285.0,0.986437,-0.019305,0.163007,15744.0,-340.0,2820.0,27.0,8.0,-5.0
2885.0,2811.0,2871.0,3155.0,3043.0,0.762573,-0.001343,-0.64679,0.013184,1.0,1.0,-1.0,7790.0,-102.0,1308.0,-290.0,54.0,-30.0,-18.0,48.0,-291.0,0.986413,-0.019102,0.163353,15492.0,190.0,2662.0,27.0,25.0,-5.0
2885.0,2815.0,2873.0,3159.0,3045.0,0.762634,-0.001465,-0.646667,0.013,-2.0,0.0,0.0,7759.0,-80.0,1302.0,-320.0,76.0,-38.0,-16.0,69.0,-323.0,0.986304,-0.019048,0.163599,15462.0,-388.0,2618.0,-34.0,6.0,19.0
2885.0,2813.0,2869.0,3158.0,3051.0,0.762695,-0.001587,-0.646606,0.013062,-1.0,0.0,0.0,7754.0,-118.0,1303.0,-325.0,40.0,-38.0,-16.0,33.0,-327.0,0.986286,-0.019312,0.163772,15460.0,-412.0,2560.0,-13.0,8.0,17.0
2890.0,2815.0,2875.0,3155.0,3047.0,0.762756,-0.001648,-0.646484,0.013184,0.0,0.0,0.0,7722.0,-131.0,1312.0,-356.0,29.0,-31.0,-28.0,21.0,-356.0,0.986177,-0.01956,0.164026,15292.0,-258.0,2656.0,11.0,5.0,7.0
2883.0,2810.0,2867.0,3157.0,3047.0,0.762817,-0.001648,-0.646484,0.013245,0.0,-1.0,0.0,7727.0,-127.0,1319.0,-352.0,33.0,-25.0,-33.0,25.0,-351.0,0.986255,-0.019639,0.164121,15504.0,-228.0,2650.0,5.0,-6.0,10.0
2895.0,2809.0,2871.0,3159.0,3047.0,0.762756,-0.001709,-0.646545,0.013306,-1.0,-1.0,0.0,7766.0,-142.0,1357.0,-313.0,20.0,13.0,-64.0,12.0,-306.0,0.986268,-0.019813,0.16395,15748.0,-438.0,2832.0,-2.0,-10.0,6.0
2891.0,2814.0,2871.0,3159.0,3045.0,0.762756,-0.001709,-0.646484,0.013306,0.0,-1.0,0.0,7796.0,-152.0,1354.0,-282.0,10.0,10.0,-56.0,3.0,-276.0,0.986175,-0.019811,0.164029,15764.0,-338.0,2688.0,4.0,0.0,0.0
2890.0,2813.0,2871.0,3167.0,3051.0,0.762878,-0.001648,-0.646423,0.013245,-1.0,0.0,-1.0,7816.0,-133.0,1326.0,-263.0,27.0,-19.0,-24.0,21.0,-263.0,0.986241,-0.019638,0.164293,15644.0,-280.0,2516.0,-11.0,16.0,-9.0
2883.0,2814.0,2875.0,3157.0,3047.0,0.762939,-0.001648,-0.646362,0.013123,-1.0,0.0,-1.0,7805.0,-141.0,1306.0,-274.0,18.0,-41.0,-4.0,12.0,-277.0,0.986227,-0.019478,0.164462,15510.0,-320.0,2496.0,-14.0,20.0,-9.0
2887.0,2807.0,2871.0,3159.0,3047.0,0.762939,-0.001648,-0.646362,0.013062,-1.0,-1.0,-1.0,7728.0,-151.0,1276.0,-351.0,7.0,-71.0,12.0,0.0,-357.0,0.986228,-0.0194,0.16446,15266.0,-332.0,2484.0,-3.0,-8.0,-4.0
2883.0,2815.0,2871.0,3163.0,3051.0,0.762878,-0.001648,-0.646423,0.013062,0.0,-1.0,0.0,7725.0,-155.0,1278.0,-354.0,3.0,-67.0,7.0,-3.0,-360.0,0.986242,-0.019401,0.164288,15468.0,-302.0,2564.0,8.0,-21.0,2.0
2887.0,2809.0,2875.0,3163.0,3046.0,0.762695,-0.001587,-0.646606,0.013123,-1.0,-1.0,0.0,7771.0,-114.0,1300.0,-308.0,44.0,-41.0,-10.0,37.0,-311.0,0.986286,-0.019391,0.163774,15740.0,-154.0,2650.0,-3.0,-20.0,8.0
2887.0,2813.0,2871.0,3155.0,3045.0,0.762695,-0.001648,-0.646606,0.013123,-1.0,-1.0,0.0,7796.0,-122.0,1318.0,-283.0,37.0,-23.0,-24.0,31.0,-283.0,0.986284,-0.019484,0.163774,15722.0,-342.0,2746.0,-5.0,-2.0,10.0
2885.0,2811.0,2878.0,3155.0,3050.0,0.762756,-0.001648,-0.646545,0.013184,0.0,0.0,0.0,7797.0,-123.0,1300.0,-282.0,37.0,-43.0,-4.0,31.0,-285.0,0.98627,-0.019562,0.163947,15626.0,-232.0,2538.0,3.0,11.0,8.0
2883.0,2815.0,2870.0,3165.0,3043.0,0.762817,-0.001709,-0.646484,0.013245,0.0,0.0,0.0,7794.0,-128.0,1278.0,-285.0,33.0,-66.0,17.0,27.0,-292.0,0.986254,-0.019732,0.164121,15592.0,-244.0,2402.0,1.0,19.0,11.0
2890.0,2819.0,2877.0,3158.0,3055.0,0.762939,-0.00177,-0.646362,0.013306,-1.0,0.0,0.0,7741.0,-145.0,1280.0,-338.0,18.0,-67.0,10.0,11.0,-344.0,0.986224,-0.019901,0.164466,15320.0,-424.0,2730.0,0.0,14.0,12.0
2887.0,2813.0,2875.0,3155.0,3051.0,0.763,-0.001831,-0.646301,0.013428,0.0,0.0,0.0,7717.0,-165.0,1281.0,-362.0,0.0,-67.0,6.0,-7.0,-368.0,0.986207,-0.020151,0.164641,15368.0,-406.0,2564.0,11.0,5.0,15.0
2886.0,2813.0,2879.0,3159.0,3047.0,0.763,-0.001831,-0.64624,0.013672,0.0,0.0,0.0,7739.0,-140.0,1310.0,-339.0,27.0,-39.0,-17.0,19.0,-341.0,0.986113,-0.020465,0.164727,15546.0,-148.0,2736.0,4.0,4.0,19.0
2890.0,2812.0,2879.0,3163.0,3047.0,0.763062,-0.001892,-0.646179,0.013672,-1.0,-1.0,1.0,7756.0,-142.0,1320.0,-322.0,26.0,-30.0,-23.0,18.0,-323.0,0.986097,-0.020557,0.164899,15634.0,-330.0,2666.0,-14.0,-1.0,23.0
2881.0,2811.0,2875.0,3158.0,3043.0,0.763123,-0.002136,-0.646118,0.013733,-1.0,1.0,0.0,7816.0,-181.0,1334.0,-261.0,-8.0,-18.0,-25.0,-13.0,-260.0,0.986076,-0.021007,0.165071,15692.0,-436.0,2690.0,-4.0,23.0,7.0
2891.0,2811.0,2875.0,3159.0,3046.0,0.763245,-0.002197,-0.645996,0.013794,-1.0,1.0,0.0,7808.0,-186.0,1326.0,-269.0,-12.0,-29.0,-15.0,-18.0,-269.0,0.986045,-0.021176,0.165417,15488.0,-386.0,2672.0,0.0,32.0,2.0
2891.0,2811.0,2874.0,3158.0,3021.0,0.763367,-0.002197,-0.645813,0.013794,-1.0,0.0,0.0,7753.0,-167.0,1316.0,-323.0,6.0,-42.0,-12.0,-1.0,-325.0,0.985924,-0.021171,0.16584,15390.0,-306.0,2642.0,-4.0,11.0,4.0
2885.0,2811.0,2865.0,3163.0,3043.0,0.763367,-0.002258,-0.645813,0.013794,-1.0,-1.0,0.0,7726.0,-168.0,1322.0,-350.0,6.0,-36.0,-22.0,-1.0,-351.0,0.985922,-0.021264,0.165839,15310.0,-364.0,2758.0,-4.0,-3.0,6.0
2885.0,2811.0,2875.0,3163.0,3047.0,0.763245,-0.002197,-0.645935,0.013855,0.0,-2.0,0.0,7727.0,-146.0,1346.0,-349.0,28.0,-9.0,-49.0,19.0,-346.0,0.985952,-0.021253,0.165497,15644.0,-88.0,2852.0,8.0,-37.0,3.0
2885.0,2811.0,2869.0,3159.0,3053.0,0.763184,-0.002136,-0.646057,0.013794,-1.0,-2.0,0.0,7782.0,-119.0,1362.0,-295.0,53.0,8.0,-57.0,45.0,-290.0,0.986061,-0.021084,0.165245,15954.0,-112.0,2778.0,-8.0,-29.0,3.0
2893.0,2807.0,2875.0,3150.0,3050.0,0.763184,-0.002197,-0.646057,0.013733,-1.0,-1.0,0.0,7812.0,-116.0,1366.0,-265.0,56.0,12.0,-56.0,49.0,-260.0,0.98606,-0.021098,0.165243,15704.0,-224.0,2700.0,-14.0,-2.0,4.0
2883.0,2815.0,2877.0,3167.0,3047.0,0.763184,-0.002258,-0.646057,0.013733,-1.0,-1.0,0.0,7781.0,-109.0,1339.0,-296.0,64.0,-14.0,-36.0,57.0,-295.0,0.986058,-0.021191,0.165243,15528.0,-56.0,2604.0,-1.0,-4.0,3.0
2887.0,2815.0,2871.0,3155.0,3047.0,0.763184,-0.002197,-0.646057,0.013672,-1.0,-1.0,0.0,7792.0,-93.0,1312.0,-285.0,79.0,-41.0,-7.0,72.0,-289.0,0.98606,-0.021019,0.165241,15644.0,-130.0,2412.0,-7.0,0.0,5.0
2883.0,2807.0,2871.0,3159.0,3039.0,0.763184,-0.002319,-0.646057,0.013733,-1.0,0.0,0.0,7779.0,-132.0,1245.0,-298.0,42.0,-108.0,56.0,36.0,-312.0,0.986057,-0.021285,0.165243,15526.0,-406.0,2312.0,0.0,11.0,11.0
2887.0,2813.0,2871.0,3173.0,3013.0,0.763184,-0.002319,-0.646057,0.013794,0.0,0.0,0.0,7780.0,-149.0,1220.0,-297.0,26.0,-133.0,81.0,20.0,-315.0,0.986056,-0.021364,0.165244,15546.0,-398.0,2316.0,11.0,19.0,8.0
2886.0,2807.0,2867.0,3138.0,3055.0,-0.008667,0.073792,-1.21228,0.783875,13491.0,4876.0,-6180.0,-20029.0,5989.0,-25481.0,-20804.0,21568.0,-18431.0,-28379.0,-8198.0,-27127.0,0.094673,-1.90183,-0.860534,15450.0,-192.0,2478.0,-7.0,25.0,14.0
2883.0,2815.0,2871.0,3159.0,3045.0,0.763367,-0.002441,-0.645813,0.013916,-1.0,0.0,0.0,7758.0,-142.0,1261.0,-318.0,35.0,-97.0,42.0,28.0,-330.0,0.985916,-0.021702,0.165842,15532.0,-384.0,2776.0,-14.0,20.0,17.0
2886.0,2815.0,2879.0,3151.0,3051.0,0.76355,-0.002625,-0.645569,0.013916,-1.0,1.0,0.0,7774.0,-144.0,1326.0,-301.0,36.0,-37.0,-14.0,29.0,-303.0,0.985775,-0.021975,0.166436,15602.0,-288.0,2814.0,-6.0,30.0,5.0
2887.0,2815.0,2873.0,3159.0,3047.0,0.763672,-0.002625,-0.645386,0.013916,-1.0,1.0,0.0,7773.0,-144.0,1336.0,-301.0,35.0,-30.0,-21.0,27.0,-302.0,0.985653,-0.021971,0.166859,15506.0,-284.0,2712.0,-3.0,32.0,5.0
2887.0,2811.0,2875.0,3155.0,3047.0,0.763916,-0.002686,-0.645142,0.013855,-1.0,1.0,0.0,7761.0,-138.0,1345.0,-312.0,42.0,-27.0,-26.0,34.0,-312.0,0.985594,-0.02198,0.167545,15464.0,-292.0,2688.0,-13.0,25.0,3.0
2883.0,2809.0,2879.0,3159.0,3047.0,0.763977,-0.002747,-0.645081,0.013794,-1.0,0.0,0.0,7746.0,-152.0,1354.0,-327.0,28.0,-19.0,-36.0,20.0,-326.0,0.985578,-0.021993,0.167715,15372.0,-428.0,2796.0,-17.0,21.0,3.0
2893.0,2807.0,2871.0,3159.0,3047.0,0.764099,-0.002808,-0.644958,0.013794,0.0,-1.0,-1.0,7731.0,-184.0,1371.0,-342.0,-3.0,-5.0,-52.0,-11.0,-337.0,0.985547,-0.022084,0.168058,15532.0,-358.0,2918.0,4.0,-5.0,-4.0
2887.0,2803.0,2873.0,3153.0,3056.0,0.764099,-0.002747,-0.644897,0.013794,0.0,-1.0,-1.0,7749.0,-163.0,1386.0,-323.0,17.0,8.0,-62.0,8.0,-317.0,0.985455,-0.021989,0.168137,15616.0,-172.0,2830.0,9.0,0.0,-8.0
2883.0,2814.0,2877.0,3167.0,3047.0,0.76416,-0.002686,-0.644897,0.013794,-1.0,-1.0,-1.0,7755.0,-147.0,1391.0,-318.0,32.0,12.0,-65.0,24.0,-312.0,0.985536,-0.021896,0.168231,15526.0,-204.0,2796.0,0.0,0.0,-5.0
2881.0,2813.0,2863.0,3153.0,3051.0,0.76416,-0.002747,-0.644897,0.013672,-1.0,-1.0,-1.0,7754.0,-135.0,1396.0,-319.0,43.0,17.0,-71.0,34.0,-312.0,0.985535,-0.021832,0.168227,15580.0,-252.0,2752.0,-10.0,-11.0,-1.0
2886.0,2811.0,2871.0,3155.0,3039.0,0.764099,-0.002747,-0.644897,0.013611,-1.0,-1.0,-1.0,7769.0,-141.0,1392.0,-303.0,37.0,14.0,-65.0,29.0,-297.0,0.985456,-0.021753,0.168132,15608.0,-318.0,2742.0,-5.0,-6.0,-3.0
2885.0,2815.0,2879.0,3167.0,3031.0,0.764099,-0.002686,-0.644897,0.01355,-1.0,0.0,-1.0,7773.0,-140.0,1352.0,-299.0,36.0,-25.0,-26.0,29.0,-299.0,0.985458,-0.021581,0.168131,15488.0,-230.0,2586.0,-4.0,5.0,-8.0
2890.0,2811.0,2865.0,3151.0,3053.0,0.76416,-0.002686,-0.644897,0.013489,-1.0,0.0,-1.0,7752.0,-140.0,1331.0,-321.0,36.0,-47.0,-8.0,28.0,-325.0,0.985537,-0.021502,0.168223,15316.0,-278.0,2440.0,-7.0,8.0,-7.0
