flex_1,flex_2,flex_3,flex_4,flex_5,Qw,Qx,Qy,Qz,GYRx,GYRy,GYRz,ACCx,ACCy,ACCz,ACCx_real,ACCy_real,ACCz_real,ACCx_world,ACCy_world,ACCz_world,GRAx,GRAy,GRAz,ACCx_raw,ACCy_raw,ACCz_raw,GYRx_raw,GYRy_raw,GYRz_raw
2877.0,2829.0,2915.0,3139.0,3037.0,1.0,0.0,0.0,0.0,0.0,0.0,0.0,0.0,0.0,0.0,0.0,0.0,0.0,0.0,0.0,0.0,0.0,0.0,0.0,0.0,0.0,0.0,0.0,0.0,0.0
2883.0,2813.0,2898.0,3141.0,3039.0,0.895813,-0.046265,-0.441956,0.000549,-1.0,-1.0,0.0,7375.0,-766.0,2603.0,888.0,-82.0,-2353.0,2401.0,-238.0,-713.0,0.791768,-0.083374,0.605016,14710.0,-1636.0,5200.0,-15.0,-9.0,10.0
2879.0,2819.0,2890.0,3119.0,3045.0,0.894775,-0.04657,-0.444092,0.000671,0.0,-1.0,0.0,7393.0,-788.0,2602.0,883.0,-100.0,-2323.0,2376.0,-254.0,-686.0,0.794662,-0.083935,0.601237,14820.0,-1552.0,5180.0,7.0,-7.0,9.0
2891.0,2831.0,2890.0,3147.0,3043.0,0.894226,-0.046692,-0.445129,0.000732,0.0,-1.0,0.0,7399.0,-778.0,2610.0,877.0,-88.0,-2299.0,2356.0,-240.0,-672.0,0.796024,-0.084158,0.59932,14828.0,-1498.0,5290.0,7.0,-7.0,10.0
2865.0,2827.0,2897.0,3133.0,3030.0,0.89325,-0.046814,-0.447144,0.000854,0.0,0.0,0.0,7433.0,-778.0,2616.0,889.0,-86.0,-2264.0,2338.0,-234.0,-631.0,0.798742,-0.084397,0.595767,14938.0,-1520.0,5268.0,10.0,15.0,9.0
2871.0,2813.0,2891.0,3143.0,3025.0,0.892761,-0.046875,-0.447998,0.000916,0.0,0.0,0.0,7413.0,-778.0,2614.0,860.0,-85.0,-2253.0,2313.0,-233.0,-643.0,0.799825,-0.084517,0.594124,14634.0,-1574.0,5214.0,6.0,21.0,4.0
2883.0,2813.0,2891.0,3135.0,3037.0,0.891846,-0.047058,-0.449829,0.000916,0.0,0.0,-1.0,7381.0,-781.0,2611.0,808.0,-86.0,-2229.0,2266.0,-235.0,-661.0,0.80227,-0.084761,0.590829,14704.0,-1554.0,5212.0,3.0,5.0,-3.0
2879.0,2819.0,2887.0,3131.0,3039.0,0.891357,-0.04718,-0.450806,0.000916,0.0,0.0,-1.0,7377.0,-781.0,2618.0,794.0,-85.0,-2207.0,2241.0,-233.0,-654.0,0.803572,-0.084934,0.589067,14724.0,-1550.0,5320.0,1.0,4.0,-6.0
2885.0,2827.0,2898.0,3139.0,3035.0,0.890442,-0.047363,-0.452637,0.000854,-1.0,-1.0,-1.0,7365.0,-778.0,2625.0,762.0,-80.0,-2173.0,2198.0,-227.0,-651.0,0.806012,-0.085122,0.585764,14744.0,-1562.0,5272.0,-6.0,-3.0,-4.0
2883.0,2834.0,2895.0,3135.0,3023.0,0.889954,-0.047485,-0.453613,0.000793,-1.0,-1.0,-1.0,7368.0,-773.0,2626.0,754.0,-74.0,-2158.0,2183.0,-220.0,-645.0,0.807314,-0.085239,0.583998,14780.0,-1484.0,5264.0,-5.0,-5.0,-7.0
2895.0,2819.0,2896.0,3131.0,3026.0,0.888977,-0.047729,-0.455505,0.000671,-1.0,0.0,-1.0,7390.0,-766.0,2636.0,756.0,-65.0,-2119.0,2155.0,-209.0,-612.0,0.809804,-0.085472,0.580517,14806.0,-1596.0,5280.0,-20.0,1.0,-5.0
2886.0,2826.0,2898.0,3141.0,3039.0,0.888489,-0.047913,-0.45636,0.00061,-1.0,0.0,0.0,7389.0,-773.0,2635.0,746.0,-70.0,-2106.0,2140.0,-214.0,-608.0,0.810883,-0.085697,0.578853,14738.0,-1594.0,5232.0,-21.0,3.0,4.0
2886.0,2833.0,2895.0,3143.0,3007.0,0.887512,-0.048218,-0.458191,0.00061,0.0,0.0,0.0,7407.0,-791.0,2627.0,744.0,-85.0,-2086.0,2124.0,-228.0,-587.0,0.813241,-0.086147,0.575414,14842.0,-1600.0,5262.0,3.0,6.0,1.0
2879.0,2815.0,2879.0,3131.0,3029.0,0.887085,-0.048279,-0.459045,0.00061,0.0,0.0,0.0,7399.0,-781.0,2626.0,727.0,-74.0,-2075.0,2107.0,-217.0,-592.0,0.814366,-0.086215,0.573867,14714.0,-1474.0,5198.0,14.0,8.0,6.0
2891.0,2825.0,2891.0,3131.0,3034.0,0.886169,-0.04834,-0.460815,0.000793,0.0,0.0,0.0,7412.0,-736.0,2625.0,722.0,-28.0,-2049.0,2087.0,-168.0,-577.0,0.816644,-0.086406,0.570609,14896.0,-1324.0,5268.0,6.0,2.0,16.0
2885.0,2823.0,2895.0,3141.0,3035.0,0.885681,-0.048462,-0.46167,0.000854,-1.0,0.0,0.0,7411.0,-722.0,2628.0,712.0,-12.0,-2032.0,2069.0,-151.0,-572.0,0.817702,-0.086633,0.568944,14796.0,-1370.0,5312.0,-4.0,4.0,14.0
2879.0,2830.0,2886.0,3141.0,3039.0,0.884766,-0.048767,-0.463379,0.000916,-1.0,-1.0,0.0,7410.0,-748.0,2630.0,693.0,-34.0,-2004.0,2037.0,-172.0,-562.0,0.819874,-0.087143,0.565713,14832.0,-1666.0,5262.0,-11.0,0.0,16.0
2870.0,2820.0,2885.0,3131.0,3035.0,0.884338,-0.048889,-0.464233,0.000977,0.0,0.0,0.0,7403.0,-776.0,2624.0,677.0,-60.0,-1997.0,2022.0,-198.0,-565.0,0.820983,-0.087376,0.564153,14750.0,-1730.0,5188.0,1.0,2.0,10.0
2879.0,2825.0,2887.0,3135.0,3035.0,0.883423,-0.049072,-0.465942,0.001099,0.0,-1.0,0.0,7393.0,-784.0,2624.0,649.0,-65.0,-1971.0,1987.0,-202.0,-565.0,0.823141,-0.087727,0.560927,14754.0,-1512.0,5272.0,7.0,0.0,2.0
2881.0,2815.0,2895.0,3140.0,3037.0,0.882996,-0.049194,-0.466736,0.001099,-1.0,-1.0,0.0,7394.0,-787.0,2633.0,642.0,-66.0,-1949.0,1966.0,-202.0,-555.0,0.824143,-0.087902,0.55942,14812.0,-1640.0,5354.0,-5.0,-3.0,3.0
2883.0,2826.0,2896.0,3135.0,3022.0,0.88208,-0.049438,-0.468445,0.00116,-1.0,-1.0,0.0,7393.0,-801.0,2628.0,623.0,-77.0,-1928.0,1939.0,-212.0,-550.0,0.826297,-0.088304,0.556182,14764.0,-1594.0,5272.0,-1.0,-3.0,7.0
2885.0,2815.0,2895.0,3135.0,3037.0,0.881653,-0.0495,-0.469238,0.00116,0.0,-1.0,0.0,7395.0,-804.0,2625.0,617.0,-80.0,-1918.0,1928.0,-215.0,-546.0,0.827296,-0.088371,0.554678,14808.0,-1618.0,5224.0,4.0,-4.0,2.0
2881.0,2819.0,2896.0,3135.0,3039.0,0.880798,-0.049561,-0.470886,0.001221,0.0,0.0,-1.0,7390.0,-774.0,2625.0,595.0,-49.0,-1893.0,1899.0,-182.0,-546.0,0.829391,-0.088455,0.551617,14712.0,-1382.0,5168.0,12.0,1.0,-3.0
2885.0,2818.0,2883.0,3143.0,3039.0,0.880371,-0.049622,-0.47168,0.001221,0.0,-1.0,0.0,7386.0,-758.0,2622.0,583.0,-32.0,-1884.0,1887.0,-165.0,-549.0,0.830385,-0.088522,0.550111,14764.0,-1450.0,5236.0,1.0,-5.0,1.0
2882.0,2827.0,2896.0,3135.0,3035.0,0.879456,-0.049744,-0.473328,0.001221,0.0,0.0,0.0,7399.0,-757.0,2633.0,579.0,-30.0,-1847.0,1856.0,-160.0,-525.0,0.83242,-0.08865,0.54693,14810.0,-1518.0,5208.0,7.0,1.0,3.0
2882.0,2823.0,2894.0,3131.0,3035.0,0.879089,-0.049744,-0.47406,0.001221,0.0,0.0,0.0,7378.0,-740.0,2632.0,551.0,-14.0,-1837.0,1834.0,-145.0,-541.0,0.833361,-0.088616,0.545592,14612.0,-1348.0,5274.0,11.0,5.0,3.0
2879.0,2815.0,2893.0,3135.0,3031.0,0.878235,-0.049927,-0.475586,0.001221,-1.0,-1.0,0.0,7386.0,-724.0,2624.0,543.0,3.0,-1821.0,1818.0,-127.0,-534.0,0.83523,-0.088856,0.542623,14892.0,-1514.0,5248.0,-13.0,-5.0,8.0
2879.0,2823.0,2896.0,3135.0,3039.0,0.877808,-0.050049,-0.476379,0.001221,-1.0,-1.0,0.0,7396.0,-746.0,2617.0,545.0,-16.0,-1815.0,1815.0,-146.0,-524.0,0.836217,-0.08903,0.541105,14844.0,-1604.0,5182.0,-5.0,0.0,10.0
2886.0,2826.0,2890.0,3139.0,3039.0,0.876953,-0.050232,-0.477905,0.001343,0.0,0.0,0.0,7408.0,-766.0,2616.0,542.0,-33.0,-1792.0,1795.0,-161.0,-507.0,0.838066,-0.089386,0.538132,14864.0,-1580.0,5236.0,6.0,3.0,8.0
2883.0,2819.0,2891.0,3141.0,3037.0,0.876587,-0.050293,-0.478638,0.001404,0.0,0.0,0.0,7404.0,-764.0,2614.0,530.0,-30.0,-1783.0,1782.0,-157.0,-509.0,0.838994,-0.089516,0.536783,14778.0,-1488.0,5206.0,8.0,8.0,6.0
2881.0,2819.0,2895.0,3135.0,3035.0,0.875793,-0.050415,-0.480042,0.001404,-1.0,0.0,0.0,7389.0,-764.0,2601.0,502.0,-29.0,-1773.0,1760.0,-157.0,-522.0,0.840693,-0.089654,0.534035,14760.0,-1560.0,5160.0,-7.0,3.0,8.0
2879.0,2823.0,2895.0,3141.0,3035.0,0.875366,-0.050598,-0.480774,0.001465,-1.0,0.0,0.0,7377.0,-777.0,2597.0,482.0,-39.0,-1765.0,1743.0,-167.0,-530.0,0.841558,-0.089992,0.532564,14624.0,-1586.0,5138.0,-3.0,5.0,10.0
2883.0,2831.0,2897.0,3141.0,3039.0,0.874573,-0.050781,-0.482239,0.001587,0.0,-1.0,0.0,7366.0,-801.0,2606.0,457.0,-60.0,-1733.0,1703.0,-187.0,-527.0,0.843345,-0.090354,0.529747,14828.0,-1656.0,5256.0,12.0,-7.0,9.0
2883.0,2822.0,2896.0,3135.0,3027.0,0.874146,-0.050781,-0.482971,0.001709,0.0,-1.0,0.0,7379.0,-791.0,2620.0,463.0,-50.0,-1707.0,1686.0,-174.0,-506.0,0.844201,-0.090431,0.528293,14856.0,-1488.0,5340.0,18.0,0.0,8.0
2883.0,2819.0,2887.0,3138.0,3031.0,0.873413,-0.050842,-0.484253,0.001709,-1.0,0.0,0.0,7398.0,-778.0,2630.0,469.0,-36.0,-1677.0,1666.0,-157.0,-481.0,0.845732,-0.090468,0.525768,14854.0,-1610.0,5224.0,-6.0,10.0,3.0
2887.0,2828.0,2899.0,3141.0,3035.0,0.873047,-0.050964,-0.484924,0.001709,-1.0,0.0,-1.0,7410.0,-808.0,2625.0,475.0,-65.0,-1671.0,1663.0,-185.0,-468.0,0.846549,-0.090646,0.524465,14888.0,-1814.0,5216.0,-4.0,19.0,-1.0
2883.0,2826.0,2894.0,3135.0,3027.0,0.872437,-0.051025,-0.485962,0.001648,0.0,1.0,-1.0,7417.0,-823.0,2625.0,472.0,-80.0,-1654.0,1648.0,-199.0,-456.0,0.847774,-0.090635,0.522386,14844.0,-1620.0,5246.0,15.0,41.0,-18.0
2879.0,2815.0,2867.0,3135.0,3039.0,0.872192,-0.051025,-0.48645,0.001587,0.0,2.0,-1.0,7421.0,-813.0,2626.0,470.0,-71.0,-1646.0,1641.0,-189.0,-453.0,0.848394,-0.090552,0.521485,14858.0,-1572.0,5308.0,6.0,52.0,-18.0
2881.0,2818.0,2895.0,3135.0,3038.0,0.871765,-0.051147,-0.487244,0.001343,-1.0,2.0,-1.0,7368.0,-819.0,2635.0,409.0,-77.0,-1624.0,1590.0,-197.0,-490.0,0.849387,-0.090486,0.519954,14410.0,-1834.0,5202.0,-13.0,55.0,-14.0
2885.0,2823.0,2891.0,3143.0,3035.0,0.87146,-0.05127,-0.487732,0.001343,0.0,1.0,-1.0,7321.0,-837.0,2629.0,358.0,-94.0,-1622.0,1562.0,-217.0,-528.0,0.84994,-0.090669,0.518933,14426.0,-1688.0,5242.0,7.0,23.0,-4.0
2887.0,2827.0,2895.0,3139.0,3035.0,0.870789,-0.051331,-0.489014,0.001404,0.0,-1.0,-1.0,7331.0,-838.0,2679.0,355.0,-94.0,-1552.0,1502.0,-211.0,-490.0,0.851511,-0.090769,0.516506,14774.0,-1768.0,5462.0,9.0,-12.0,-6.0
2883.0,2823.0,2891.0,3143.0,3035.0,0.870361,-0.051331,-0.489685,0.001404,0.0,-1.0,-1.0,7355.0,-838.0,2697.0,373.0,-94.0,-1522.0,1487.0,-207.0,-457.0,0.852262,-0.090727,0.515105,14864.0,-1620.0,5520.0,20.0,-17.0,-8.0
2879.0,2818.0,2894.0,3134.0,3031.0,0.869629,-0.05127,-0.491028,0.001343,-1.0,-1.0,-1.0,7412.0,-795.0,2736.0,416.0,-53.0,-1462.0,1461.0,-159.0,-389.0,0.853886,-0.09049,0.512519,14928.0,-1440.0,5518.0,-4.0,-6.0,-17.0
2887.0,2823.0,2891.0,3135.0,3031.0,0.869263,-0.051331,-0.491638,0.001221,-1.0,0.0,-1.0,7416.0,-789.0,2732.0,415.0,-48.0,-1456.0,1456.0,-154.0,-385.0,0.8546,-0.09044,0.511276,14808.0,-1548.0,5436.0,-15.0,5.0,-14.0
2886.0,2827.0,2881.0,3135.0,3030.0,0.868591,-0.051453,-0.492798,0.000977,-1.0,-1.0,-1.0,7371.0,-770.0,2713.0,358.0,-29.0,-1456.0,1429.0,-138.0,-431.0,0.855979,-0.090345,0.508955,14614.0,-1456.0,5382.0,-10.0,-7.0,-19.0
2879.0,2819.0,2893.0,3135.0,3035.0,0.868225,-0.051514,-0.493469,0.000854,-1.0,-1.0,-1.0,7364.0,-762.0,2710.0,345.0,-22.0,-1448.0,1416.0,-132.0,-437.0,0.856797,-0.090294,0.50765,14710.0,-1466.0,5368.0,-9.0,-16.0,-17.0
2886.0,2815.0,2887.0,3135.0,3039.0,0.867432,-0.051514,-0.494873,0.000671,-1.0,-2.0,-1.0,7363.0,-731.0,2690.0,330.0,6.0,-1446.0,1410.0,-105.0,-447.0,0.858468,-0.090034,0.504885,14734.0,-1340.0,5350.0,-4.0,-29.0,-13.0
2883.0,2831.0,2903.0,3141.0,3029.0,0.867004,-0.051575,-0.495667,0.000549,-1.0,-2.0,-1.0,7379.0,-711.0,2683.0,338.0,26.0,-1440.0,1410.0,-84.0,-436.0,0.859433,-0.089976,0.503352,14866.0,-1330.0,5316.0,-12.0,-32.0,-11.0
2884.0,2829.0,2905.0,3143.0,3027.0,0.86615,-0.051697,-0.49707,0.000366,-1.0,-1.0,-1.0,7435.0,-709.0,2660.0,381.0,27.0,-1439.0,1433.0,-81.0,-394.0,0.861037,-0.089918,0.500464,14990.0,-1398.0,5214.0,-8.0,-7.0,-8.0
2879.0,2819.0,2893.0,3135.0,3038.0,0.865784,-0.051758,-0.497681,0.000305,-1.0,0.0,-1.0,7437.0,-704.0,2647.0,377.0,32.0,-1442.0,1434.0,-77.0,-397.0,0.861736,-0.089926,0.499217,14854.0,-1356.0,5238.0,-4.0,3.0,-4.0
2879.0,2826.0,2893.0,3135.0,3031.0,0.865112,-0.051819,-0.49884,0.000244,-1.0,-1.0,0.0,7397.0,-677.0,2621.0,326.0,59.0,-1449.0,1417.0,-53.0,-443.0,0.863081,-0.089902,0.496892,14638.0,-1266.0,5176.0,-14.0,0.0,1.0
2879.0,2829.0,2895.0,3141.0,3027.0,0.864746,-0.051941,-0.499451,0.000183,-1.0,-1.0,0.0,7376.0,-680.0,2623.0,299.0,57.0,-1437.0,1394.0,-56.0,-459.0,0.863777,-0.090014,0.495637,14634.0,-1390.0,5234.0,-22.0,-15.0,5.0
2887.0,2829.0,2896.0,3143.0,3039.0,0.863953,-0.052246,-0.500793,0.000122,-1.0,-1.0,0.0,7403.0,-709.0,2618.0,314.0,31.0,-1419.0,1386.0,-80.0,-430.0,0.865311,-0.090399,0.49289,14886.0,-1544.0,5226.0,-15.0,-17.0,6.0
2879.0,2827.0,2896.0,3139.0,3031.0,0.863586,-0.052368,-0.501465,0.000122,-1.0,-1.0,0.0,7410.0,-722.0,2612.0,314.0,19.0,-1414.0,1381.0,-92.0,-424.0,0.866104,-0.090571,0.491572,14874.0,-1508.0,5204.0,-6.0,-13.0,5.0
2883.0,2827.0,2895.0,3139.0,3035.0,0.862915,-0.05249,-0.502625,0.000122,-1.0,0.0,-1.0,7438.0,-740.0,2619.0,331.0,3.0,-1388.0,1367.0,-105.0,-392.0,0.867432,-0.090712,0.489236,14896.0,-1546.0,5278.0,-6.0,11.0,-2.0
2879.0,2822.0,2891.0,3135.0,3039.0,0.86261,-0.052612,-0.503052,6.1e-05,-1.0,0.0,0.0,7421.0,-753.0,2626.0,311.0,-8.0,-1373.0,1344.0,-115.0,-399.0,0.867868,-0.090829,0.488267,14710.0,-1604.0,5302.0,-10.0,18.0,1.0
2885.0,2832.0,2901.0,3147.0,3039.0,0.862061,-0.052856,-0.504028,0.000122,0.0,0.0,0.0,7373.0,-783.0,2622.0,254.0,-35.0,-1361.0,1305.0,-145.0,-437.0,0.868993,-0.091254,0.48631,14658.0,-1630.0,5250.0,2.0,4.0,6.0
2879.0,2822.0,2901.0,3135.0,3039.0,0.861755,-0.052856,-0.504578,0.000183,0.0,-1.0,0.0,7361.0,-780.0,2623.0,237.0,-32.0,-1352.0,1290.0,-142.0,-447.0,0.869626,-0.091283,0.48523,14668.0,-1536.0,5240.0,10.0,-3.0,4.0
2879.0,2822.0,2896.0,3138.0,3025.0,0.861084,-0.052917,-0.505737,0.000244,-1.0,-1.0,0.0,7374.0,-759.0,2634.0,239.0,-10.0,-1321.0,1266.0,-117.0,-428.0,0.870939,-0.09138,0.482895,14830.0,-1498.0,5298.0,0.0,-10.0,5.0
2883.0,2822.0,2895.0,3147.0,3037.0,0.860718,-0.052979,-0.506287,0.000244,-1.0,-1.0,0.0,7392.0,-761.0,2636.0,252.0,-11.0,-1310.0,1263.0,-116.0,-410.0,0.871514,-0.091446,0.481702,14920.0,-1558.0,5288.0,-2.0,-5.0,5.0
2891.0,2827.0,2891.0,3141.0,3029.0,0.860107,-0.053101,-0.507263,0.000305,0.0,0.0,0.0,7407.0,-771.0,2641.0,258.0,-20.0,-1288.0,1248.0,-123.0,-390.0,0.872569,-0.091654,0.479649,14868.0,-1510.0,5288.0,7.0,5.0,2.0
2882.0,2823.0,2896.0,3143.0,3038.0,0.859863,-0.053101,-0.507751,0.000305,0.0,0.0,0.0,7409.0,-757.0,2642.0,256.0,-6.0,-1279.0,1240.0,-108.0,-388.0,0.873161,-0.091628,0.478734,14816.0,-1422.0,5292.0,8.0,11.0,1.0
2877.0,2823.0,2895.0,3135.0,3039.0,0.859375,-0.053162,-0.508606,0.000244,-1.0,0.0,-1.0,7388.0,-744.0,2646.0,227.0,6.0,-1261.0,1212.0,-96.0,-403.0,0.874141,-0.09162,0.477019,14646.0,-1438.0,5252.0,0.0,14.0,-2.0
2879.0,2830.0,2895.0,3135.0,3043.0,0.85907,-0.053162,-0.509094,0.000244,-1.0,-1.0,0.0,7357.0,-738.0,2636.0,191.0,12.0,-1263.0,1197.0,-92.0,-435.0,0.874669,-0.091588,0.475998,14556.0,-1446.0,5212.0,-2.0,-1.0,3.0
2889.0,2819.0,2889.0,3155.0,3055.0,0.858398,-0.053284,-0.510193,0.000305,0.0,-1.0,0.0,7373.0,-745.0,2642.0,197.0,6.0,-1238.0,1179.0,-96.0,-414.0,0.875865,-0.091789,0.473712,14866.0,-1544.0,5340.0,6.0,-16.0,7.0
2883.0,2819.0,2882.0,3135.0,3047.0,0.858093,-0.053284,-0.510742,0.000366,0.0,-1.0,0.0,7384.0,-737.0,2644.0,203.0,15.0,-1227.0,1173.0,-85.0,-403.0,0.87649,-0.091819,0.472627,14822.0,-1416.0,5280.0,7.0,-11.0,8.0
2883.0,2815.0,2882.0,3143.0,3031.0,0.857483,-0.053406,-0.511719,0.000427,0.0,0.0,0.0,7413.0,-752.0,2663.0,224.0,1.0,-1191.0,1151.0,-95.0,-363.0,0.877535,-0.092026,0.470569,14930.0,-1572.0,5306.0,2.0,1.0,8.0
2883.0,2821.0,2895.0,3135.0,3027.0,0.857239,-0.053467,-0.512146,0.000427,0.0,0.0,0.0,7412.0,-749.0,2660.0,219.0,5.0,-1187.0,1146.0,-91.0,-365.0,0.878017,-0.092105,0.469706,14784.0,-1438.0,5322.0,2.0,13.0,2.0
2874.0,2829.0,2891.0,3143.0,3039.0,0.856689,-0.05365,-0.513,0.000427,-1.0,-1.0,0.0,7365.0,-760.0,2653.0,164.0,-3.0,-1179.0,1113.0,-101.0,-407.0,0.878918,-0.092361,0.467869,14596.0,-1592.0,5258.0,-14.0,-2.0,11.0
2891.0,2820.0,2897.0,3135.0,3031.0,0.856384,-0.053772,-0.513489,0.000488,-1.0,-1.0,0.0,7359.0,-775.0,2652.0,154.0,-16.0,-1172.0,1102.0,-114.0,-410.0,0.879435,-0.0926,0.466832,14744.0,-1646.0,5272.0,-8.0,-14.0,13.0
2879.0,2819.0,2895.0,3135.0,3039.0,0.855774,-0.053894,-0.514526,0.000671,0.0,-1.0,0.0,7370.0,-789.0,2651.0,156.0,-27.0,-1155.0,1089.0,-123.0,-396.0,0.880564,-0.092933,0.464708,14812.0,-1564.0,5328.0,12.0,-21.0,10.0
2879.0,2827.0,2881.0,3135.0,3027.0,0.855408,-0.053955,-0.515076,0.000732,0.0,-1.0,0.0,7392.0,-780.0,2657.0,173.0,-17.0,-1140.0,1084.0,-111.0,-374.0,0.88112,-0.093062,0.463509,14940.0,-1496.0,5356.0,7.0,-17.0,9.0
2891.0,2833.0,2907.0,3143.0,3035.0,0.854858,-0.054077,-0.516052,0.000793,-1.0,0.0,0.0,7426.0,-804.0,2656.0,198.0,-39.0,-1125.0,1083.0,-130.0,-340.0,0.882217,-0.093276,0.461549,14990.0,-1752.0,5342.0,0.0,2.0,2.0
2880.0,2827.0,2892.0,3143.0,3047.0,0.854614,-0.054138,-0.516418,0.000793,0.0,0.0,0.0,7421.0,-810.0,2646.0,190.0,-45.0,-1128.0,1081.0,-137.0,-347.0,0.882591,-0.093354,0.460747,14762.0,-1610.0,5194.0,10.0,13.0,0.0
2881.0,2821.0,2891.0,3133.0,3027.0,0.854126,-0.054138,-0.517212,0.000732,-1.0,0.0,-1.0,7381.0,-780.0,2638.0,143.0,-16.0,-1122.0,1057.0,-110.0,-387.0,0.883449,-0.093239,0.459093,14638.0,-1542.0,5202.0,-4.0,3.0,-8.0
2893.0,2826.0,2879.0,3135.0,3023.0,0.853821,-0.054199,-0.5177,0.000671,-1.0,-1.0,-1.0,7362.0,-778.0,2628.0,120.0,-14.0,-1124.0,1048.0,-110.0,-407.0,0.883974,-0.093248,0.458059,14608.0,-1536.0,5194.0,-10.0,-8.0,-5.0
2875.0,2823.0,2887.0,3135.0,3054.0,0.85321,-0.05426,-0.518677,0.00061,0.0,-1.0,-1.0,7360.0,-783.0,2622.0,109.0,-19.0,-1113.0,1034.0,-114.0,-409.0,0.885015,-0.093224,0.455999,14766.0,-1556.0,5234.0,3.0,-20.0,-12.0
2887.0,2831.0,2905.0,3127.0,3039.0,0.852905,-0.05426,-0.519226,0.000549,0.0,-1.0,-1.0,7382.0,-780.0,2625.0,126.0,-17.0,-1101.0,1032.0,-110.0,-387.0,0.885642,-0.093128,0.454908,14916.0,-1536.0,5278.0,10.0,-14.0,-14.0
2879.0,2819.0,2898.0,3135.0,3023.0,0.852417,-0.054077,-0.520081,0.000549,0.0,0.0,-1.0,7409.0,-759.0,2633.0,146.0,0.0,-1079.0,1023.0,-90.0,-359.0,0.886592,-0.092764,0.453207,14886.0,-1392.0,5290.0,18.0,5.0,-14.0
2882.0,2825.0,2889.0,3152.0,3025.0,0.852173,-0.053955,-0.520447,0.000488,0.0,0.0,-1.0,7407.0,-741.0,2635.0,140.0,16.0,-1071.0,1015.0,-74.0,-361.0,0.886969,-0.092466,0.452423,14810.0,-1376.0,5256.0,11.0,12.0,-13.0
2887.0,2823.0,2917.0,3154.0,3039.0,0.851746,-0.053955,-0.521179,0.000366,-1.0,0.0,-1.0,7374.0,-712.0,2623.0,101.0,44.0,-1071.0,999.0,-48.0,-397.0,0.887785,-0.092294,0.450932,14646.0,-1354.0,5194.0,-7.0,1.0,-4.0
2875.0,2815.0,2902.0,3141.0,3015.0,0.85144,-0.054016,-0.521606,0.000305,-1.0,-1.0,-1.0,7367.0,-710.0,2619.0,90.0,46.0,-1067.0,991.0,-46.0,-404.0,0.888201,-0.092301,0.44996,14730.0,-1398.0,5180.0,-7.0,-7.0,-2.0
2886.0,2815.0,2890.0,3141.0,3031.0,0.850952,-0.054016,-0.522461,0.000305,0.0,0.0,0.0,7388.0,-697.0,2621.0,104.0,58.0,-1050.0,984.0,-32.0,-383.0,0.889146,-0.092249,0.448236,14848.0,-1296.0,5228.0,2.0,4.0,3.0
2896.0,2807.0,2896.0,3151.0,3034.0,0.850708,-0.054077,-0.522827,0.000305,-1.0,0.0,0.0,7403.0,-687.0,2624.0,116.0,69.0,-1041.0,982.0,-20.0,-368.0,0.889513,-0.092327,0.447432,14896.0,-1328.0,5296.0,-5.0,11.0,10.0
2871.0,2832.0,2868.0,3143.0,3039.0,0.850281,-0.05426,-0.523438,0.000305,-1.0,0.0,0.0,7409.0,-722.0,2623.0,117.0,36.0,-1031.0,972.0,-52.0,-359.0,0.890105,-0.092592,0.446047,14760.0,-1668.0,5232.0,-9.0,18.0,11.0
2870.0,2819.0,2903.0,3142.0,3024.0,0.850098,-0.054382,-0.523804,0.000366,0.0,0.0,0.0,7397.0,-750.0,2629.0,101.0,10.0,-1019.0,953.0,-78.0,-364.0,0.890529,-0.092844,0.445338,14738.0,-1630.0,5340.0,6.0,11.0,8.0
2896.0,2829.0,2896.0,3135.0,3035.0,0.84967,-0.054321,-0.524475,0.000488,0.0,-1.0,0.0,7374.0,-751.0,2637.0,73.0,9.0,-999.0,923.0,-78.0,-379.0,0.891209,-0.092823,0.443915,14690.0,-1468.0,5316.0,16.0,-3.0,7.0
2874.0,2822.0,2870.0,3127.0,3039.0,0.849426,-0.054321,-0.524902,0.000549,0.0,-1.0,0.0,7359.0,-746.0,2640.0,54.0,14.0,-989.0,907.0,-73.0,-391.0,0.891672,-0.092861,0.443052,14638.0,-1454.0,5306.0,8.0,-13.0,11.0
2871.0,2815.0,2879.0,3155.0,3045.0,0.848877,-0.054443,-0.525757,0.000671,0.0,-1.0,0.0,7385.0,-772.0,2642.0,73.0,-9.0,-972.0,899.0,-93.0,-362.0,0.892533,-0.093137,0.441208,14928.0,-1652.0,5296.0,5.0,-12.0,12.0
2870.0,2843.0,2911.0,3119.0,3031.0,0.848633,-0.054504,-0.526123,0.000793,0.0,-1.0,0.0,7397.0,-779.0,2639.0,82.0,-14.0,-968.0,900.0,-97.0,-351.0,0.892884,-0.093343,0.440402,14856.0,-1572.0,5282.0,13.0,-1.0,8.0
2887.0,2819.0,2899.0,3111.0,3027.0,0.848206,-0.054504,-0.526855,0.000793,-1.0,0.0,0.0,7397.0,-771.0,2637.0,75.0,-6.0,-958.0,889.0,-89.0,-352.0,0.893677,-0.093298,0.438906,14820.0,-1638.0,5210.0,-5.0,7.0,2.0
2873.0,2818.0,2909.0,3134.0,3047.0,0.848022,-0.054565,-0.527161,0.000793,0.0,0.0,0.0,7391.0,-785.0,2622.0,67.0,-20.0,-968.0,894.0,-104.0,-362.0,0.894002,-0.093382,0.438267,14724.0,-1676.0,5190.0,1.0,12.0,1.0
2869.0,2821.0,2903.0,3159.0,3029.0,0.847595,-0.054565,-0.527832,0.000916,0.0,-1.0,-1.0,7364.0,-779.0,2607.0,34.0,-13.0,-971.0,883.0,-99.0,-392.0,0.894676,-0.093465,0.436834,14728.0,-1438.0,5244.0,19.0,-2.0,-5.0
2874.0,2818.0,2901.0,3155.0,3051.0,0.847351,-0.054504,-0.528198,0.000916,0.0,0.0,-1.0,7380.0,-759.0,2617.0,47.0,5.0,-955.0,876.0,-79.0,-374.0,0.895039,-0.093336,0.436041,14874.0,-1398.0,5296.0,12.0,1.0,-4.0
2889.0,2831.0,2891.0,3153.0,3039.0,0.846985,-0.054504,-0.528809,0.000916,-1.0,0.0,0.0,7420.0,-715.0,2653.0,82.0,49.0,-908.0,852.0,-29.0,-325.0,0.895686,-0.093297,0.434775,14952.0,-1278.0,5436.0,-6.0,20.0,5.0
2885.0,2815.0,2897.0,3133.0,3028.0,0.846863,-0.054565,-0.528992,0.000854,-1.0,0.0,0.0,7428.0,-702.0,2672.0,89.0,62.0,-886.0,836.0,-14.0,-310.0,0.895874,-0.093323,0.434368,14908.0,-1356.0,5492.0,-14.0,22.0,7.0
2870.0,2815.0,2907.0,3163.0,3024.0,0.846558,-0.054749,-0.52948,0.000854,-1.0,0.0,0.0,7445.0,-707.0,2739.0,101.0,59.0,-810.0,773.0,-9.0,-265.0,0.896377,-0.0936,0.433314,14992.0,-1382.0,5720.0,-9.0,13.0,18.0
2887.0,2813.0,2893.0,3133.0,3039.0,0.846436,-0.05481,-0.529663,0.000854,-1.0,0.0,0.0,7432.0,-709.0,2785.0,87.0,58.0,-761.0,723.0,-7.0,-256.0,0.896558,-0.093691,0.432907,14724.0,-1444.0,5862.0,-4.0,13.0,13.0
2887.0,2832.0,2907.0,3135.0,3051.0,0.846069,-0.054993,-0.530212,0.001038,-1.0,-2.0,0.0,7375.0,-719.0,2866.0,26.0,52.0,-670.0,615.0,-8.0,-270.0,0.897079,-0.094156,0.431685,14668.0,-1466.0,5942.0,-6.0,-36.0,22.0
2865.0,2829.0,2875.0,3115.0,3043.0,0.845825,-0.055054,-0.53064,0.001099,0.0,-3.0,0.0,7368.0,-750.0,2875.0,15.0,22.0,-654.0,594.0,-37.0,-270.0,0.897536,-0.094298,0.430812,14718.0,-1704.0,5712.0,1.0,-53.0,4.0
2895.0,2839.0,2887.0,3131.0,3042.0,0.845093,-0.054993,-0.531738,0.001282,1.0,-4.0,0.0,7418.0,-756.0,2880.0,56.0,16.0,-629.0,590.0,-38.0,-220.0,0.898595,-0.094311,0.428414,15002.0,-1372.0,5740.0,23.0,-71.0,6.0
2879.0,2843.0,2890.0,3119.0,3029.0,0.844727,-0.054932,-0.532349,0.001343,0.0,-4.0,0.0,7439.0,-734.0,2866.0,72.0,37.0,-633.0,602.0,-16.0,-209.0,0.899231,-0.094234,0.427152,15020.0,-1360.0,5608.0,10.0,-72.0,8.0
2871.0,2835.0,2883.0,3139.0,3027.0,0.843933,-0.054993,-0.533569,0.001465,0.0,-4.0,0.0,7442.0,-750.0,2786.0,65.0,23.0,-691.0,651.0,-36.0,-236.0,0.900433,-0.094383,0.424505,14776.0,-1626.0,5288.0,5.0,-78.0,12.0
2890.0,2822.0,2903.0,3151.0,3037.0,0.843506,-0.054993,-0.534302,0.001587,0.0,-5.0,0.0,7397.0,-754.0,2732.0,14.0,19.0,-733.0,667.0,-47.0,-299.0,0.901199,-0.094469,0.423002,14510.0,-1510.0,5128.0,14.0,-93.0,13.0
2898.0,2827.0,2867.0,3135.0,3039.0,0.842468,-0.054932,-0.535889,0.00177,1.0,-5.0,0.0,7384.0,-756.0,2638.0,-11.0,17.0,-799.0,717.0,-56.0,-346.0,0.902744,-0.094453,0.419562,14794.0,-1522.0,5006.0,23.0,-107.0,3.0
2863.0,2805.0,2885.0,3138.0,3027.0,0.84198,-0.05481,-0.536682,0.001892,1.0,-5.0,0.0,7389.0,-747.0,2598.0,-12.0,25.0,-825.0,742.0,-50.0,-357.0,0.903544,-0.094328,0.417902,14806.0,-1444.0,4964.0,26.0,-98.0,0.0
2879.0,2827.0,2911.0,3135.0,3039.0,0.841064,-0.054626,-0.538147,0.002075,1.0,-4.0,-1.0,7391.0,-752.0,2514.0,-22.0,19.0,-884.0,792.0,-61.0,-388.0,0.905006,-0.094122,0.414807,14774.0,-1520.0,4740.0,27.0,-77.0,-3.0
2893.0,2805.0,2893.0,3135.0,3007.0,0.840637,-0.054504,-0.538818,0.002197,1.0,-4.0,0.0,7386.0,-761.0,2466.0,-33.0,9.0,-920.0,820.0,-75.0,-411.0,0.905662,-0.094005,0.41338,14780.0,-1602.0,4642.0,34.0,-72.0,2.0
2887.0,2823.0,2903.0,3143.0,3047.0,0.839783,-0.05426,-0.540161,0.002502,2.0,-3.0,0.0,7386.0,-768.0,2379.0,-43.0,0.0,-984.0,875.0,-89.0,-442.0,0.906964,-0.093837,0.410523,14774.0,-1478.0,4612.0,46.0,-57.0,8.0
2885.0,2829.0,2895.0,3119.0,3039.0,0.839417,-0.054138,-0.540771,0.002686,1.0,-3.0,0.0,7387.0,-757.0,2357.0,-47.0,11.0,-995.0,884.0,-79.0,-450.0,0.907574,-0.093794,0.409263,14786.0,-1488.0,4604.0,34.0,-50.0,12.0
2886.0,2827.0,2902.0,3147.0,3039.0,0.838745,-0.054016,-0.541809,0.002991,1.0,-1.0,0.0,7403.0,-793.0,2326.0,-39.0,-24.0,-1008.0,899.0,-114.0,-443.0,0.908556,-0.093852,0.407027,14788.0,-1706.0,4572.0,44.0,-16.0,7.0
2875.0,2819.0,2897.0,3151.0,3007.0,0.838501,-0.053833,-0.542175,0.003235,2.0,-1.0,0.0,7401.0,-786.0,2315.0,-44.0,-17.0,-1012.0,901.0,-107.0,-449.0,0.908881,-0.093786,0.406242,14804.0,-1488.0,4618.0,62.0,-3.0,2.0
2879.0,2819.0,2879.0,3159.0,3043.0,0.838196,-0.053223,-0.542786,0.00354,3.0,1.0,-1.0,7403.0,-736.0,2320.0,-47.0,26.0,-998.0,890.0,-62.0,-449.0,0.909544,-0.093065,0.405136,14784.0,-1334.0,4674.0,69.0,31.0,-1.0
2893.0,2829.0,2919.0,3147.0,3027.0,0.838074,-0.052917,-0.542908,0.003723,3.0,1.0,0.0,7399.0,-702.0,2338.0,-52.0,57.0,-978.0,871.0,-29.0,-448.0,0.909599,-0.09274,0.404832,14772.0,-1174.0,4808.0,74.0,44.0,6.0
2879.0,2790.0,2885.0,3135.0,3031.0,0.838013,-0.052307,-0.543152,0.004089,2.0,1.0,0.0,7398.0,-627.0,2420.0,-55.0,127.0,-893.0,797.0,48.0,-422.0,0.909908,-0.09211,0.404532,14842.0,-1100.0,5162.0,51.0,39.0,20.0
2883.0,2832.0,2896.0,3133.0,3029.0,0.837952,-0.052124,-0.543213,0.004272,1.0,1.0,1.0,7401.0,-612.0,2469.0,-53.0,141.0,-843.0,753.0,67.0,-402.0,0.909927,-0.091997,0.404384,14794.0,-1150.0,5208.0,44.0,37.0,27.0
2891.0,2819.0,2902.0,3131.0,3039.0,0.83783,-0.051819,-0.543457,0.0047,2.0,0.0,1.0,7402.0,-634.0,2544.0,-54.0,119.0,-765.0,680.0,52.0,-369.0,0.910162,-0.091939,0.40395,14842.0,-1324.0,5272.0,58.0,19.0,32.0
2886.0,2805.0,2890.0,3123.0,3023.0,0.837708,-0.051575,-0.543579,0.005005,3.0,0.0,1.0,7434.0,-648.0,2579.0,-22.0,104.0,-727.0,658.0,43.0,-323.0,0.910204,-0.09185,0.403641,15136.0,-1434.0,5322.0,69.0,12.0,31.0
2891.0,2823.0,2885.0,3153.0,3044.0,0.837524,-0.051086,-0.543945,0.005737,3.0,0.0,1.0,7492.0,-647.0,2618.0,32.0,105.0,-683.0,640.0,52.0,-255.0,0.910549,-0.091814,0.402994,15068.0,-1194.0,5346.0,74.0,15.0,39.0
2871.0,2814.0,2887.0,3135.0,3035.0,0.837402,-0.050903,-0.544128,0.006042,2.0,0.0,2.0,7495.0,-644.0,2639.0,34.0,108.0,-659.0,619.0,57.0,-244.0,0.910694,-0.091829,0.402612,14996.0,-1296.0,5400.0,57.0,9.0,49.0
2871.0,2821.0,2900.0,3150.0,3021.0,0.837158,-0.050781,-0.544556,0.006836,2.0,-1.0,2.0,7447.0,-673.0,2680.0,-16.0,84.0,-611.0,554.0,35.0,-267.0,0.911064,-0.092469,0.401761,14726.0,-1482.0,5506.0,48.0,-16.0,63.0
2889.0,2823.0,2887.0,3119.0,3027.0,0.836914,-0.050781,-0.544861,0.007263,2.0,-2.0,2.0,7423.0,-710.0,2692.0,-42.0,51.0,-593.0,526.0,2.0,-280.0,0.911266,-0.092914,0.401026,14736.0,-1656.0,5478.0,49.0,-34.0,63.0
2879.0,2819.0,2893.0,3134.0,3059.0,0.836426,-0.050781,-0.545593,0.008179,2.0,-3.0,2.0,7408.0,-776.0,2702.0,-62.0,-6.0,-570.0,495.0,-53.0,-283.0,0.911866,-0.093874,0.399424,14766.0,-1724.0,5462.0,54.0,-49.0,56.0
2871.0,2806.0,2887.0,3131.0,3031.0,0.836182,-0.05072,-0.546021,0.008606,2.0,-3.0,2.0,7405.0,-797.0,2705.0,-68.0,-25.0,-560.0,483.0,-71.0,-282.0,0.912272,-0.094221,0.398563,14788.0,-1698.0,5414.0,52.0,-48.0,47.0
2883.0,2812.0,2897.0,3137.0,3035.0,0.835693,-0.05072,-0.546753,0.009216,1.0,-3.0,1.0,7375.0,-816.0,2703.0,-103.0,-38.0,-548.0,458.0,-86.0,-307.0,0.912901,-0.094851,0.396957,14708.0,-1684.0,5396.0,27.0,-52.0,34.0
2871.0,2819.0,2907.0,3143.0,3057.0,0.835449,-0.050781,-0.54718,0.009399,0.0,-3.0,1.0,7381.0,-834.0,2702.0,-100.0,-54.0,-542.0,453.0,-101.0,-300.0,0.913328,-0.095137,0.396079,14806.0,-1800.0,5374.0,16.0,-47.0,28.0
2883.0,2823.0,2901.0,3142.0,3024.0,0.834961,-0.050964,-0.547852,0.009705,0.0,-2.0,0.0,7361.0,-867.0,2679.0,-125.0,-82.0,-552.0,452.0,-131.0,-324.0,0.91388,-0.09574,0.394515,14672.0,-1848.0,5308.0,4.0,-39.0,17.0
2891.0,2822.0,2877.0,3135.0,3039.0,0.834717,-0.051086,-0.548218,0.009888,0.0,-2.0,0.0,7359.0,-881.0,2672.0,-130.0,-93.0,-553.0,451.0,-143.0,-327.0,0.914203,-0.096127,0.393697,14710.0,-1826.0,5288.0,5.0,-40.0,18.0
2893.0,2827.0,2879.0,3127.0,3047.0,0.834167,-0.051208,-0.549011,0.010132,0.0,-3.0,0.0,7361.0,-891.0,2637.0,-133.0,-99.0,-573.0,468.0,-150.0,-336.0,0.914897,-0.096558,0.391902,14832.0,-1828.0,5232.0,3.0,-50.0,8.0
2873.0,2827.0,2881.0,3126.0,3039.0,0.833923,-0.05127,-0.549438,0.010193,0.0,-2.0,0.0,7378.0,-903.0,2614.0,-120.0,-110.0,-589.0,488.0,-161.0,-329.0,0.915334,-0.09671,0.391021,14820.0,-1876.0,5122.0,12.0,-41.0,5.0
2886.0,2815.0,2885.0,3135.0,3045.0,0.833313,-0.05127,-0.550293,0.010376,0.0,-3.0,-1.0,7387.0,-876.0,2578.0,-117.0,-82.0,-609.0,509.0,-135.0,-336.0,0.916069,-0.096867,0.389067,14920.0,-1620.0,5160.0,14.0,-50.0,-4.0
2885.0,2826.0,2886.0,3131.0,3023.0,0.833069,-0.051208,-0.55072,0.010376,0.0,-2.0,-1.0,7396.0,-850.0,2566.0,-112.0,-57.0,-614.0,517.0,-110.0,-335.0,0.916513,-0.096749,0.388196,14818.0,-1534.0,5066.0,1.0,-43.0,-8.0
2877.0,2825.0,2903.0,3135.0,3029.0,0.83252,-0.051392,-0.551514,0.010193,-2.0,-2.0,-1.0,7406.0,-811.0,2535.0,-108.0,-17.0,-630.0,536.0,-71.0,-340.0,0.917244,-0.096812,0.386384,14824.0,-1620.0,4866.0,-35.0,-43.0,-9.0
2887.0,2827.0,2897.0,3149.0,3027.0,0.832214,-0.051575,-0.552002,0.01001,-2.0,-2.0,-1.0,7414.0,-809.0,2519.0,-104.0,-15.0,-637.0,544.0,-70.0,-339.0,0.917735,-0.096893,0.385315,14878.0,-1616.0,4988.0,-36.0,-42.0,-8.0
2883.0,2811.0,2895.0,3133.0,3039.0,0.831665,-0.05188,-0.552734,0.009827,-2.0,-2.0,-1.0,7447.0,-795.0,2511.0,-76.0,0.0,-631.0,551.0,-53.0,-311.0,0.91836,-0.097156,0.383556,14928.0,-1478.0,5014.0,-29.0,-28.0,-2.0
2889.0,2822.0,2893.0,3123.0,3027.0,0.831421,-0.052002,-0.553101,0.009705,-2.0,-2.0,-1.0,7444.0,-779.0,2506.0,-82.0,17.0,-629.0,548.0,-36.0,-317.0,0.918709,-0.097206,0.38273,14868.0,-1462.0,4976.0,-31.0,-33.0,-1.0
2879.0,2826.0,2891.0,3135.0,3039.0,0.830872,-0.052246,-0.553894,0.009583,-2.0,-2.0,0.0,7452.0,-758.0,2508.0,-79.0,40.0,-612.0,535.0,-12.0,-309.0,0.919428,-0.097435,0.380911,14954.0,-1440.0,5090.0,-28.0,-45.0,6.0
2867.0,2819.0,2907.0,3151.0,3027.0,0.830566,-0.052429,-0.554321,0.009521,-2.0,-3.0,0.0,7462.0,-743.0,2511.0,-73.0,56.0,-601.0,528.0,4.0,-300.0,0.919803,-0.097648,0.37991,15014.0,-1416.0,5050.0,-27.0,-47.0,10.0
2887.0,2837.0,2881.0,3121.0,3047.0,0.830017,-0.052673,-0.555176,0.00946,-1.0,-3.0,0.0,7464.0,-725.0,2513.0,-77.0,77.0,-583.0,511.0,25.0,-298.0,0.920614,-0.097944,0.378023,14942.0,-1368.0,5036.0,-22.0,-47.0,14.0
2879.0,2832.0,2883.0,3135.0,3035.0,0.829773,-0.052795,-0.555542,0.00946,-1.0,-3.0,0.0,7463.0,-715.0,2523.0,-81.0,88.0,-567.0,496.0,37.0,-297.0,0.920949,-0.098128,0.377198,14914.0,-1358.0,5110.0,-21.0,-47.0,15.0
2875.0,2815.0,2897.0,3135.0,3022.0,0.829224,-0.053101,-0.556335,0.009399,-2.0,-2.0,0.0,7463.0,-718.0,2524.0,-87.0,89.0,-551.0,479.0,39.0,-295.0,0.921655,-0.098523,0.375371,14978.0,-1516.0,5010.0,-31.0,-43.0,19.0
2885.0,2822.0,2896.0,3150.0,3024.0,0.828979,-0.053284,-0.556702,0.00946,-2.0,-2.0,0.0,7463.0,-745.0,2505.0,-89.0,64.0,-563.0,489.0,13.0,-299.0,0.92198,-0.098875,0.374541,14930.0,-1638.0,4898.0,-27.0,-38.0,22.0
2875.0,2823.0,2902.0,3131.0,3039.0,0.82843,-0.053589,-0.557434,0.009583,-1.0,-2.0,0.0,7449.0,-799.0,2438.0,-108.0,15.0,-615.0,528.0,-41.0,-330.0,0.922563,-0.099473,0.372784,14834.0,-1720.0,4664.0,-10.0,-36.0,17.0
2867.0,2827.0,2903.0,3135.0,3031.0,0.828125,-0.053772,-0.557861,0.009644,-1.0,-2.0,0.0,7437.0,-815.0,2409.0,-123.0,2.0,-636.0,541.0,-57.0,-350.0,0.922921,-0.099819,0.371783,14810.0,-1750.0,4666.0,-11.0,-40.0,19.0
2875.0,2815.0,2877.0,3138.0,3039.0,0.827515,-0.054199,-0.558716,0.009766,-2.0,-3.0,1.0,7424.0,-856.0,2358.0,-142.0,-31.0,-671.0,566.0,-94.0,-376.0,0.923633,-0.100614,0.369775,14888.0,-1862.0,4622.0,-28.0,-48.0,23.0
2875.0,2833.0,2896.0,3131.0,3034.0,0.827209,-0.054443,-0.559143,0.009827,-2.0,-2.0,0.0,7429.0,-883.0,2331.0,-140.0,-55.0,-689.0,583.0,-119.0,-377.0,0.923987,-0.101061,0.368767,14864.0,-1904.0,4498.0,-23.0,-36.0,14.0
2875.0,2819.0,2895.0,3147.0,3039.0,0.826721,-0.054749,-0.559875,0.009827,-1.0,-1.0,-1.0,7425.0,-901.0,2275.0,-149.0,-69.0,-732.0,619.0,-138.0,-399.0,0.924646,-0.101527,0.367107,14864.0,-1740.0,4396.0,-11.0,-13.0,-2.0
2879.0,2807.0,2896.0,3127.0,3021.0,0.826538,-0.05481,-0.56012,0.009766,-1.0,0.0,-1.0,7429.0,-890.0,2270.0,-147.0,-58.0,-732.0,621.0,-127.0,-398.0,0.92485,-0.101544,0.366522,14882.0,-1714.0,4526.0,-11.0,5.0,-6.0
2879.0,2829.0,2896.0,3151.0,3015.0,0.826294,-0.054871,-0.560425,0.009583,-1.0,1.0,-1.0,7424.0,-838.0,2262.0,-154.0,-7.0,-734.0,623.0,-77.0,-410.0,0.9251,-0.101419,0.365767,14780.0,-1474.0,4532.0,-12.0,31.0,-16.0
2869.0,2829.0,2883.0,3151.0,3047.0,0.826233,-0.054871,-0.560547,0.00946,-1.0,1.0,-1.0,7408.0,-813.0,2267.0,-171.0,16.0,-727.0,611.0,-55.0,-425.0,0.925246,-0.101278,0.365527,14740.0,-1480.0,4580.0,-15.0,31.0,-18.0
2890.0,2834.0,2890.0,3121.0,3039.0,0.826111,-0.054871,-0.56073,0.009216,-1.0,1.0,-1.0,7406.0,-792.0,2307.0,-175.0,35.0,-684.0,571.0,-33.0,-415.0,0.925439,-0.100994,0.365115,14890.0,-1536.0,4758.0,0.0,27.0,-17.0
2863.0,2819.0,2911.0,3121.0,3026.0,0.82605,-0.05481,-0.560852,0.009155,0.0,1.0,-1.0,7409.0,-767.0,2348.0,-173.0,58.0,-641.0,533.0,-7.0,-399.0,0.92558,-0.10082,0.364883,14808.0,-1336.0,4978.0,10.0,26.0,-12.0
2898.0,2813.0,2887.0,3150.0,3031.0,0.825989,-0.054626,-0.560974,0.008972,-1.0,0.0,-1.0,7450.0,-687.0,2449.0,-133.0,134.0,-538.0,456.0,79.0,-332.0,0.925736,-0.100308,0.364662,15164.0,-1184.0,5214.0,-14.0,15.0,-4.0
2883.0,2819.0,2885.0,3151.0,3023.0,0.825928,-0.054688,-0.561035,0.00885,-1.0,1.0,0.0,7498.0,-681.0,2489.0,-85.0,140.0,-496.0,435.0,92.0,-273.0,0.925781,-0.100266,0.364484,15264.0,-1380.0,5216.0,-21.0,28.0,1.0
2882.0,2832.0,2870.0,3135.0,3055.0,0.825989,-0.05481,-0.560974,0.008728,-1.0,1.0,0.0,7494.0,-687.0,2570.0,-89.0,134.0,-417.0,360.0,92.0,-247.0,0.92576,-0.100337,0.364638,14874.0,-1352.0,5384.0,-21.0,32.0,14.0
2887.0,2827.0,2879.0,3151.0,3057.0,0.825989,-0.054932,-0.560974,0.008667,-2.0,0.0,0.0,7481.0,-698.0,2593.0,-102.0,125.0,-393.0,332.0,84.0,-250.0,0.925764,-0.10047,0.364623,14874.0,-1494.0,5290.0,-27.0,19.0,13.0
2864.0,2811.0,2896.0,3127.0,3039.0,0.825867,-0.05542,-0.561096,0.008545,-3.0,-1.0,0.0,7467.0,-746.0,2623.0,-117.0,82.0,-360.0,294.0,43.0,-247.0,0.925834,-0.101128,0.364229,14862.0,-1808.0,5234.0,-48.0,-2.0,22.0
2878.0,2831.0,2895.0,3135.0,3015.0,0.825745,-0.055664,-0.561279,0.008545,-2.0,-1.0,0.0,7453.0,-804.0,2615.0,-132.0,27.0,-365.0,291.0,-13.0,-257.0,0.925995,-0.101521,0.363794,14864.0,-1962.0,5190.0,-30.0,-17.0,19.0
2895.0,2819.0,2887.0,3127.0,3039.0,0.825378,-0.055908,-0.561768,0.008728,0.0,-2.0,0.0,7437.0,-858.0,2586.0,-151.0,-21.0,-384.0,299.0,-64.0,-276.0,0.926366,-0.102097,0.362617,14838.0,-1758.0,5112.0,7.0,-34.0,9.0
2879.0,2815.0,2893.0,3123.0,3043.0,0.825134,-0.055908,-0.562073,0.008789,0.0,-2.0,0.0,7446.0,-854.0,2576.0,-144.0,-17.0,-388.0,306.0,-59.0,-272.0,0.926588,-0.102144,0.361872,14968.0,-1644.0,5074.0,1.0,-42.0,6.0
2867.0,2815.0,2893.0,3159.0,3055.0,0.824768,-0.056152,-0.562622,0.008789,-2.0,-2.0,0.0,7463.0,-855.0,2535.0,-131.0,-15.0,-419.0,340.0,-59.0,-271.0,0.927078,-0.102515,0.360623,14888.0,-1714.0,4894.0,-23.0,-28.0,7.0
2887.0,2833.0,2891.0,3147.0,3043.0,0.824524,-0.056335,-0.562927,0.008728,-2.0,-2.0,0.0,7446.0,-863.0,2503.0,-150.0,-21.0,-444.0,356.0,-69.0,-296.0,0.927311,-0.102726,0.359855,14788.0,-1772.0,4836.0,-31.0,-25.0,4.0
2898.0,2825.0,2903.0,3143.0,3035.0,0.824158,-0.056702,-0.563416,0.008545,-2.0,-1.0,-1.0,7430.0,-863.0,2462.0,-169.0,-18.0,-476.0,379.0,-70.0,-325.0,0.927718,-0.103091,0.358657,14830.0,-1730.0,4786.0,-34.0,-21.0,-4.0
2886.0,2813.0,2897.0,3135.0,3069.0,0.823975,-0.056824,-0.563721,0.008423,-2.0,-1.0,-1.0,7427.0,-872.0,2439.0,-175.0,-27.0,-493.0,393.0,-81.0,-336.0,0.928026,-0.103139,0.357995,14858.0,-1838.0,4724.0,-36.0,-20.0,-10.0
2874.0,2813.0,2891.0,3142.0,3037.0,0.823608,-0.057068,-0.564209,0.008179,-1.0,-1.0,-1.0,7423.0,-871.0,2377.0,-182.0,-25.0,-545.0,439.0,-85.0,-360.0,0.928441,-0.103232,0.356809,14824.0,-1680.0,4582.0,-20.0,-15.0,-14.0
2893.0,2815.0,2903.0,3135.0,3054.0,0.823425,-0.057129,-0.564514,0.008118,-1.0,-1.0,-1.0,7420.0,-855.0,2352.0,-188.0,-9.0,-565.0,457.0,-71.0,-374.0,0.928743,-0.103248,0.356155,14838.0,-1604.0,4570.0,-17.0,-15.0,-14.0
2890.0,2815.0,2901.0,3145.0,3039.0,0.823059,-0.057251,-0.565002,0.007874,-1.0,0.0,-1.0,7443.0,-812.0,2325.0,-168.0,32.0,-583.0,483.0,-31.0,-366.0,0.929159,-0.103139,0.354983,14932.0,-1482.0,4574.0,-16.0,4.0,-8.0
2887.0,2823.0,2891.0,3127.0,3039.0,0.822998,-0.057251,-0.565125,0.007751,-1.0,0.0,-1.0,7449.0,-792.0,2325.0,-163.0,51.0,-581.0,484.0,-11.0,-362.0,0.929305,-0.102996,0.354742,14938.0,-1470.0,4638.0,-20.0,16.0,-10.0
2879.0,2819.0,2896.0,3147.0,3037.0,0.822876,-0.057312,-0.565247,0.007507,-1.0,1.0,-1.0,7461.0,-786.0,2325.0,-152.0,56.0,-578.0,486.0,-5.0,-351.0,0.929395,-0.102808,0.354393,14866.0,-1512.0,4666.0,-12.0,42.0,-11.0
2877.0,2834.0,2901.0,3135.0,3026.0,0.822876,-0.057312,-0.565247,0.007385,-1.0,1.0,-1.0,7438.0,-771.0,2323.0,-175.0,70.0,-580.0,480.0,6.0,-375.0,0.929409,-0.10267,0.354391,14762.0,-1498.0,4632.0,-13.0,36.0,-10.0
2887.0,2827.0,2895.0,3150.0,3047.0,0.822815,-0.057373,-0.565369,0.007202,-1.0,1.0,-1.0,7442.0,-770.0,2366.0,-172.0,70.0,-535.0,439.0,10.0,-356.0,0.929561,-0.102559,0.354143,14904.0,-1530.0,4920.0,-5.0,28.0,-4.0
2895.0,2825.0,2898.0,3135.0,3027.0,0.822815,-0.057373,-0.565369,0.007141,-1.0,1.0,-1.0,7455.0,-765.0,2404.0,-160.0,74.0,-497.0,409.0,18.0,-332.0,0.929568,-0.10249,0.354142,14988.0,-1494.0,5058.0,-5.0,32.0,-6.0
2893.0,2815.0,2871.0,3115.0,3011.0,0.822815,-0.057434,-0.565308,0.00708,-1.0,1.0,0.0,7454.0,-782.0,2455.0,-160.0,57.0,-446.0,360.0,5.0,-312.0,0.929474,-0.10252,0.354203,14904.0,-1636.0,5094.0,-5.0,30.0,0.0
2893.0,2815.0,2883.0,3149.0,3024.0,0.822876,-0.057434,-0.565308,0.007019,0.0,1.0,-1.0,7450.0,-791.0,2480.0,-164.0,48.0,-422.0,336.0,-1.0,-306.0,0.92955,-0.102458,0.354303,14886.0,-1642.0,5104.0,2.0,26.0,-3.0
2886.0,2831.0,2891.0,3147.0,3035.0,0.822876,-0.057373,-0.565308,0.006958,-1.0,0.0,-1.0,7445.0,-790.0,2522.0,-169.0,47.0,-380.0,295.0,0.0,-296.0,0.929558,-0.102289,0.354309,14860.0,-1554.0,5154.0,-6.0,21.0,-7.0
2881.0,2827.0,2898.0,3143.0,3043.0,0.822815,-0.057434,-0.565308,0.006897,-1.0,0.0,-1.0,7445.0,-797.0,2534.0,-169.0,41.0,-367.0,282.0,-3.0,-291.0,0.929495,-0.102313,0.354201,14902.0,-1664.0,5130.0,-22.0,15.0,-7.0
2866.0,2815.0,2885.0,3135.0,3029.0,0.822754,-0.057678,-0.56543,0.006714,-1.0,0.0,-1.0,7440.0,-856.0,2523.0,-175.0,-16.0,-376.0,286.0,-62.0,-294.0,0.929644,-0.102502,0.353932,14850.0,-1874.0,5004.0,-13.0,9.0,-9.0
2887.0,2829.0,2895.0,3127.0,3031.0,0.822693,-0.057678,-0.565552,0.006714,0.0,0.0,-1.0,7445.0,-864.0,2525.0,-171.0,-24.0,-372.0,283.0,-69.0,-288.0,0.929776,-0.102497,0.353693,14944.0,-1686.0,5086.0,2.0,6.0,-14.0
2883.0,2826.0,2888.0,3153.0,3035.0,0.822571,-0.057617,-0.565674,0.006531,-1.0,0.0,-1.0,7443.0,-833.0,2529.0,-174.0,4.0,-365.0,277.0,-41.0,-291.0,0.929861,-0.102177,0.353359,14830.0,-1590.0,5042.0,-7.0,9.0,-13.0
2871.0,2813.0,2885.0,3139.0,3037.0,0.82251,-0.057617,-0.565796,0.00647,-1.0,0.0,-1.0,7428.0,-820.0,2522.0,-190.0,16.0,-370.0,277.0,-30.0,-308.0,0.93,-0.102102,0.353119,14832.0,-1568.0,5092.0,-11.0,1.0,-9.0
2891.0,2823.0,2886.0,3119.0,3047.0,0.822327,-0.057678,-0.56604,0.006287,-1.0,-1.0,-1.0,7426.0,-802.0,2516.0,-194.0,33.0,-371.0,277.0,-14.0,-314.0,0.930214,-0.101978,0.352533,14898.0,-1536.0,5036.0,-13.0,-3.0,-8.0
2879.0,2823.0,2898.0,3143.0,3034.0,0.822266,-0.057739,-0.566162,0.006226,-1.0,-1.0,-1.0,7435.0,-789.0,2514.0,-186.0,46.0,-371.0,281.0,0.0,-308.0,0.930352,-0.102003,0.352286,14946.0,-1482.0,5030.0,-17.0,-2.0,-5.0
2877.0,2823.0,2893.0,3152.0,3035.0,0.822083,-0.057861,-0.566345,0.006042,-1.0,0.0,0.0,7449.0,-776.0,2501.0,-173.0,59.0,-380.0,295.0,11.0,-300.0,0.930466,-0.101978,0.351761,14900.0,-1532.0,4902.0,-19.0,7.0,1.0
2878.0,2823.0,2896.0,3143.0,3021.0,0.822021,-0.057922,-0.566467,0.005981,-1.0,0.0,-1.0,7450.0,-774.0,2499.0,-173.0,61.0,-380.0,295.0,13.0,-300.0,0.930604,-0.102003,0.351515,14876.0,-1534.0,5000.0,-15.0,10.0,-1.0
2873.0,2812.0,2878.0,3135.0,3027.0,0.821899,-0.058044,-0.56665,0.005859,-1.0,0.0,0.0,7423.0,-776.0,2488.0,-201.0,60.0,-388.0,293.0,9.0,-329.0,0.930779,-0.102054,0.351091,14786.0,-1536.0,4950.0,-12.0,1.0,0.0
2883.0,2831.0,2907.0,3141.0,3071.0,0.821777,-0.058105,-0.566772,0.005798,-1.0,-1.0,-1.0,7426.0,-771.0,2489.0,-199.0,65.0,-384.0,290.0,15.0,-326.0,0.930848,-0.102072,0.350744,14910.0,-1524.0,5020.0,-12.0,-7.0,-4.0
2881.0,2832.0,2895.0,3139.0,3031.0,0.821594,-0.058105,-0.567017,0.005676,-1.0,0.0,-1.0,7463.0,-771.0,2478.0,-164.0,63.0,-390.0,308.0,15.0,-295.0,0.931055,-0.101915,0.350165,14972.0,-1506.0,4928.0,-8.0,12.0,-10.0
2879.0,2821.0,2893.0,3126.0,3031.0,0.821594,-0.058105,-0.567078,0.005554,-1.0,0.0,-1.0,7456.0,-757.0,2471.0,-172.0,76.0,-396.0,312.0,27.0,-306.0,0.93117,-0.101778,0.350095,14838.0,-1430.0,4870.0,-11.0,18.0,-8.0
2877.0,2823.0,2893.0,3135.0,3024.0,0.821472,-0.058228,-0.567261,0.005371,-1.0,0.0,-1.0,7430.0,-758.0,2473.0,-199.0,75.0,-391.0,298.0,24.0,-329.0,0.931352,-0.101758,0.34967,14814.0,-1586.0,4978.0,-15.0,4.0,-1.0
2887.0,2826.0,2896.0,3135.0,3043.0,0.821411,-0.058228,-0.567322,0.005371,-1.0,0.0,0.0,7426.0,-766.0,2478.0,-203.0,67.0,-385.0,290.0,16.0,-330.0,0.931383,-0.101752,0.349501,14804.0,-1556.0,5010.0,-6.0,3.0,0.0
2881.0,2825.0,2897.0,3149.0,3035.0,0.821228,-0.058228,-0.567566,0.00531,-1.0,-1.0,-1.0,7438.0,-750.0,2502.0,-193.0,82.0,-356.0,268.0,35.0,-312.0,0.931584,-0.101664,0.348922,14950.0,-1440.0,5080.0,-2.0,0.0,-3.0
2911.0,2821.0,2896.0,3131.0,3039.0,0.821228,-0.058228,-0.567627,0.005249,-1.0,0.0,-1.0,7443.0,-747.0,2504.0,-189.0,85.0,-353.0,267.0,38.0,-307.0,0.931691,-0.101595,0.348852,14900.0,-1488.0,4986.0,-7.0,7.0,-3.0
2879.0,2822.0,2886.0,3133.0,3031.0,0.821106,-0.058289,-0.56781,0.005188,-1.0,-1.0,0.0,7426.0,-747.0,2508.0,-207.0,85.0,-346.0,254.0,37.0,-322.0,0.93186,-0.101614,0.348436,14796.0,-1454.0,5026.0,-8.0,-3.0,2.0
2885.0,2826.0,2891.0,3138.0,3029.0,0.820984,-0.058289,-0.567932,0.005127,-1.0,-1.0,0.0,7436.0,-757.0,2504.0,-198.0,74.0,-347.0,257.0,27.0,-312.0,0.931929,-0.101531,0.348096,14978.0,-1566.0,5004.0,-12.0,-12.0,3.0
2887.0,2829.0,2883.0,3135.0,3039.0,0.820801,-0.058411,-0.568237,0.005066,-1.0,-1.0,0.0,7451.0,-766.0,2484.0,-185.0,66.0,-362.0,276.0,19.0,-304.0,0.932227,-0.101644,0.347434,14944.0,-1546.0,4870.0,-10.0,-5.0,3.0
2883.0,2818.0,2891.0,3135.0,3039.0,0.820679,-0.058472,-0.568359,0.005066,-1.0,-1.0,0.0,7456.0,-773.0,2479.0,-181.0,60.0,-364.0,279.0,13.0,-301.0,0.932288,-0.101731,0.347088,14942.0,-1618.0,4938.0,-5.0,-1.0,5.0
2881.0,2818.0,2893.0,3135.0,3035.0,0.820557,-0.058472,-0.568542,0.005066,0.0,0.0,0.0,7436.0,-776.0,2452.0,-202.0,57.0,-387.0,293.0,6.0,-328.0,0.93245,-0.101719,0.346679,14740.0,-1550.0,4826.0,3.0,6.0,3.0
2884.0,2831.0,2895.0,3135.0,3039.0,0.820435,-0.058472,-0.568665,0.005127,-1.0,-1.0,0.0,7421.0,-771.0,2440.0,-218.0,62.0,-397.0,297.0,9.0,-347.0,0.932505,-0.101775,0.346341,14798.0,-1524.0,4876.0,-2.0,-5.0,7.0
2901.0,2823.0,2895.0,3147.0,3034.0,0.820312,-0.058533,-0.568909,0.005188,0.0,0.0,0.0,7439.0,-778.0,2453.0,-202.0,57.0,-380.0,286.0,7.0,-325.0,0.932759,-0.101933,0.345856,14868.0,-1522.0,4952.0,8.0,8.0,7.0
2885.0,2819.0,2895.0,3143.0,3051.0,0.820251,-0.058472,-0.56897,0.005188,0.0,0.0,0.0,7439.0,-769.0,2457.0,-202.0,65.0,-374.0,281.0,15.0,-324.0,0.93279,-0.101827,0.345694,14910.0,-1468.0,4936.0,2.0,10.0,5.0
2871.0,2819.0,2887.0,3135.0,3035.0,0.82019,-0.058533,-0.569031,0.005188,0.0,0.0,0.0,7452.0,-780.0,2461.0,-189.0,54.0,-369.0,281.0,6.0,-309.0,0.93282,-0.10192,0.345517,14922.0,-1586.0,4876.0,2.0,20.0,8.0
2883.0,2829.0,2898.0,3141.0,3038.0,0.82019,-0.058533,-0.569031,0.005249,0.0,1.0,0.0,7447.0,-788.0,2463.0,-194.0,47.0,-367.0,277.0,0.0,-312.0,0.932813,-0.10199,0.345518,14850.0,-1638.0,4940.0,1.0,23.0,4.0
2885.0,2823.0,2895.0,3141.0,3037.0,0.820251,-0.058594,-0.56897,0.005249,-1.0,1.0,0.0,7441.0,-805.0,2483.0,-200.0,31.0,-348.0,256.0,-15.0,-310.0,0.932781,-0.102096,0.34568,14846.0,-1664.0,5042.0,-1.0,28.0,7.0
2881.0,2839.0,2891.0,3131.0,3029.0,0.820251,-0.058655,-0.56897,0.00531,-1.0,1.0,0.0,7427.0,-808.0,2497.0,-214.0,29.0,-334.0,238.0,-17.0,-318.0,0.932774,-0.102266,0.345674,14748.0,-1636.0,5114.0,-3.0,26.0,6.0
2882.0,2819.0,2892.0,3139.0,3035.0,0.820251,-0.058777,-0.568909,0.005249,-1.0,0.0,0.0,7394.0,-809.0,2519.0,-246.0,29.0,-313.0,207.0,-18.0,-340.0,0.932679,-0.102396,0.345728,14736.0,-1624.0,5094.0,-17.0,6.0,5.0
2885.0,2823.0,2894.0,3139.0,3035.0,0.82019,-0.058899,-0.56897,0.005188,-2.0,0.0,0.0,7403.0,-813.0,2528.0,-237.0,26.0,-302.0,200.0,-19.0,-328.0,0.932716,-0.10252,0.345544,14888.0,-1650.0,5108.0,-24.0,2.0,5.0
2879.0,2827.0,2897.0,3139.0,3037.0,0.820129,-0.059204,-0.569092,0.005066,-2.0,0.0,0.0,7420.0,-806.0,2552.0,-221.0,36.0,-276.0,182.0,-6.0,-305.0,0.932858,-0.102876,0.345267,14980.0,-1612.0,5198.0,-35.0,1.0,7.0
2885.0,2819.0,2883.0,3138.0,3037.0,0.820068,-0.059387,-0.569153,0.005005,-2.0,-1.0,0.0,7424.0,-818.0,2565.0,-218.0,26.0,-261.0,168.0,-14.0,-296.0,0.932894,-0.1031,0.345075,14912.0,-1720.0,5294.0,-41.0,-3.0,5.0
2881.0,2815.0,2885.0,3123.0,3027.0,0.820007,-0.059692,-0.569214,0.004883,-1.0,0.0,0.0,7439.0,-846.0,2573.0,-203.0,1.0,-252.0,164.0,-37.0,-276.0,0.932936,-0.103455,0.344868,14880.0,-1684.0,5128.0,-14.0,8.0,0.0
2885.0,2815.0,2891.0,3139.0,3037.0,0.819946,-0.059753,-0.569275,0.004822,-1.0,0.0,-1.0,7449.0,-832.0,2575.0,-193.0,15.0,-248.0,164.0,-22.0,-267.0,0.932973,-0.103479,0.344691,14990.0,-1566.0,5136.0,-9.0,5.0,-6.0
2885.0,2825.0,2896.0,3143.0,3057.0,0.819824,-0.059814,-0.569397,0.004578,-2.0,-1.0,-1.0,7458.0,-800.0,2574.0,-185.0,46.0,-246.0,167.0,8.0,-262.0,0.933063,-0.103288,0.344342,14972.0,-1522.0,5196.0,-27.0,0.0,-10.0
2881.0,2821.0,2885.0,3137.0,3035.0,0.819824,-0.059937,-0.569458,0.004456,-2.0,0.0,-1.0,7470.0,-798.0,2573.0,-174.0,48.0,-247.0,172.0,11.0,-252.0,0.933177,-0.103349,0.344257,15018.0,-1618.0,5132.0,-35.0,6.0,-12.0
2881.0,2815.0,2885.0,3135.0,3039.0,0.819702,-0.06012,-0.56958,0.00415,-2.0,-1.0,-1.0,7428.0,-786.0,2553.0,-217.0,60.0,-264.0,174.0,18.0,-299.0,0.933273,-0.103288,0.343893,14642.0,-1496.0,5008.0,-33.0,-2.0,-8.0
2885.0,2827.0,2895.0,3133.0,3039.0,0.819641,-0.060242,-0.569702,0.004028,-2.0,-1.0,-1.0,7418.0,-791.0,2546.0,-228.0,55.0,-269.0,174.0,12.0,-310.0,0.933417,-0.103343,0.343638,14810.0,-1596.0,5060.0,-30.0,-18.0,-1.0
2882.0,2831.0,2895.0,3127.0,3039.0,0.819397,-0.060425,-0.570007,0.003845,-1.0,-1.0,-1.0,7455.0,-776.0,2544.0,-193.0,71.0,-264.0,183.0,30.0,-278.0,0.93366,-0.103407,0.342867,15040.0,-1504.0,5170.0,-21.0,-16.0,-2.0
2879.0,2821.0,2894.0,3135.0,3030.0,0.819275,-0.060486,-0.570129,0.003723,-2.0,-1.0,0.0,7458.0,-765.0,2543.0,-191.0,81.0,-262.0,183.0,41.0,-276.0,0.933735,-0.103354,0.342519,14902.0,-1496.0,5020.0,-33.0,-10.0,0.0
2879.0,2815.0,2895.0,3135.0,3039.0,0.819092,-0.060852,-0.570435,0.00354,-2.0,-1.0,0.0,7454.0,-794.0,2519.0,-197.0,55.0,-281.0,197.0,12.0,-285.0,0.934046,-0.103726,0.341825,14950.0,-1752.0,4940.0,-29.0,-12.0,0.0
2886.0,2832.0,2899.0,3135.0,3035.0,0.81897,-0.060913,-0.570557,0.003479,-1.0,-1.0,-1.0,7447.0,-802.0,2508.0,-205.0,47.0,-289.0,201.0,3.0,-295.0,0.934113,-0.103742,0.341478,14862.0,-1626.0,4942.0,-19.0,-10.0,-3.0
2891.0,2827.0,2881.0,3135.0,3031.0,0.822693,-0.0625,-0.565002,0.008911,0.0,-1.0,0.0,7342.0,-853.0,2784.0,-264.0,71.0,-114.0,14.0,37.0,-293.0,0.928533,-0.112906,0.353769,14824.0,-1766.0,5558.0,4.0,-13.0,5.0
2887.0,2821.0,2887.0,3134.0,3031.0,0.822693,-0.062317,-0.565002,0.008972,0.0,0.0,0.0,7352.0,-839.0,2760.0,-254.0,84.0,-138.0,41.0,48.0,-294.0,0.928529,-0.112674,0.353793,14628.0,-1600.0,5374.0,21.0,19.0,2.0
2887.0,2819.0,2895.0,3134.0,3027.0,0.822693,-0.062256,-0.564941,0.009033,0.0,0.0,0.0,7336.0,-832.0,2761.0,-269.0,90.0,-137.0,35.0,53.0,-308.0,0.928422,-0.112641,0.353871,14582.0,-1620.0,5620.0,12.0,15.0,9.0
2887.0,2814.0,2891.0,3131.0,3031.0,0.822815,-0.062256,-0.564819,0.009094,-1.0,0.0,0.0,7316.0,-840.0,2766.0,-289.0,83.0,-135.0,25.0,45.0,-325.0,0.928351,-0.112723,0.35421,14650.0,-1768.0,5528.0,-5.0,14.0,12.0
2896.0,2813.0,2894.0,3135.0,3031.0,0.822815,-0.062317,-0.564758,0.009155,-1.0,0.0,0.0,7323.0,-858.0,2775.0,-281.0,66.0,-127.0,20.0,29.0,-313.0,0.928242,-0.112892,0.354273,14714.0,-1820.0,5650.0,-2.0,19.0,12.0
2891.0,2815.0,2884.0,3127.0,3039.0,0.822937,-0.062439,-0.564575,0.009216,-1.0,0.0,0.0,7311.0,-863.0,2801.0,-291.0,64.0,-104.0,-5.0,28.0,-314.0,0.928069,-0.113173,0.354667,14590.0,-1758.0,5662.0,-17.0,10.0,15.0
2893.0,2821.0,2893.0,3131.0,3039.0,0.822937,-0.062622,-0.564575,0.009216,-2.0,-1.0,0.0,7298.0,-871.0,2817.0,-304.0,58.0,-88.0,-25.0,23.0,-319.0,0.928065,-0.113475,0.354644,14534.0,-1816.0,5748.0,-26.0,-1.0,16.0
2893.0,2819.0,2895.0,3135.0,3031.0,0.822876,-0.062927,-0.564636,0.009216,-2.0,-2.0,0.0,7308.0,-896.0,2851.0,-294.0,37.0,-52.0,-56.0,6.0,-295.0,0.928091,-0.11397,0.354436,14740.0,-1770.0,5884.0,-26.0,-26.0,15.0
2891.0,2826.0,2895.0,3131.0,3031.0,0.822815,-0.06311,-0.564697,0.009155,-2.0,-1.0,0.0,7341.0,-889.0,2871.0,-262.0,46.0,-30.0,-64.0,20.0,-259.0,0.928127,-0.114196,0.354242,14848.0,-1822.0,5830.0,-36.0,-17.0,13.0
2893.0,2822.0,2891.0,3135.0,3019.0,0.822754,-0.063416,-0.564697,0.009155,-1.0,-1.0,0.0,7329.0,-925.0,2852.0,-273.0,14.0,-48.0,-53.0,-14.0,-271.0,0.928053,-0.114691,0.354103,14560.0,-1928.0,5622.0,-13.0,-9.0,10.0
2886.0,2814.0,2887.0,3143.0,3039.0,0.822754,-0.063477,-0.564758,0.009155,-1.0,-1.0,0.0,7323.0,-922.0,2846.0,-280.0,18.0,-54.0,-50.0,-11.0,-281.0,0.928152,-0.114792,0.354027,14614.0,-1806.0,5664.0,-8.0,-18.0,6.0
2891.0,2817.0,2891.0,3127.0,3035.0,0.822632,-0.063599,-0.56488,0.009155,-1.0,-1.0,0.0,7334.0,-915.0,2824.0,-269.0,26.0,-73.0,-27.0,-4.0,-278.0,0.928213,-0.11498,0.353672,14730.0,-1870.0,5534.0,-17.0,-12.0,5.0
2895.0,2823.0,2891.0,3139.0,3038.0,0.822632,-0.063721,-0.564941,0.009094,-1.0,-1.0,0.0,7336.0,-921.0,2807.0,-268.0,22.0,-89.0,-12.0,-9.0,-282.0,0.928319,-0.115113,0.353587,14678.0,-1870.0,5536.0,-18.0,-5.0,9.0
2891.0,2821.0,2896.0,3131.0,3025.0,0.822571,-0.063965,-0.565002,0.009033,-2.0,-1.0,0.0,7307.0,-908.0,2767.0,-298.0,37.0,-127.0,12.0,-1.0,-325.0,0.928353,-0.115439,0.353385,14494.0,-1802.0,5430.0,-25.0,-5.0,5.0
2887.0,2819.0,2895.0,3135.0,3027.0,0.82251,-0.064087,-0.565063,0.008972,-2.0,-1.0,0.0,7302.0,-897.0,2767.0,-303.0,49.0,-126.0,10.0,10.0,-331.0,0.92839,-0.115564,0.353199,14574.0,-1720.0,5554.0,-37.0,-10.0,6.0
2891.0,2827.0,2899.0,3134.0,3031.0,0.822388,-0.064514,-0.565186,0.008789,-2.0,-1.0,0.0,7324.0,-940.0,2751.0,-282.0,10.0,-139.0,28.0,-28.0,-312.0,0.928469,-0.116046,0.352802,14742.0,-2028.0,5438.0,-32.0,-8.0,5.0
2894.0,2815.0,2887.0,3135.0,3035.0,0.822327,-0.064636,-0.565247,0.008789,-1.0,-1.0,0.0,7332.0,-950.0,2742.0,-274.0,2.0,-146.0,37.0,-36.0,-306.0,0.928499,-0.11624,0.352617,14690.0,-1926.0,5432.0,-12.0,0.0,0.0
2893.0,2827.0,2893.0,3127.0,3037.0,0.822327,-0.064636,-0.565247,0.008789,0.0,-1.0,0.0,7307.0,-929.0,2734.0,-299.0,23.0,-154.0,36.0,-18.0,-334.0,0.928499,-0.11624,0.352617,14528.0,-1704.0,5454.0,12.0,-4.0,1.0
2894.0,2827.0,2899.0,3143.0,3025.0,0.822266,-0.064575,-0.565308,0.00885,0.0,-1.0,0.0,7307.0,-897.0,2739.0,-299.0,54.0,-148.0,33.0,13.0,-336.0,0.928523,-0.116202,0.352456,14672.0,-1580.0,5516.0,11.0,-17.0,5.0
2869.0,2818.0,2895.0,3139.0,3031.0,0.822205,-0.064514,-0.56543,0.00885,-1.0,-1.0,0.0,7361.0,-856.0,2764.0,-246.0,95.0,-121.0,29.0,61.0,-282.0,0.928656,-0.116096,0.352226,14940.0,-1618.0,5604.0,-5.0,-9.0,8.0
2886.0,2823.0,2887.0,3137.0,3039.0,0.822205,-0.064514,-0.56543,0.00885,-1.0,0.0,0.0,7369.0,-846.0,2768.0,-238.0,105.0,-117.0,29.0,72.0,-274.0,0.928656,-0.116096,0.352226,14740.0,-1654.0,5524.0,-11.0,7.0,10.0
2895.0,2819.0,2884.0,3127.0,3039.0,0.822266,-0.064636,-0.565369,0.00885,-1.0,0.0,0.0,7331.0,-861.0,2777.0,-276.0,91.0,-109.0,7.0,55.0,-305.0,0.928622,-0.116303,0.35238,14512.0,-1792.0,5558.0,-6.0,7.0,10.0
2886.0,2815.0,2895.0,3143.0,3035.0,0.822266,-0.064636,-0.565369,0.00885,-1.0,-1.0,0.0,7317.0,-874.0,2775.0,-290.0,78.0,-111.0,3.0,41.0,-317.0,0.928622,-0.116303,0.35238,14560.0,-1818.0,5564.0,-1.0,-1.0,8.0
2891.0,2817.0,2893.0,3125.0,3031.0,0.822266,-0.064758,-0.565308,0.008911,-1.0,0.0,0.0,7324.0,-897.0,2795.0,-282.0,57.0,-92.0,-12.0,22.0,-300.0,0.928512,-0.116572,0.352434,14658.0,-1862.0,5616.0,-11.0,7.0,9.0
2893.0,2823.0,2897.0,3139.0,3037.0,0.822327,-0.064819,-0.565247,0.008911,-1.0,0.0,0.0,7316.0,-906.0,2799.0,-290.0,49.0,-89.0,-18.0,14.0,-306.0,0.928479,-0.116679,0.352595,14590.0,-1868.0,5606.0,-19.0,9.0,8.0
2891.0,2819.0,2895.0,3131.0,3027.0,0.822327,-0.065125,-0.565186,0.008789,-1.0,0.0,0.0,7296.0,-956.0,2801.0,-309.0,2.0,-87.0,-30.0,-33.0,-317.0,0.92839,-0.117042,0.352622,14526.0,-2126.0,5576.0,-20.0,3.0,1.0
2891.0,2827.0,2895.0,3131.0,3039.0,0.822327,-0.065186,-0.565186,0.008789,-1.0,-1.0,-1.0,7280.0,-976.0,2796.0,-325.0,-16.0,-92.0,-32.0,-53.0,-332.0,0.928388,-0.117143,0.352615,14478.0,-2062.0,5568.0,-6.0,-6.0,-3.0
2891.0,2819.0,2896.0,3131.0,3035.0,0.822266,-0.065186,-0.565308,0.008789,0.0,-1.0,-1.0,7301.0,-971.0,2799.0,-305.0,-11.0,-87.0,-29.0,-46.0,-312.0,0.92852,-0.117137,0.352376,14696.0,-1862.0,5614.0,5.0,-16.0,-8.0
2883.0,2819.0,2883.0,3135.0,3031.0,0.822205,-0.065125,-0.565369,0.008789,-1.0,-1.0,-1.0,7314.0,-948.0,2793.0,-292.0,10.0,-92.0,-19.0,-24.0,-304.0,0.928553,-0.117029,0.352215,14710.0,-1764.0,5552.0,-3.0,-17.0,-12.0
2895.0,2821.0,2896.0,3131.0,3039.0,0.822083,-0.065125,-0.565552,0.008545,-1.0,-1.0,-1.0,7340.0,-924.0,2792.0,-268.0,32.0,-89.0,-11.0,0.0,-283.0,0.928747,-0.116741,0.351803,14786.0,-1818.0,5602.0,-18.0,-15.0,-11.0
2891.0,2819.0,2894.0,3135.0,3027.0,0.822083,-0.065186,-0.565552,0.008484,-1.0,-1.0,-1.0,7362.0,-913.0,2793.0,-246.0,43.0,-88.0,-4.0,12.0,-264.0,0.928754,-0.116772,0.351794,14850.0,-1772.0,5608.0,-12.0,-4.0,-11.0
2893.0,2815.0,2883.0,3135.0,3035.0,0.822083,-0.065125,-0.565552,0.00824,-1.0,0.0,-1.0,7352.0,-873.0,2778.0,-256.0,80.0,-103.0,8.0,46.0,-283.0,0.928787,-0.116395,0.351798,14636.0,-1628.0,5544.0,-10.0,9.0,-14.0
2895.0,2830.0,2895.0,3135.0,3035.0,0.822144,-0.065063,-0.565491,0.008118,-1.0,0.0,-1.0,7336.0,-860.0,2773.0,-272.0,91.0,-110.0,9.0,55.0,-301.0,0.928773,-0.116164,0.351973,14574.0,-1636.0,5470.0,-14.0,8.0,-9.0
2895.0,2826.0,2894.0,3135.0,3035.0,0.822083,-0.065125,-0.565552,0.007935,-1.0,-1.0,0.0,7325.0,-845.0,2752.0,-283.0,105.0,-129.0,24.0,66.0,-320.0,0.928827,-0.11605,0.351793,14646.0,-1760.0,5450.0,-17.0,-8.0,1.0
2894.0,2819.0,2887.0,3135.0,3031.0,0.822083,-0.065186,-0.565613,0.007935,-1.0,-1.0,0.0,7331.0,-853.0,2751.0,-278.0,98.0,-130.0,26.0,60.0,-315.0,0.928926,-0.116152,0.351716,14654.0,-1720.0,5484.0,-3.0,-4.0,5.0
2895.0,2821.0,2887.0,3135.0,3029.0,0.822021,-0.065125,-0.565613,0.007996,0.0,-1.0,0.0,7329.0,-838.0,2751.0,-280.0,113.0,-129.0,26.0,75.0,-318.0,0.92885,-0.116112,0.351624,14682.0,-1642.0,5450.0,3.0,-4.0,9.0
2891.0,2821.0,2895.0,3135.0,3035.0,0.822021,-0.065125,-0.565674,0.007996,-1.0,-1.0,0.0,7334.0,-840.0,2762.0,-275.0,111.0,-117.0,16.0,74.0,-309.0,0.928951,-0.116113,0.351555,14680.0,-1724.0,5584.0,-3.0,-3.0,12.0
2896.0,2825.0,2891.0,3135.0,3031.0,0.822021,-0.065186,-0.565674,0.008057,-1.0,-1.0,0.0,7341.0,-867.0,2779.0,-268.0,85.0,-100.0,1.0,51.0,-293.0,0.928942,-0.116283,0.351548,14746.0,-1796.0,5498.0,-2.0,-2.0,8.0
2887.0,2819.0,2883.0,3135.0,3031.0,0.822021,-0.065186,-0.565674,0.008057,-1.0,0.0,0.0,7348.0,-873.0,2783.0,-261.0,79.0,-96.0,0.0,46.0,-285.0,0.928942,-0.116283,0.351548,14756.0,-1768.0,5618.0,-1.0,1.0,7.0
2926.0,2823.0,2886.0,3135.0,3027.0,0.822083,-0.065247,-0.565552,0.008118,-1.0,0.0,0.0,7357.0,-889.0,2797.0,-251.0,65.0,-84.0,-8.0,34.0,-270.0,0.928801,-0.116458,0.35178,14658.0,-1770.0,5522.0,0.0,19.0,9.0
2889.0,2822.0,2885.0,3133.0,3035.0,0.822144,-0.065247,-0.565491,0.008118,-1.0,0.0,0.0,7338.0,-887.0,2800.0,-270.0,67.0,-83.0,-15.0,34.0,-287.0,0.92877,-0.116465,0.351949,14532.0,-1772.0,5616.0,-3.0,14.0,8.0
2894.0,2815.0,2893.0,3135.0,3031.0,0.822144,-0.065369,-0.56543,0.008118,-1.0,-1.0,0.0,7313.0,-896.0,2813.0,-294.0,59.0,-70.0,-37.0,25.0,-304.0,0.928667,-0.116665,0.352002,14604.0,-1864.0,5696.0,-11.0,-7.0,5.0
2890.0,2818.0,2883.0,3135.0,3035.0,0.822144,-0.06543,-0.56543,0.008118,-1.0,-1.0,0.0,7296.0,-911.0,2803.0,-311.0,45.0,-80.0,-34.0,9.0,-322.0,0.928666,-0.116765,0.351994,14490.0,-1932.0,5530.0,-2.0,-15.0,2.0
2894.0,2819.0,2889.0,3135.0,3027.0,0.82196,-0.065369,-0.565674,0.00824,0.0,-2.0,0.0,7318.0,-923.0,2806.0,-291.0,33.0,-72.0,-35.0,0.0,-299.0,0.928846,-0.116783,0.351427,14836.0,-1810.0,5686.0,14.0,-32.0,2.0
2893.0,2822.0,2887.0,3131.0,3037.0,0.82196,-0.065308,-0.565735,0.008301,0.0,-1.0,0.0,7353.0,-906.0,2818.0,-256.0,50.0,-60.0,-33.0,21.0,-264.0,0.928939,-0.116753,0.351367,14898.0,-1696.0,5716.0,9.0,-19.0,3.0
2894.0,2822.0,2891.0,3135.0,3030.0,0.821899,-0.065308,-0.565796,0.008301,-1.0,-1.0,0.0,7353.0,-899.0,2785.0,-257.0,57.0,-92.0,-3.0,24.0,-277.0,0.92897,-0.116746,0.351197,14674.0,-1856.0,5464.0,-10.0,-1.0,4.0
2887.0,2815.0,2893.0,3135.0,3031.0,0.821899,-0.065308,-0.565796,0.008301,-1.0,0.0,0.0,7347.0,-913.0,2772.0,-263.0,43.0,-105.0,5.0,9.0,-286.0,0.92897,-0.116746,0.351197,14662.0,-1912.0,5452.0,-2.0,4.0,1.0
2894.0,2821.0,2895.0,3133.0,3039.0,0.82196,-0.065308,-0.565735,0.00824,-1.0,0.0,0.0,7321.0,-890.0,2762.0,-288.0,65.0,-116.0,8.0,27.0,-315.0,0.928947,-0.116684,0.351366,14524.0,-1686.0,5406.0,-6.0,11.0,4.0
2891.0,2822.0,2889.0,3135.0,3039.0,0.82196,-0.065369,-0.565735,0.00824,-1.0,-1.0,0.0,7312.0,-882.0,2748.0,-297.0,74.0,-130.0,18.0,34.0,-330.0,0.928946,-0.116784,0.351358,14598.0,-1748.0,5488.0,-18.0,-4.0,12.0
2891.0,2827.0,2895.0,3133.0,3027.0,0.821838,-0.065552,-0.565796,0.008301,-1.0,-1.0,0.0,7309.0,-897.0,2734.0,-300.0,62.0,-141.0,27.0,21.0,-335.0,0.928897,-0.117139,0.351065,14566.0,-1822.0,5436.0,-8.0,-9.0,16.0
2891.0,2821.0,2889.0,3135.0,3031.0,0.821777,-0.065674,-0.565918,0.008362,-1.0,-1.0,0.0,7308.0,-900.0,2737.0,-302.0,61.0,-136.0,21.0,20.0,-335.0,0.929019,-0.117403,0.350812,14608.0,-1804.0,5502.0,-4.0,-19.0,20.0
2895.0,2823.0,2891.0,3130.0,3037.0,0.821655,-0.065735,-0.566162,0.008545,0.0,-2.0,0.0,7336.0,-919.0,2748.0,-276.0,45.0,-121.0,16.0,8.0,-304.0,0.929257,-0.117698,0.35033,14876.0,-1948.0,5580.0,9.0,-28.0,18.0
2925.0,2823.0,2894.0,3139.0,3029.0,0.821594,-0.065735,-0.566223,0.008667,0.0,-1.0,0.0,7374.0,-906.0,2758.0,-238.0,59.0,-110.0,20.0,26.0,-266.0,0.929272,-0.11783,0.350163,14966.0,-1670.0,5560.0,22.0,-9.0,15.0
2893.0,2822.0,2887.0,3139.0,3031.0,0.821655,-0.065674,-0.566162,0.008728,-1.0,0.0,0.0,7379.0,-869.0,2770.0,-233.0,96.0,-99.0,14.0,64.0,-262.0,0.929234,-0.117805,0.350341,14722.0,-1784.0,5592.0,-8.0,14.0,14.0
2891.0,2821.0,2895.0,3141.0,3027.0,0.821716,-0.065735,-0.56604,0.008728,-1.0,0.0,0.0,7358.0,-882.0,2767.0,-253.0,83.0,-104.0,11.0,49.0,-281.0,0.929101,-0.117912,0.350571,14580.0,-1840.0,5502.0,-5.0,17.0,15.0
2893.0,2817.0,2887.0,3143.0,3027.0,0.821777,-0.065674,-0.565979,0.008911,1.0,0.0,0.0,7322.0,-932.0,2751.0,-288.0,34.0,-122.0,12.0,-3.0,-314.0,0.929047,-0.118026,0.350752,14554.0,-1938.0,5468.0,23.0,8.0,2.0
2895.0,2822.0,2893.0,3131.0,3031.0,0.821777,-0.065613,-0.565918,0.008972,1.0,0.0,0.0,7305.0,-924.0,2758.0,-304.0,42.0,-116.0,1.0,3.0,-328.0,0.92894,-0.117993,0.35083,14538.0,-1760.0,5566.0,23.0,3.0,0.0
2891.0,2819.0,2894.0,3135.0,3029.0,0.821777,-0.065552,-0.565918,0.008972,-1.0,0.0,0.0,7314.0,-919.0,2771.0,-295.0,46.0,-103.0,-7.0,9.0,-315.0,0.928941,-0.117893,0.350838,14622.0,-1922.0,5534.0,-13.0,3.0,1.0
2892.0,2815.0,2887.0,3127.0,3031.0,0.821777,-0.065674,-0.565918,0.008911,-1.0,-1.0,0.0,7301.0,-945.0,2770.0,-308.0,21.0,-103.0,-13.0,-16.0,-324.0,0.928947,-0.118024,0.350821,14494.0,-2038.0,5524.0,-13.0,-1.0,4.0
2890.0,2827.0,2887.0,3135.0,3026.0,0.821716,-0.065735,-0.565979,0.008972,0.0,-1.0,-1.0,7294.0,-973.0,2781.0,-316.0,-4.0,-91.0,-28.0,-41.0,-324.0,0.928969,-0.118187,0.350645,14638.0,-1968.0,5678.0,8.0,-17.0,-5.0
2893.0,2815.0,2886.0,3143.0,3023.0,0.821716,-0.065674,-0.56604,0.009033,0.0,-1.0,-1.0,7313.0,-970.0,2788.0,-297.0,-2.0,-83.0,-29.0,-36.0,-304.0,0.929062,-0.118157,0.350585,14762.0,-1906.0,5640.0,12.0,-14.0,-7.0
2895.0,2819.0,2896.0,3131.0,3035.0,0.821716,-0.065552,-0.56604,0.008972,-1.0,0.0,-1.0,7342.0,-918.0,2789.0,-268.0,47.0,-83.0,-16.0,14.0,-283.0,0.929072,-0.117887,0.3506,14718.0,-1632.0,5506.0,-1.0,6.0,-7.0
2891.0,2811.0,2891.0,3127.0,3031.0,0.821716,-0.065552,-0.56604,0.00885,-1.0,0.0,-1.0,7336.0,-903.0,2777.0,-275.0,61.0,-95.0,-6.0,26.0,-295.0,0.929088,-0.117749,0.350598,14620.0,-1760.0,5470.0,-14.0,8.0,-9.0
2898.0,2815.0,2895.0,3141.0,3025.0,0.821716,-0.065613,-0.565979,0.008728,-1.0,0.0,-1.0,7334.0,-916.0,2740.0,-276.0,48.0,-132.0,26.0,10.0,-308.0,0.929003,-0.11771,0.350657,14664.0,-1886.0,5382.0,-7.0,11.0,-6.0
2897.0,2821.0,2895.0,3139.0,3031.0,0.821777,-0.065552,-0.565979,0.008667,0.0,0.0,-1.0,7324.0,-916.0,2730.0,-287.0,46.0,-143.0,32.0,6.0,-322.0,0.929081,-0.117549,0.350764,14586.0,-1814.0,5426.0,7.0,14.0,-5.0
2896.0,2823.0,2895.0,3135.0,3024.0,0.821838,-0.065491,-0.565918,0.008667,0.0,0.0,-1.0,7298.0,-879.0,2726.0,-312.0,83.0,-148.0,30.0,40.0,-351.0,0.929051,-0.117455,0.350941,14612.0,-1642.0,5444.0,1.0,6.0,-2.0
2894.0,2810.0,2893.0,3141.0,3022.0,0.821838,-0.065491,-0.565857,0.008606,-1.0,0.0,0.0,7311.0,-875.0,2739.0,-299.0,86.0,-136.0,24.0,45.0,-335.0,0.928959,-0.117385,0.351009,14732.0,-1758.0,5588.0,-11.0,5.0,3.0
2892.0,2799.0,2893.0,3135.0,3027.0,0.821899,-0.065552,-0.565735,0.008545,-1.0,0.0,0.0,7323.0,-874.0,2760.0,-286.0,87.0,-117.0,11.0,49.0,-316.0,0.928834,-0.117422,0.351239,14620.0,-1748.0,5574.0,-16.0,14.0,4.0
2895.0,2822.0,2891.0,3138.0,3031.0,0.82196,-0.065613,-0.565674,0.008484,-1.0,0.0,0.0,7328.0,-888.0,2770.0,-280.0,74.0,-108.0,4.0,38.0,-306.0,0.92881,-0.11746,0.351399,14670.0,-1862.0,5602.0,-12.0,13.0,6.0
2895.0,2819.0,2885.0,3133.0,3035.0,0.822021,-0.065735,-0.565613,0.008484,-1.0,-1.0,0.0,7328.0,-883.0,2806.0,-280.0,80.0,-73.0,-28.0,47.0,-295.0,0.928776,-0.117668,0.351552,14684.0,-1728.0,5756.0,-9.0,-1.0,9.0
2890.0,2815.0,2879.0,3141.0,3035.0,0.822021,-0.065796,-0.565613,0.008484,-1.0,-1.0,0.0,7339.0,-877.0,2814.0,-269.0,87.0,-65.0,-31.0,56.0,-282.0,0.928775,-0.117768,0.351544,14788.0,-1732.0,5658.0,-12.0,-2.0,7.0
2896.0,2820.0,2891.0,3127.0,3027.0,0.822021,-0.065857,-0.565552,0.008423,-1.0,0.0,0.0,7351.0,-894.0,2833.0,-256.0,71.0,-47.0,-44.0,43.0,-262.0,0.928682,-0.117799,0.351604,14658.0,-1864.0,5726.0,-5.0,5.0,4.0
2895.0,2819.0,2896.0,3135.0,3027.0,0.822083,-0.065857,-0.565491,0.008484,0.0,0.0,0.0,7339.0,-891.0,2844.0,-268.0,74.0,-37.0,-57.0,45.0,-270.0,0.928643,-0.117875,0.351775,14622.0,-1740.0,5784.0,1.0,2.0,6.0
2893.0,2823.0,2895.0,3135.0,3037.0,0.822144,-0.065857,-0.56543,0.008484,-1.0,-1.0,0.0,7333.0,-877.0,2861.0,-274.0,88.0,-22.0,-72.0,60.0,-272.0,0.928611,-0.117882,0.351944,14632.0,-1716.0,5760.0,-4.0,-3.0,7.0
2890.0,2814.0,2891.0,3135.0,3029.0,0.822083,-0.065857,-0.56543,0.008484,-1.0,-1.0,0.0,7335.0,-885.0,2857.0,-271.0,80.0,-25.0,-69.0,52.0,-269.0,0.928542,-0.117874,0.351844,14694.0,-1824.0,5680.0,-6.0,-12.0,11.0
2891.0,2821.0,2886.0,3133.0,3031.0,0.822021,-0.065918,-0.565552,0.008484,-1.0,-1.0,0.0,7328.0,-878.0,2848.0,-279.0,88.0,-32.0,-65.0,59.0,-280.0,0.928673,-0.117968,0.351597,14616.0,-1754.0,5662.0,-10.0,-21.0,7.0
2894.0,2821.0,2891.0,3131.0,3035.0,0.82196,-0.06604,-0.565613,0.008484,-1.0,-2.0,0.0,7329.0,-842.0,2841.0,-278.0,125.0,-37.0,-58.0,95.0,-285.0,0.928702,-0.118162,0.351412,14714.0,-1290.0,5720.0,-20.0,-26.0,13.0
2891.0,2815.0,2887.0,3135.0,3035.0,0.821838,-0.066528,-0.565735,0.008301,-3.0,-1.0,1.0,7350.0,-873.0,2797.0,-258.0,99.0,-78.0,-14.0,67.0,-278.0,0.928781,-0.118743,0.351005,14714.0,-1888.0,5400.0,-59.0,0.0,27.0
2897.0,2819.0,2891.0,3131.0,3025.0,0.821838,-0.066895,-0.565735,0.00824,-3.0,0.0,1.0,7334.0,-897.0,2769.0,-274.0,80.0,-106.0,5.0,44.0,-301.0,0.928783,-0.119276,0.350955,14564.0,-1890.0,5390.0,-57.0,5.0,23.0
2891.0,2819.0,2893.0,3135.0,3039.0,0.821777,-0.067566,-0.565735,0.008118,-3.0,0.0,0.0,7306.0,-956.0,2731.0,-302.0,28.0,-142.0,25.0,-13.0,-333.0,0.928719,-0.120233,0.350763,14492.0,-2086.0,5342.0,-56.0,7.0,21.0
2891.0,2823.0,2896.0,3135.0,3029.0,0.821716,-0.067932,-0.565735,0.008057,-3.0,0.0,0.0,7299.0,-989.0,2708.0,-308.0,0.0,-164.0,41.0,-44.0,-343.0,0.928653,-0.120758,0.350612,14562.0,-2210.0,5250.0,-48.0,1.0,20.0
2895.0,2819.0,2887.0,3135.0,3037.0,0.821655,-0.068237,-0.565796,0.008179,0.0,0.0,0.0,7296.0,-1039.0,2695.0,-311.0,-44.0,-175.0,48.0,-89.0,-344.0,0.928662,-0.12139,0.350403,14520.0,-2052.0,5402.0,8.0,2.0,6.0
2895.0,2815.0,2895.0,3135.0,3031.0,0.821655,-0.068237,-0.565796,0.00824,0.0,-1.0,0.0,7295.0,-1005.0,2709.0,-312.0,-10.0,-161.0,37.0,-54.0,-344.0,0.928654,-0.121459,0.350404,14656.0,-1788.0,5538.0,8.0,-10.0,3.0
2895.0,2815.0,2882.0,3135.0,3031.0,0.821594,-0.068237,-0.565857,0.00824,-1.0,0.0,0.0,7323.0,-996.0,2725.0,-284.0,-1.0,-144.0,31.0,-41.0,-314.0,0.928685,-0.121452,0.350235,14690.0,-2000.0,5474.0,-1.0,2.0,0.0
2891.0,2823.0,2894.0,3135.0,3027.0,0.821655,-0.068237,-0.565857,0.00824,0.0,0.0,-1.0,7325.0,-992.0,2728.0,-283.0,3.0,-141.0,29.0,-37.0,-312.0,0.928754,-0.12146,0.350335,14636.0,-1964.0,5472.0,6.0,6.0,-4.0
2895.0,2825.0,2893.0,3137.0,3031.0,0.821655,-0.068176,-0.565796,0.008179,-1.0,0.0,-1.0,7348.0,-958.0,2741.0,-259.0,35.0,-129.0,29.0,-2.0,-289.0,0.928663,-0.12129,0.350411,14778.0,-1796.0,5506.0,-3.0,18.0,-9.0
2891.0,2815.0,2886.0,3131.0,3027.0,0.821716,-0.068115,-0.565735,0.008057,-1.0,1.0,-1.0,7338.0,-946.0,2730.0,-269.0,45.0,-142.0,38.0,5.0,-305.0,0.92865,-0.121059,0.350587,14580.0,-1850.0,5426.0,-12.0,27.0,-12.0
2887.0,2819.0,2891.0,3135.0,3029.0,0.821838,-0.068237,-0.565552,0.007874,-1.0,0.0,-1.0,7283.0,-933.0,2721.0,-323.0,58.0,-154.0,30.0,12.0,-360.0,0.92851,-0.121066,0.350975,14362.0,-1740.0,5468.0,-15.0,15.0,-6.0
2895.0,2823.0,2896.0,3135.0,3035.0,0.821838,-0.068298,-0.565552,0.007751,-2.0,-1.0,-1.0,7276.0,-916.0,2743.0,-330.0,75.0,-132.0,8.0,30.0,-361.0,0.928525,-0.121028,0.350965,14556.0,-1754.0,5672.0,-24.0,-6.0,-3.0
2891.0,2821.0,2890.0,3133.0,3043.0,0.821838,-0.06842,-0.565552,0.007629,-1.0,0.0,0.0,7334.0,-923.0,2768.0,-272.0,68.0,-106.0,5.0,31.0,-297.0,0.92854,-0.121091,0.350946,14764.0,-1840.0,5552.0,-13.0,9.0,2.0
2887.0,2815.0,2879.0,3131.0,3031.0,0.821899,-0.068481,-0.565491,0.007568,-1.0,0.0,0.0,7353.0,-915.0,2786.0,-253.0,77.0,-90.0,-2.0,44.0,-275.0,0.928516,-0.121129,0.351106,14826.0,-1788.0,5724.0,-13.0,18.0,2.0
2894.0,2819.0,2891.0,3133.0,3031.0,0.822021,-0.068909,-0.565186,0.007202,-5.0,1.0,1.0,7387.0,-816.0,2812.0,-216.0,178.0,-68.0,-2.0,149.0,-246.0,0.928197,-0.12143,0.351588,14872.0,-1534.0,5740.0,-98.0,37.0,26.0
2894.0,2825.0,2895.0,3139.0,3031.0,0.822205,-0.069397,-0.564941,0.006958,-5.0,2.0,1.0,7370.0,-854.0,2806.0,-232.0,145.0,-78.0,-1.0,114.0,-260.0,0.928029,-0.121979,0.352094,14562.0,-2018.0,5502.0,-106.0,55.0,35.0
2894.0,2822.0,2895.0,3127.0,3035.0,0.822388,-0.070312,-0.564575,0.006836,-3.0,1.0,1.0,7288.0,-962.0,2786.0,-311.0,48.0,-103.0,-13.0,8.0,-330.0,0.927638,-0.123367,0.352679,14456.0,-2194.0,5566.0,-47.0,23.0,29.0
2891.0,2815.0,2886.0,3135.0,3031.0,0.822388,-0.070496,-0.564453,0.006897,-1.0,0.0,0.0,7288.0,-996.0,2787.0,-309.0,17.0,-103.0,-15.0,-22.0,-325.0,0.927426,-0.123735,0.352792,14572.0,-2144.0,5608.0,-11.0,16.0,15.0
2887.0,2815.0,2886.0,3135.0,3035.0,0.82251,-0.070496,-0.56427,0.006958,-1.0,0.0,0.0,7295.0,-955.0,2811.0,-301.0,59.0,-82.0,-29.0,22.0,-315.0,0.927254,-0.123819,0.3532,14622.0,-1774.0,5668.0,-5.0,8.0,3.0
2895.0,2822.0,2893.0,3135.0,3037.0,0.822571,-0.070557,-0.56427,0.006897,-1.0,0.0,0.0,7321.0,-952.0,2821.0,-275.0,62.0,-73.0,-27.0,28.0,-288.0,0.927331,-0.123859,0.353291,14834.0,-1930.0,5686.0,-15.0,6.0,1.0
2894.0,2823.0,2894.0,3135.0,3031.0,0.822632,-0.070618,-0.564087,0.006836,-1.0,0.0,0.0,7323.0,-958.0,2830.0,-271.0,56.0,-66.0,-33.0,23.0,-281.0,0.927106,-0.123897,0.353589,14514.0,-1874.0,5668.0,-5.0,18.0,4.0
2893.0,2815.0,2885.0,3135.0,3027.0,0.822693,-0.070618,-0.564026,0.006836,-1.0,0.0,0.0,7306.0,-958.0,2832.0,-288.0,57.0,-65.0,-40.0,23.0,-297.0,0.927075,-0.123905,0.353758,14536.0,-1946.0,5720.0,0.0,8.0,7.0
2893.0,2819.0,2887.0,3135.0,3027.0,0.822754,-0.070679,-0.563965,0.006958,-1.0,-1.0,0.0,7296.0,-939.0,2843.0,-298.0,78.0,-56.0,-51.0,43.0,-305.0,0.927025,-0.124151,0.353921,14578.0,-1760.0,5676.0,-4.0,-9.0,14.0
2895.0,2821.0,2893.0,3139.0,3031.0,0.822693,-0.07074,-0.564026,0.006958,-1.0,-1.0,0.0,7311.0,-937.0,2832.0,-283.0,80.0,-65.0,-37.0,46.0,-295.0,0.927056,-0.124243,0.353743,14720.0,-1900.0,5562.0,-16.0,-15.0,16.0
2896.0,2827.0,2894.0,3135.0,3039.0,0.822632,-0.070862,-0.564087,0.00708,0.0,-1.0,0.0,7340.0,-979.0,2827.0,-254.0,41.0,-69.0,-25.0,9.0,-264.0,0.927068,-0.124574,0.353558,14680.0,-2024.0,5646.0,13.0,-1.0,7.0
2894.0,2815.0,2890.0,3135.0,3031.0,0.822632,-0.070801,-0.564026,0.007141,0.0,-1.0,0.0,7327.0,-975.0,2826.0,-266.0,45.0,-70.0,-28.0,12.0,-276.0,0.92696,-0.124541,0.353636,14542.0,-1900.0,5662.0,19.0,0.0,3.0
2895.0,2819.0,2890.0,3135.0,3029.0,0.822693,-0.07074,-0.564026,0.007202,0.0,-1.0,0.0,7316.0,-980.0,2831.0,-278.0,40.0,-66.0,-37.0,6.0,-286.0,0.927021,-0.124519,0.353746,14612.0,-2024.0,5586.0,5.0,-5.0,3.0
2895.0,2823.0,2889.0,3135.0,3031.0,0.822632,-0.070679,-0.564087,0.007263,0.0,-1.0,0.0,7306.0,-987.0,2828.0,-288.0,32.0,-68.0,-39.0,-2.0,-295.0,0.927045,-0.124479,0.353586,14552.0,-1984.0,5658.0,7.0,-4.0,2.0
2896.0,2821.0,2893.0,3135.0,3035.0,0.822632,-0.070679,-0.564148,0.007324,-1.0,-2.0,0.0,7265.0,-964.0,2829.0,-330.0,56.0,-67.0,-53.0,17.0,-336.0,0.927137,-0.124549,0.353518,14520.0,-1840.0,5720.0,-2.0,-24.0,8.0
2891.0,2817.0,2891.0,3133.0,3031.0,0.822571,-0.070679,-0.564209,0.007324,-1.0,-2.0,0.0,7287.0,-960.0,2834.0,-308.0,60.0,-60.0,-52.0,24.0,-314.0,0.927168,-0.124541,0.353349,14744.0,-1906.0,5674.0,-4.0,-24.0,7.0
2893.0,2818.0,2887.0,3135.0,3031.0,0.82251,-0.070679,-0.564331,0.007385,0.0,-1.0,0.0,7324.0,-972.0,2822.0,-272.0,48.0,-70.0,-30.0,14.0,-282.0,0.927292,-0.124603,0.353112,14726.0,-1952.0,5604.0,12.0,-3.0,1.0
2922.0,2821.0,2892.0,3135.0,3035.0,0.82251,-0.070618,-0.56427,0.007446,0.0,0.0,0.0,7318.0,-968.0,2808.0,-277.0,52.0,-85.0,-18.0,16.0,-293.0,0.927184,-0.124571,0.35319,14582.0,-1878.0,5550.0,19.0,2.0,2.0
2896.0,2823.0,2891.0,3135.0,3035.0,0.82251,-0.070435,-0.564331,0.007568,0.0,-1.0,0.0,7294.0,-931.0,2783.0,-302.0,88.0,-109.0,-2.0,47.0,-329.0,0.927269,-0.124408,0.353149,14576.0,-1776.0,5512.0,7.0,-10.0,7.0
2891.0,2818.0,2891.0,3135.0,3029.0,0.822449,-0.070435,-0.564392,0.007568,-1.0,-1.0,0.0,7302.0,-926.0,2784.0,-294.0,93.0,-107.0,0.0,53.0,-321.0,0.927301,-0.124401,0.35298,14662.0,-1828.0,5556.0,-2.0,-11.0,11.0
2893.0,2821.0,2891.0,3135.0,3031.0,0.822388,-0.070557,-0.564514,0.007629,-1.0,-1.0,0.0,7318.0,-939.0,2766.0,-279.0,82.0,-123.0,18.0,42.0,-312.0,0.927422,-0.124664,0.352725,14724.0,-1934.0,5510.0,-11.0,-10.0,17.0
2895.0,2821.0,2895.0,3135.0,3031.0,0.822388,-0.070618,-0.564514,0.00769,-1.0,0.0,0.0,7328.0,-968.0,2764.0,-269.0,54.0,-125.0,22.0,15.0,-300.0,0.927413,-0.124833,0.352718,14696.0,-2108.0,5488.0,0.0,4.0,10.0
2895.0,2819.0,2891.0,3135.0,3031.0,0.822388,-0.070557,-0.564514,0.007874,0.0,-1.0,0.0,7307.0,-975.0,2754.0,-290.0,48.0,-135.0,23.0,6.0,-322.0,0.927388,-0.124939,0.352729,14556.0,-1874.0,5486.0,22.0,-2.0,11.0
2891.0,2815.0,2891.0,3135.0,3027.0,0.822327,-0.070496,-0.564514,0.007996,0.0,-1.0,0.0,7311.0,-970.0,2752.0,-285.0,53.0,-136.0,26.0,11.0,-318.0,0.927303,-0.124968,0.352639,14704.0,-1938.0,5546.0,14.0,-6.0,8.0
2893.0,2819.0,2887.0,3135.0,3027.0,0.822327,-0.070435,-0.564514,0.008118,0.0,0.0,0.0,7309.0,-990.0,2752.0,-287.0,34.0,-136.0,24.0,-7.0,-318.0,0.927287,-0.125006,0.35265,14474.0,-2036.0,5448.0,11.0,4.0,6.0
2895.0,2823.0,2895.0,3135.0,3031.0,0.822327,-0.070435,-0.564575,0.008179,0.0,-1.0,0.0,7287.0,-997.0,2752.0,-310.0,27.0,-136.0,15.0,-16.0,-338.0,0.927378,-0.125075,0.352582,14458.0,-2030.0,5510.0,16.0,-7.0,4.0
2895.0,2822.0,2891.0,3135.0,3031.0,0.822327,-0.070251,-0.564636,0.008362,1.0,-1.0,0.0,7308.0,-997.0,2756.0,-289.0,26.0,-132.0,19.0,-15.0,-317.0,0.927456,-0.124982,0.352542,14664.0,-1916.0,5546.0,27.0,0.0,4.0
2893.0,2821.0,2891.0,3135.0,3027.0,0.822327,-0.07019,-0.564636,0.008423,0.0,0.0,0.0,7318.0,-980.0,2771.0,-279.0,43.0,-117.0,10.0,4.0,-305.0,0.927448,-0.124951,0.352551,14742.0,-1872.0,5684.0,13.0,4.0,2.0
2893.0,2818.0,2883.0,3133.0,3031.0,0.822388,-0.07019,-0.564514,0.008423,-1.0,0.0,0.0,7311.0,-983.0,2782.0,-285.0,40.0,-108.0,0.0,1.0,-307.0,0.927317,-0.124957,0.35279,14552.0,-1980.0,5602.0,-5.0,14.0,3.0
2891.0,2823.0,2895.0,3138.0,3031.0,0.822449,-0.07019,-0.564453,0.008423,-1.0,0.0,-1.0,7309.0,-986.0,2783.0,-287.0,37.0,-108.0,-1.0,-1.0,-308.0,0.927285,-0.124965,0.352959,14632.0,-1992.0,5610.0,-7.0,13.0,-1.0
2891.0,2823.0,2894.0,3135.0,3034.0,0.82251,-0.070251,-0.56427,0.008423,0.0,0.0,0.0,7299.0,-1012.0,2786.0,-295.0,12.0,-107.0,-6.0,-26.0,-312.0,0.927052,-0.125071,0.353257,14584.0,-2044.0,5586.0,6.0,13.0,1.0
2887.0,2819.0,2893.0,3134.0,3029.0,0.822571,-0.070251,-0.564209,0.008423,0.0,0.0,-1.0,7288.0,-1005.0,2797.0,-306.0,19.0,-98.0,-18.0,-20.0,-320.0,0.92702,-0.125078,0.353427,14518.0,-1984.0,5682.0,8.0,8.0,-3.0
2893.0,2817.0,2887.0,3143.0,3031.0,0.822632,-0.070129,-0.564209,0.008484,0.0,-1.0,-1.0,7292.0,-988.0,2808.0,-302.0,35.0,-88.0,-25.0,-2.0,-315.0,0.927083,-0.124955,0.353545,14638.0,-1848.0,5716.0,12.0,-3.0,-2.0
2895.0,2823.0,2895.0,3152.0,3035.0,0.822632,-0.070007,-0.564209,0.008484,0.0,-1.0,-1.0,7310.0,-969.0,2823.0,-284.0,52.0,-73.0,-31.0,17.0,-295.0,0.927085,-0.124754,0.353562,14734.0,-1840.0,5700.0,10.0,-3.0,-5.0
2895.0,2827.0,2895.0,3135.0,3029.0,0.822632,-0.069885,-0.564148,0.008423,0.0,0.0,-1.0,7324.0,-940.0,2829.0,-269.0,79.0,-68.0,-29.0,46.0,-283.0,0.926995,-0.124483,0.353647,14644.0,-1790.0,5632.0,5.0,2.0,-5.0
2893.0,2815.0,2887.0,3135.0,3031.0,0.822632,-0.069824,-0.564148,0.008362,0.0,-1.0,-1.0,7312.0,-937.0,2828.0,-282.0,81.0,-69.0,-33.0,46.0,-295.0,0.927004,-0.124314,0.353655,14530.0,-1862.0,5630.0,6.0,-2.0,-6.0
2893.0,2819.0,2895.0,3135.0,3007.0,0.822632,-0.069702,-0.564209,0.008423,0.0,-1.0,0.0,7309.0,-913.0,2836.0,-285.0,104.0,-60.0,-41.0,70.0,-298.0,0.927098,-0.124183,0.353604,14700.0,-1646.0,5772.0,8.0,-10.0,2.0
2895.0,2823.0,2895.0,3137.0,3037.0,0.822632,-0.069641,-0.564209,0.008362,-1.0,-1.0,0.0,7316.0,-894.0,2845.0,-278.0,121.0,-51.0,-45.0,88.0,-290.0,0.927108,-0.124014,0.353611,14666.0,-1732.0,5720.0,-3.0,-3.0,5.0
2895.0,2821.0,2895.0,3135.0,3031.0,0.822632,-0.069763,-0.564209,0.008301,-1.0,-1.0,0.0,7303.0,-911.0,2842.0,-291.0,106.0,-54.0,-48.0,72.0,-302.0,0.927114,-0.124146,0.353593,14558.0,-1968.0,5686.0,-19.0,-12.0,12.0
2893.0,2818.0,2893.0,3135.0,3029.0,0.822571,-0.069824,-0.56427,0.008362,-1.0,-1.0,0.0,7303.0,-949.0,2834.0,-292.0,69.0,-61.0,-44.0,34.0,-300.0,0.927136,-0.124307,0.353417,14624.0,-2118.0,5596.0,-8.0,-22.0,8.0
2894.0,2819.0,2934.0,3135.0,3015.0,0.82251,-0.069763,-0.564392,0.008545,1.0,-1.0,-1.0,7344.0,-995.0,2825.0,-251.0,24.0,-68.0,-26.0,-6.0,-259.0,0.927244,-0.124407,0.35319,14834.0,-2008.0,5644.0,28.0,-8.0,-2.0
2895.0,2822.0,2893.0,3139.0,3029.0,0.82251,-0.069641,-0.564392,0.008545,0.0,0.0,-1.0,7330.0,-977.0,2805.0,-265.0,40.0,-88.0,-11.0,5.0,-281.0,0.927246,-0.124206,0.353207,14506.0,-1814.0,5482.0,22.0,6.0,-6.0
2895.0,2825.0,2891.0,3135.0,3035.0,0.82251,-0.069641,-0.564453,0.008545,-1.0,-1.0,0.0,7283.0,-979.0,2774.0,-313.0,38.0,-118.0,-1.0,-3.0,-336.0,0.927346,-0.124207,0.353138,14490.0,-2054.0,5410.0,-8.0,-11.0,2.0
2895.0,2815.0,2890.0,3133.0,3031.0,0.822449,-0.069702,-0.564514,0.008606,-1.0,-1.0,0.0,7283.0,-1000.0,2766.0,-314.0,18.0,-125.0,3.0,-24.0,-337.0,0.927368,-0.124369,0.352961,14606.0,-2126.0,5512.0,-2.0,-16.0,2.0
2891.0,2821.0,2891.0,3133.0,3033.0,0.822327,-0.069641,-0.564636,0.008667,0.0,-1.0,-1.0,7289.0,-982.0,2770.0,-308.0,36.0,-118.0,0.0,-5.0,-331.0,0.927424,-0.124323,0.352632,14622.0,-1848.0,5556.0,7.0,-14.0,-2.0
2894.0,2822.0,2895.0,3135.0,3031.0,0.822327,-0.06958,-0.564697,0.008667,0.0,-1.0,-1.0,7309.0,-978.0,2770.0,-289.0,39.0,-118.0,7.0,0.0,-314.0,0.927525,-0.124224,0.352572,14768.0,-1974.0,5512.0,1.0,-10.0,-5.0
2895.0,2823.0,2887.0,3135.0,3030.0,0.822327,-0.069519,-0.564697,0.008606,0.0,0.0,-1.0,7312.0,-981.0,2757.0,-286.0,35.0,-131.0,20.0,-5.0,-315.0,0.927535,-0.124054,0.352579,14618.0,-1954.0,5450.0,4.0,7.0,-11.0
2895.0,2822.0,2893.0,3135.0,3031.0,0.822327,-0.069458,-0.564697,0.008545,0.0,0.0,-1.0,7309.0,-980.0,2754.0,-289.0,34.0,-134.0,22.0,-7.0,-319.0,0.927544,-0.123885,0.352587,14578.0,-1964.0,5450.0,5.0,7.0,-12.0
2893.0,2815.0,2887.0,3135.0,3031.0,0.822388,-0.069336,-0.564575,0.008484,0.0,0.0,-1.0,7325.0,-964.0,2761.0,-272.0,48.0,-129.0,24.0,8.0,-303.0,0.927423,-0.123622,0.352841,14730.0,-1852.0,5526.0,15.0,16.0,-9.0
2896.0,2821.0,2891.0,3137.0,3031.0,0.822449,-0.069214,-0.564514,0.008484,0.0,1.0,-1.0,7325.0,-942.0,2760.0,-272.0,69.0,-131.0,27.0,29.0,-307.0,0.927393,-0.123428,0.353027,14600.0,-1732.0,5556.0,19.0,23.0,-6.0
2895.0,2822.0,2895.0,3135.0,3031.0,0.822571,-0.06897,-0.564453,0.008484,0.0,-1.0,-1.0,7293.0,-909.0,2774.0,-304.0,98.0,-120.0,7.0,56.0,-336.0,0.927435,-0.123042,0.353331,14510.0,-1742.0,5594.0,6.0,0.0,-1.0
2894.0,2823.0,2893.0,3133.0,3031.0,0.82251,-0.06897,-0.564453,0.008484,0.0,-1.0,-1.0,7297.0,-900.0,2794.0,-299.0,107.0,-99.0,-9.0,68.0,-325.0,0.927366,-0.123034,0.35323,14646.0,-1740.0,5710.0,3.0,-10.0,-1.0
2894.0,2819.0,2890.0,3135.0,3035.0,0.82251,-0.068848,-0.564514,0.008484,0.0,-1.0,0.0,7336.0,-890.0,2807.0,-261.0,116.0,-86.0,-7.0,82.0,-286.0,0.927469,-0.122834,0.353178,14766.0,-1786.0,5634.0,6.0,-4.0,2.0
2894.0,2823.0,2895.0,3135.0,3035.0,0.82251,-0.068787,-0.564514,0.008484,0.0,0.0,0.0,7340.0,-890.0,2808.0,-257.0,115.0,-85.0,-6.0,81.0,-282.0,0.92747,-0.122734,0.353186,14650.0,-1772.0,5608.0,7.0,3.0,5.0
2891.0,2818.0,2895.0,3138.0,3031.0,0.82251,-0.068726,-0.564453,0.008545,-1.0,-1.0,0.0,7326.0,-893.0,2812.0,-270.0,112.0,-81.0,-15.0,77.0,-292.0,0.927362,-0.122701,0.353265,14580.0,-1816.0,5646.0,0.0,-4.0,12.0
2891.0,2819.0,2893.0,3135.0,3031.0,0.82251,-0.068787,-0.564453,0.008606,0.0,-1.0,0.0,7319.0,-905.0,2814.0,-277.0,101.0,-79.0,-20.0,66.0,-297.0,0.927352,-0.122871,0.353257,14630.0,-1904.0,5644.0,2.0,-7.0,13.0
2895.0,2815.0,2889.0,3135.0,3035.0,0.822571,-0.068787,-0.564453,0.008728,0.0,0.0,0.0,7333.0,-925.0,2831.0,-264.0,82.0,-63.0,-31.0,50.0,-277.0,0.927405,-0.123017,0.35336,14614.0,-1898.0,5666.0,4.0,5.0,11.0
2895.0,2823.0,2893.0,3135.0,3030.0,0.822571,-0.068787,-0.564392,0.008728,-1.0,-1.0,0.0,7310.0,-926.0,2832.0,-286.0,81.0,-63.0,-40.0,47.0,-297.0,0.927304,-0.123016,0.353429,14488.0,-1882.0,5664.0,-7.0,-2.0,14.0
2893.0,2815.0,2890.0,3135.0,3031.0,0.822571,-0.068909,-0.564392,0.008789,0.0,-1.0,0.0,7318.0,-962.0,2843.0,-278.0,47.0,-52.0,-49.0,15.0,-281.0,0.927294,-0.123286,0.353413,14664.0,-2016.0,5628.0,1.0,-5.0,7.0
2893.0,2818.0,2887.0,3127.0,3031.0,0.822571,-0.068909,-0.564453,0.00885,0.0,-1.0,0.0,7313.0,-966.0,2837.0,-284.0,44.0,-57.0,-47.0,11.0,-288.0,0.927386,-0.123355,0.353345,14592.0,-1934.0,5676.0,5.0,-5.0,6.0
2896.0,2822.0,2895.0,3135.0,3031.0,0.82251,-0.068909,-0.564514,0.00885,-1.0,-1.0,0.0,7297.0,-964.0,2820.0,-300.0,46.0,-73.0,-37.0,10.0,-309.0,0.927417,-0.123348,0.353176,14624.0,-1966.0,5558.0,-5.0,-15.0,4.0
2895.0,2819.0,2896.0,3133.0,3037.0,0.822449,-0.06897,-0.564575,0.008911,-1.0,-1.0,0.0,7309.0,-978.0,2818.0,-288.0,33.0,-73.0,-34.0,-1.0,-296.0,0.927439,-0.12351,0.352999,14706.0,-2032.0,5680.0,-2.0,-14.0,3.0
2894.0,2821.0,2887.0,3135.0,3030.0,0.822449,-0.068909,-0.564575,0.008911,0.0,0.0,-1.0,7322.0,-969.0,2807.0,-275.0,41.0,-84.0,-18.0,6.0,-289.0,0.92744,-0.12341,0.353008,14608.0,-1844.0,5546.0,1.0,3.0,-2.0
2895.0,2815.0,2887.0,3135.0,3027.0,0.822449,-0.06897,-0.564575,0.008911,-1.0,0.0,-1.0,7310.0,-965.0,2810.0,-287.0,46.0,-81.0,-25.0,10.0,-300.0,0.927439,-0.12351,0.352999,14540.0,-1896.0,5606.0,-9.0,2.0,-2.0
2895.0,2823.0,2893.0,3131.0,3031.0,0.822449,-0.069092,-0.564575,0.008789,-1.0,0.0,-1.0,7306.0,-951.0,2806.0,-291.0,61.0,-85.0,-22.0,24.0,-307.0,0.927454,-0.123573,0.35298,14632.0,-1816.0,5620.0,-21.0,2.0,-2.0
2893.0,2827.0,2895.0,3135.0,3035.0,0.822449,-0.069153,-0.564575,0.008667,-2.0,-1.0,0.0,7296.0,-936.0,2801.0,-301.0,76.0,-90.0,-20.0,38.0,-320.0,0.92747,-0.123536,0.35297,14510.0,-1802.0,5586.0,-33.0,-1.0,2.0
2891.0,2821.0,2891.0,3135.0,3027.0,0.822327,-0.069458,-0.564636,0.008484,-2.0,-1.0,0.0,7292.0,-956.0,2788.0,-305.0,58.0,-100.0,-13.0,18.0,-325.0,0.927452,-0.123815,0.352655,14634.0,-2046.0,5550.0,-23.0,-20.0,7.0
2895.0,2819.0,2885.0,3131.0,3027.0,0.822266,-0.069519,-0.564758,0.008545,0.0,-1.0,0.0,7300.0,-961.0,2795.0,-298.0,54.0,-91.0,-19.0,16.0,-315.0,0.927575,-0.123978,0.352409,14624.0,-1928.0,5642.0,1.0,-19.0,4.0
2896.0,2820.0,2887.0,3131.0,3037.0,0.822205,-0.069458,-0.56488,0.008606,-1.0,-1.0,0.0,7336.0,-923.0,2816.0,-263.0,92.0,-69.0,-25.0,59.0,-279.0,0.927699,-0.12394,0.35218,14850.0,-1780.0,5686.0,-1.0,-15.0,9.0
2893.0,2815.0,2896.0,3135.0,3035.0,0.822205,-0.069458,-0.56488,0.008606,-1.0,-1.0,0.0,7356.0,-921.0,2813.0,-243.0,94.0,-72.0,-14.0,63.0,-262.0,0.927699,-0.12394,0.35218,14802.0,-1830.0,5592.0,-4.0,0.0,11.0
2895.0,2823.0,2893.0,3143.0,3039.0,0.822266,-0.069519,-0.564819,0.008667,-1.0,0.0,0.0,7329.0,-926.0,2799.0,-270.0,90.0,-87.0,-11.0,54.0,-292.0,0.927658,-0.124117,0.352342,14510.0,-1852.0,5516.0,-6.0,6.0,13.0
2894.0,2819.0,2914.0,3135.0,3035.0,0.822266,-0.06958,-0.564819,0.008667,-1.0,-1.0,0.0,7302.0,-928.0,2789.0,-297.0,89.0,-97.0,-11.0,50.0,-320.0,0.927657,-0.124217,0.352334,14482.0,-1864.0,5546.0,-13.0,-5.0,11.0
2894.0,2821.0,2891.0,3135.0,3039.0,0.822144,-0.069763,-0.56488,0.008667,-1.0,-1.0,0.0,7291.0,-965.0,2787.0,-308.0,54.0,-96.0,-18.0,14.0,-326.0,0.927616,-0.124502,0.352038,14552.0,-2022.0,5572.0,-11.0,-13.0,9.0
2895.0,2801.0,2887.0,3135.0,3035.0,0.822144,-0.069824,-0.564941,0.008667,-1.0,-1.0,0.0,7291.0,-978.0,2778.0,-308.0,42.0,-105.0,-10.0,1.0,-327.0,0.927716,-0.124604,0.351961,14590.0,-2058.0,5494.0,-13.0,-15.0,8.0
2895.0,2801.0,2886.0,3167.0,3027.0,0.822021,-0.070068,-0.565063,0.008728,-1.0,-1.0,0.0,7315.0,-1010.0,2767.0,-285.0,14.0,-113.0,3.0,-24.0,-305.0,0.927765,-0.125059,0.351589,14688.0,-2092.0,5482.0,-5.0,-4.0,8.0
2895.0,2819.0,2887.0,3183.0,3035.0,0.822021,-0.070068,-0.565063,0.008728,-1.0,0.0,0.0,7326.0,-1013.0,2762.0,-274.0,11.0,-118.0,11.0,-27.0,-297.0,0.927765,-0.125059,0.351589,14684.0,-2012.0,5492.0,0.0,8.0,3.0
2891.0,2819.0,2886.0,3135.0,3031.0,0.822083,-0.070129,-0.564941,0.008728,-1.0,0.0,0.0,7314.0,-1001.0,2764.0,-285.0,24.0,-118.0,8.0,-15.0,-308.0,0.927633,-0.125166,0.351819,14632.0,-1952.0,5556.0,-5.0,11.0,2.0
2896.0,2819.0,2881.0,3135.0,3031.0,0.822144,-0.070129,-0.56488,0.008728,-1.0,0.0,-1.0,7309.0,-998.0,2771.0,-289.0,27.0,-112.0,1.0,-12.0,-310.0,0.927601,-0.125173,0.351988,14578.0,-1994.0,5600.0,-1.0,11.0,-1.0
2893.0,2823.0,2889.0,3135.0,3023.0,0.822144,-0.070068,-0.564819,0.008728,0.0,0.0,-1.0,7311.0,-982.0,2774.0,-287.0,42.0,-110.0,1.0,3.0,-310.0,0.927502,-0.125072,0.352066,14702.0,-1922.0,5552.0,3.0,2.0,-3.0
2890.0,2821.0,2895.0,3125.0,3031.0,0.822205,-0.070007,-0.564819,0.008728,0.0,0.0,-1.0,7319.0,-963.0,2786.0,-279.0,60.0,-99.0,-4.0,22.0,-301.0,0.927572,-0.12498,0.352175,14690.0,-1818.0,5638.0,1.0,3.0,-2.0
2894.0,2818.0,2882.0,3135.0,3031.0,0.822266,-0.070007,-0.564758,0.008606,-1.0,0.0,0.0,7339.0,-944.0,2799.0,-259.0,78.0,-87.0,-7.0,43.0,-280.0,0.927558,-0.12485,0.352342,14716.0,-1898.0,5588.0,-8.0,11.0,2.0
2896.0,2815.0,2893.0,3135.0,3031.0,0.822266,-0.070068,-0.564697,0.008606,-1.0,0.0,0.0,7334.0,-953.0,2791.0,-263.0,70.0,-95.0,-2.0,34.0,-286.0,0.927456,-0.124949,0.352402,14574.0,-1952.0,5490.0,-3.0,18.0,6.0
2893.0,2823.0,2886.0,3133.0,3023.0,0.822327,-0.070068,-0.564636,0.008667,-1.0,-1.0,0.0,7298.0,-942.0,2787.0,-299.0,82.0,-101.0,-9.0,42.0,-323.0,0.927416,-0.125026,0.352573,14598.0,-1866.0,5642.0,-4.0,-6.0,7.0
2893.0,2818.0,2891.0,3135.0,3030.0,0.822327,-0.070068,-0.564636,0.008667,0.0,-1.0,0.0,7325.0,-954.0,2794.0,-272.0,70.0,-94.0,-6.0,33.0,-294.0,0.927416,-0.125026,0.352573,14840.0,-1988.0,5674.0,1.0,0.0,6.0
2897.0,2815.0,2894.0,3135.0,3035.0,0.822388,-0.070068,-0.564514,0.008667,-1.0,0.0,0.0,7293.0,-939.0,2787.0,-303.0,85.0,-103.0,-8.0,44.0,-327.0,0.927284,-0.125032,0.352811,14380.0,-1828.0,5610.0,-8.0,11.0,8.0
2895.0,2805.0,2881.0,3135.0,3029.0,0.822388,-0.07019,-0.564514,0.008667,-1.0,-1.0,0.0,7281.0,-948.0,2795.0,-315.0,77.0,-95.0,-20.0,36.0,-335.0,0.927282,-0.125233,0.352794,14546.0,-2014.0,5660.0,-18.0,-6.0,10.0
2896.0,2817.0,2865.0,3135.0,3038.0,0.822388,-0.070251,-0.564514,0.008789,0.0,-1.0,0.0,7300.0,-989.0,2797.0,-296.0,38.0,-93.0,-18.0,0.0,-312.0,0.927264,-0.125471,0.352787,14594.0,-1980.0,5578.0,13.0,0.0,6.0
2895.0,2829.0,2895.0,3143.0,3038.0,0.822388,-0.07019,-0.564514,0.008789,0.0,-1.0,0.0,7312.0,-978.0,2799.0,-284.0,49.0,-91.0,-15.0,12.0,-301.0,0.927265,-0.125371,0.352796,14742.0,-1904.0,5648.0,13.0,-1.0,2.0
2895.0,2815.0,2890.0,3135.0,3035.0,0.822449,-0.070129,-0.564453,0.00885,0.0,0.0,0.0,7320.0,-952.0,2810.0,-275.0,74.0,-81.0,-19.0,38.0,-292.0,0.927226,-0.125347,0.352975,14702.0,-1810.0,5670.0,2.0,2.0,8.0
2893.0,2823.0,2885.0,3135.0,3037.0,0.822449,-0.070129,-0.564392,0.00885,-1.0,0.0,0.0,7323.0,-943.0,2809.0,-272.0,83.0,-83.0,-16.0,47.0,-291.0,0.927126,-0.125346,0.353044,14636.0,-1846.0,5612.0,-2.0,3.0,8.0
2867.0,2823.0,2894.0,3127.0,3027.0,0.822388,-0.07019,-0.564453,0.008911,-1.0,-1.0,0.0,7309.0,-936.0,2828.0,-286.0,92.0,-62.0,-40.0,57.0,-298.0,0.927148,-0.125507,0.352867,14636.0,-1872.0,5788.0,-14.0,-16.0,14.0
2895.0,2819.0,2895.0,3135.0,3038.0,0.822388,-0.070312,-0.564453,0.008911,-1.0,-1.0,0.0,7313.0,-947.0,2831.0,-282.0,82.0,-59.0,-42.0,48.0,-292.0,0.927145,-0.125708,0.35285,14666.0,-1992.0,5644.0,-15.0,-14.0,12.0
2895.0,2832.0,2896.0,3130.0,3037.0,0.822327,-0.070435,-0.564575,0.008911,-1.0,-1.0,0.0,7334.0,-965.0,2827.0,-262.0,66.0,-61.0,-33.0,34.0,-272.0,0.927275,-0.125902,0.352594,14710.0,-1920.0,5596.0,-7.0,-7.0,9.0
2890.0,2819.0,2891.0,3141.0,3023.0,0.822327,-0.070496,-0.564575,0.008911,-1.0,-1.0,0.0,7337.0,-967.0,2809.0,-259.0,65.0,-79.0,-16.0,31.0,-276.0,0.927274,-0.126003,0.352586,14704.0,-1972.0,5490.0,-13.0,-2.0,8.0
2891.0,2820.0,2883.0,3141.0,3025.0,0.822266,-0.070618,-0.564575,0.008972,-1.0,-1.0,0.0,7303.0,-998.0,2792.0,-292.0,36.0,-95.0,-15.0,-2.0,-308.0,0.927194,-0.126264,0.352469,14446.0,-2056.0,5558.0,-1.0,-4.0,5.0
2895.0,2823.0,2895.0,3135.0,3035.0,0.822266,-0.070618,-0.564636,0.008972,-1.0,-1.0,0.0,7296.0,-999.0,2796.0,-300.0,35.0,-90.0,-22.0,-3.0,-314.0,0.927295,-0.126265,0.3524,14604.0,-2002.0,5606.0,0.0,-14.0,4.0
2891.0,2827.0,2887.0,3131.0,3027.0,0.822205,-0.07074,-0.564758,0.008972,-1.0,-1.0,0.0,7297.0,-986.0,2789.0,-300.0,49.0,-95.0,-17.0,10.0,-317.0,0.927424,-0.126459,0.352145,14548.0,-1986.0,5556.0,-15.0,-14.0,4.0
2895.0,2823.0,2896.0,3135.0,3027.0,0.822144,-0.070801,-0.564819,0.008972,-1.0,-1.0,0.0,7303.0,-1003.0,2777.0,-294.0,33.0,-106.0,-5.0,-6.0,-314.0,0.927455,-0.126552,0.351967,14648.0,-2110.0,5448.0,-13.0,-14.0,10.0
2893.0,2811.0,2885.0,3139.0,3031.0,0.822083,-0.070862,-0.56488,0.009033,0.0,-1.0,-1.0,7317.0,-1005.0,2766.0,-280.0,33.0,-115.0,7.0,-6.0,-304.0,0.927476,-0.126714,0.35179,14684.0,-1950.0,5522.0,9.0,-4.0,-2.0
2896.0,2818.0,2895.0,3139.0,3027.0,0.822083,-0.070801,-0.56488,0.009033,0.0,-1.0,-1.0,7315.0,-984.0,2763.0,-282.0,53.0,-118.0,11.0,13.0,-309.0,0.927477,-0.126614,0.351799,14622.0,-1786.0,5514.0,7.0,-1.0,-3.0
2895.0,2823.0,2897.0,3125.0,3029.0,0.822021,-0.07074,-0.564941,0.008911,-1.0,-1.0,-1.0,7309.0,-954.0,2759.0,-289.0,81.0,-121.0,13.0,39.0,-320.0,0.927527,-0.126368,0.351636,14546.0,-1862.0,5468.0,-15.0,-6.0,-1.0
2895.0,2821.0,2895.0,3143.0,3037.0,0.82196,-0.070801,-0.565002,0.00885,-1.0,-1.0,0.0,7308.0,-955.0,2761.0,-290.0,80.0,-118.0,10.0,39.0,-320.0,0.927566,-0.126392,0.351457,14590.0,-1942.0,5548.0,-17.0,-11.0,0.0
2893.0,2819.0,2895.0,3127.0,3039.0,0.821899,-0.070862,-0.565125,0.00885,-1.0,-1.0,0.0,7309.0,-964.0,2767.0,-290.0,72.0,-110.0,2.0,32.0,-316.0,0.927697,-0.126485,0.35121,14672.0,-1884.0,5538.0,-1.0,-14.0,2.0
2895.0,2821.0,2887.0,3139.0,3035.0,0.821899,-0.070862,-0.565186,0.00885,-1.0,-1.0,-1.0,7306.0,-951.0,2767.0,-294.0,85.0,-109.0,0.0,44.0,-321.0,0.927797,-0.126486,0.351141,14596.0,-1848.0,5532.0,-2.0,-13.0,-2.0
2907.0,2823.0,2890.0,3135.0,3039.0,0.821777,-0.070862,-0.565247,0.008789,-1.0,-1.0,0.0,7328.0,-958.0,2767.0,-272.0,77.0,-107.0,6.0,39.0,-299.0,0.927768,-0.126401,0.35087,14754.0,-1974.0,5502.0,-6.0,-6.0,5.0
2899.0,2819.0,2886.0,3135.0,3027.0,0.821777,-0.070923,-0.565308,0.008789,-1.0,0.0,0.0,7332.0,-957.0,2766.0,-269.0,79.0,-107.0,7.0,41.0,-297.0,0.927867,-0.126503,0.350793,14702.0,-1874.0,5554.0,0.0,2.0,6.0
2895.0,2822.0,2895.0,3135.0,3031.0,0.821899,-0.070862,-0.565186,0.008789,-1.0,0.0,0.0,7343.0,-948.0,2771.0,-257.0,87.0,-105.0,10.0,50.0,-286.0,0.927806,-0.126417,0.35114,14652.0,-1894.0,5494.0,-3.0,22.0,7.0
2895.0,2819.0,2899.0,3135.0,3035.0,0.821899,-0.070923,-0.565063,0.008789,-1.0,0.0,0.0,7325.0,-954.0,2769.0,-273.0,82.0,-108.0,7.0,43.0,-301.0,0.927604,-0.126516,0.351269,14542.0,-1942.0,5564.0,-10.0,16.0,10.0
2893.0,2826.0,2891.0,3131.0,3035.0,0.82196,-0.071045,-0.565063,0.008911,0.0,-1.0,0.0,7288.0,-990.0,2776.0,-311.0,49.0,-102.0,-14.0,8.0,-330.0,0.927653,-0.126863,0.351354,14436.0,-2030.0,5582.0,4.0,-6.0,12.0
2893.0,2819.0,2895.0,3139.0,3027.0,0.821899,-0.071045,-0.565063,0.008972,0.0,-1.0,0.0,7283.0,-983.0,2788.0,-315.0,56.0,-89.0,-27.0,15.0,-330.0,0.927576,-0.126923,0.351255,14560.0,-1918.0,5664.0,6.0,-20.0,9.0
2896.0,2817.0,2883.0,3135.0,3031.0,0.821777,-0.071045,-0.565247,0.009094,0.0,-1.0,0.0,7314.0,-988.0,2797.0,-285.0,52.0,-77.0,-27.0,16.0,-298.0,0.927722,-0.127047,0.35085,14670.0,-2004.0,5596.0,3.0,-17.0,8.0
2896.0,2821.0,2895.0,3135.0,3031.0,0.821777,-0.071045,-0.565308,0.009094,0.0,-1.0,0.0,7320.0,-995.0,2796.0,-280.0,45.0,-77.0,-26.0,9.0,-292.0,0.927822,-0.127048,0.350781,14668.0,-2014.0,5570.0,2.0,-17.0,8.0
2895.0,2819.0,2895.0,3135.0,3031.0,0.821716,-0.071106,-0.565369,0.009216,-1.0,-1.0,0.0,7330.0,-1002.0,2792.0,-270.0,40.0,-80.0,-20.0,5.0,-283.0,0.927835,-0.127279,0.350605,14646.0,-2002.0,5622.0,0.0,-7.0,7.0
2895.0,2821.0,2891.0,3135.0,3029.0,0.821716,-0.071167,-0.565369,0.009216,-1.0,0.0,0.0,7330.0,-1000.0,2794.0,-270.0,43.0,-78.0,-21.0,8.0,-283.0,0.927833,-0.127379,0.350596,14678.0,-2012.0,5542.0,-12.0,2.0,6.0
2895.0,2823.0,2887.0,3138.0,3031.0,0.821716,-0.07135,-0.565308,0.009155,-1.0,0.0,0.0,7287.0,-1022.0,2758.0,-313.0,23.0,-114.0,-5.0,-19.0,-333.0,0.927739,-0.12761,0.350638,14344.0,-2108.0,5390.0,-13.0,5.0,3.0
2873.0,2821.0,2896.0,3135.0,3031.0,0.821716,-0.071411,-0.565308,0.009155,-1.0,-1.0,-1.0,7259.0,-1036.0,2745.0,-341.0,10.0,-127.0,-4.0,-36.0,-362.0,0.927737,-0.12771,0.350629,14390.0,-2158.0,5444.0,-5.0,-12.0,-2.0
2894.0,2819.0,2887.0,3141.0,3031.0,0.821594,-0.07135,-0.565491,0.009216,0.0,-1.0,-1.0,7282.0,-1021.0,2754.0,-319.0,24.0,-115.0,-6.0,-19.0,-339.0,0.927893,-0.127665,0.350231,14652.0,-1896.0,5532.0,9.0,-18.0,-2.0
2893.0,2821.0,2887.0,3135.0,3011.0,0.821533,-0.071289,-0.565552,0.009216,-1.0,-1.0,-1.0,7298.0,-992.0,2765.0,-303.0,52.0,-102.0,-10.0,11.0,-323.0,0.927925,-0.127557,0.350071,14684.0,-1848.0,5610.0,-2.0,-12.0,-1.0
2894.0,2817.0,2886.0,3135.0,3027.0,0.821533,-0.071289,-0.565613,0.009094,-1.0,-1.0,-1.0,7318.0,-979.0,2774.0,-284.0,64.0,-93.0,-11.0,26.0,-304.0,0.928043,-0.12742,0.35,14736.0,-1994.0,5586.0,-9.0,-7.0,-3.0
2890.0,2823.0,2887.0,3127.0,3038.0,0.821533,-0.071289,-0.565613,0.009033,0.0,-1.0,-1.0,7332.0,-982.0,2776.0,-270.0,61.0,-91.0,-8.0,24.0,-290.0,0.928051,-0.127351,0.349998,14754.0,-1964.0,5540.0,4.0,-1.0,-5.0
2891.0,2819.0,2891.0,3135.0,3026.0,0.821594,-0.071167,-0.565552,0.009033,-1.0,0.0,-1.0,7347.0,-943.0,2783.0,-255.0,98.0,-85.0,-6.0,63.0,-278.0,0.928022,-0.127158,0.350185,14636.0,-1728.0,5546.0,0.0,16.0,-1.0
2895.0,2815.0,2885.0,3135.0,3027.0,0.821594,-0.071167,-0.565491,0.008972,-1.0,0.0,0.0,7333.0,-928.0,2786.0,-268.0,113.0,-83.0,-11.0,77.0,-292.0,0.927931,-0.127088,0.350253,14584.0,-1808.0,5576.0,-17.0,10.0,7.0
2895.0,2821.0,2886.0,3135.0,3029.0,0.821594,-0.071411,-0.565491,0.008911,-1.0,-1.0,0.0,7309.0,-948.0,2791.0,-292.0,95.0,-77.0,-27.0,57.0,-310.0,0.927935,-0.12742,0.350217,14570.0,-2030.0,5620.0,-19.0,-10.0,12.0
2896.0,2822.0,2893.0,3133.0,3027.0,0.821594,-0.071472,-0.565552,0.008972,-1.0,-1.0,0.0,7309.0,-970.0,2795.0,-293.0,75.0,-73.0,-32.0,38.0,-307.0,0.928026,-0.127591,0.350141,14616.0,-2040.0,5566.0,-6.0,-15.0,10.0
2893.0,2826.0,2896.0,3135.0,3039.0,0.821472,-0.071472,-0.565613,0.009033,-1.0,-1.0,0.0,7317.0,-964.0,2794.0,-285.0,81.0,-72.0,-30.0,45.0,-300.0,0.927979,-0.127643,0.349872,14652.0,-1902.0,5556.0,-3.0,-14.0,7.0
2896.0,2823.0,2899.0,3135.0,3031.0,0.821472,-0.071533,-0.565674,0.009033,-1.0,-1.0,0.0,7326.0,-974.0,2791.0,-276.0,72.0,-74.0,-25.0,36.0,-291.0,0.928078,-0.127745,0.349794,14722.0,-2032.0,5550.0,-11.0,-13.0,8.0
2895.0,2823.0,2885.0,3139.0,3035.0,0.821411,-0.071594,-0.565735,0.009094,0.0,0.0,0.0,7338.0,-1012.0,2771.0,-264.0,35.0,-93.0,-6.0,0.0,-282.0,0.9281,-0.127906,0.349617,14626.0,-2068.0,5478.0,5.0,3.0,4.0
2889.0,2819.0,2895.0,3135.0,3035.0,0.821411,-0.071594,-0.565735,0.009094,0.0,0.0,0.0,7322.0,-991.0,2764.0,-280.0,56.0,-100.0,-3.0,17.0,-301.0,0.9281,-0.127906,0.349617,14560.0,-1838.0,5472.0,3.0,3.0,6.0
2895.0,2819.0,2891.0,3135.0,3027.0,0.821411,-0.071716,-0.565735,0.009033,-1.0,0.0,0.0,7309.0,-995.0,2746.0,-294.0,53.0,-117.0,6.0,11.0,-320.0,0.928106,-0.128038,0.349599,14532.0,-2062.0,5400.0,-16.0,2.0,6.0
2893.0,2823.0,2891.0,3139.0,3031.0,0.821411,-0.071838,-0.565735,0.009033,-1.0,-1.0,0.0,7288.0,-992.0,2735.0,-315.0,58.0,-128.0,9.0,13.0,-344.0,0.928104,-0.128238,0.349581,14456.0,-1948.0,5422.0,-16.0,-5.0,9.0
2887.0,2815.0,2894.0,3131.0,3031.0,0.821289,-0.072083,-0.565918,0.009033,-2.0,-2.0,0.0,7282.0,-979.0,2741.0,-322.0,74.0,-119.0,0.0,29.0,-349.0,0.928262,-0.128625,0.349138,14616.0,-1920.0,5524.0,-26.0,-24.0,15.0
2895.0,2815.0,2896.0,3135.0,3035.0,0.821167,-0.072205,-0.565979,0.009033,-2.0,-2.0,1.0,7274.0,-973.0,2745.0,-329.0,82.0,-112.0,-8.0,37.0,-355.0,0.928222,-0.128809,0.348851,14422.0,-1876.0,5498.0,-23.0,-26.0,26.0
2893.0,2827.0,2890.0,3135.0,3025.0,0.820862,-0.072693,-0.566345,0.009216,-2.0,-2.0,2.0,7320.0,-943.0,2746.0,-285.0,120.0,-103.0,1.0,79.0,-316.0,0.928442,-0.129781,0.347868,14850.0,-1898.0,5506.0,-42.0,-43.0,53.0
2891.0,2819.0,2887.0,3135.0,3035.0,0.82074,-0.073059,-0.566467,0.009277,-3.0,-2.0,2.0,7354.0,-935.0,2761.0,-252.0,133.0,-85.0,-2.0,97.0,-280.0,0.928489,-0.130436,0.347477,14788.0,-1856.0,5588.0,-54.0,-29.0,57.0
2895.0,2814.0,2891.0,3127.0,3039.0,0.820618,-0.073669,-0.566589,0.009338,-2.0,-1.0,1.0,7380.0,-1011.0,2754.0,-226.0,66.0,-89.0,6.0,33.0,-249.0,0.928531,-0.131491,0.34705,14822.0,-2258.0,5420.0,-28.0,-7.0,28.0
2895.0,2815.0,2891.0,3138.0,3039.0,0.820618,-0.073792,-0.56665,0.009399,0.0,0.0,0.0,7382.0,-1034.0,2750.0,-225.0,45.0,-92.0,8.0,12.0,-246.0,0.928619,-0.131762,0.346964,14722.0,-2180.0,5464.0,1.0,1.0,13.0
2896.0,2815.0,2886.0,3139.0,3034.0,0.820679,-0.07373,-0.566528,0.009583,0.0,0.0,0.0,7356.0,-1029.0,2762.0,-249.0,51.0,-82.0,-9.0,16.0,-266.0,0.928462,-0.131876,0.347215,14592.0,-2010.0,5518.0,13.0,14.0,9.0
2891.0,2815.0,2925.0,3127.0,3029.0,0.82074,-0.073669,-0.566467,0.009583,0.0,0.0,0.0,7341.0,-1020.0,2755.0,-264.0,59.0,-90.0,-6.0,22.0,-284.0,0.928433,-0.131783,0.347393,14580.0,-2008.0,5468.0,6.0,11.0,8.0
2891.0,2823.0,2882.0,3134.0,3039.0,0.820801,-0.073669,-0.566345,0.009644,0.0,0.0,0.0,7331.0,-1037.0,2751.0,-273.0,43.0,-96.0,-5.0,4.0,-292.0,0.928292,-0.131859,0.347633,14650.0,-2106.0,5506.0,5.0,14.0,1.0
2895.0,2821.0,2895.0,3139.0,3035.0,0.820862,-0.073669,-0.566284,0.009644,-1.0,0.0,-1.0,7329.0,-1035.0,2755.0,-275.0,45.0,-94.0,-8.0,6.0,-293.0,0.928261,-0.131867,0.347802,14636.0,-2068.0,5558.0,-3.0,19.0,-6.0
2895.0,2827.0,2895.0,3135.0,3038.0,0.820984,-0.073792,-0.56604,0.009521,-1.0,1.0,-1.0,7307.0,-1035.0,2752.0,-295.0,45.0,-100.0,-9.0,4.0,-314.0,0.928014,-0.131942,0.348259,14460.0,-2040.0,5458.0,-14.0,24.0,-3.0
2895.0,2815.0,2887.0,3122.0,3031.0,0.821045,-0.073792,-0.565979,0.009399,-1.0,0.0,-1.0,7301.0,-1037.0,2750.0,-301.0,42.0,-104.0,-8.0,0.0,-321.0,0.928001,-0.131812,0.348426,14624.0,-2128.0,5534.0,-18.0,18.0,-6.0
2885.0,2815.0,2881.0,3135.0,3031.0,0.821167,-0.073914,-0.565796,0.009277,-1.0,1.0,-1.0,7312.0,-1055.0,2740.0,-288.0,25.0,-117.0,7.0,-16.0,-311.0,0.927854,-0.131889,0.348813,14628.0,-2086.0,5448.0,-2.0,25.0,-9.0
2895.0,2826.0,2903.0,3143.0,3037.0,0.821228,-0.073853,-0.565735,0.009216,-1.0,1.0,-1.0,7308.0,-1037.0,2737.0,-292.0,42.0,-121.0,10.0,0.0,-318.0,0.927833,-0.131728,0.34899,14626.0,-1970.0,5456.0,-1.0,26.0,-12.0
2896.0,2827.0,2893.0,3135.0,3031.0,0.82135,-0.073792,-0.565552,0.009033,-1.0,0.0,-1.0,7291.0,-1003.0,2739.0,-308.0,73.0,-123.0,8.0,28.0,-338.0,0.927699,-0.131435,0.349404,14640.0,-1966.0,5526.0,-7.0,9.0,-9.0
2895.0,2815.0,2887.0,3131.0,3035.0,0.82135,-0.07373,-0.565552,0.008972,-1.0,0.0,-1.0,7321.0,-993.0,2742.0,-278.0,82.0,-120.0,17.0,40.0,-310.0,0.927709,-0.131266,0.349412,14818.0,-1900.0,5464.0,-4.0,12.0,-9.0
2894.0,2818.0,2885.0,3127.0,3029.0,0.821533,-0.073669,-0.565308,0.008789,-1.0,1.0,-1.0,7356.0,-982.0,2757.0,-242.0,90.0,-110.0,21.0,53.0,-274.0,0.927543,-0.130981,0.349994,14690.0,-2016.0,5536.0,-8.0,43.0,-8.0
2893.0,2821.0,2893.0,3139.0,3035.0,0.821655,-0.073669,-0.565063,0.008728,-1.0,1.0,-1.0,7327.0,-994.0,2759.0,-269.0,78.0,-112.0,12.0,38.0,-298.0,0.927289,-0.130926,0.35047,14416.0,-2068.0,5486.0,-2.0,44.0,-7.0
2895.0,2822.0,2893.0,3141.0,3034.0,0.821777,-0.073608,-0.564941,0.008728,0.0,-1.0,0.0,7247.0,-993.0,2762.0,-348.0,78.0,-111.0,-17.0,30.0,-371.0,0.927227,-0.130841,0.350817,14402.0,-1988.0,5612.0,7.0,-12.0,8.0
2895.0,2815.0,2881.0,3155.0,3035.0,0.821716,-0.073608,-0.565002,0.008789,0.0,-2.0,0.0,7268.0,-1003.0,2779.0,-328.0,69.0,-93.0,-27.0,25.0,-345.0,0.92725,-0.130902,0.350649,14714.0,-2052.0,5642.0,7.0,-26.0,9.0
2890.0,2815.0,2891.0,3127.0,3025.0,0.821716,-0.073547,-0.565063,0.008911,0.0,0.0,0.0,7342.0,-1010.0,2799.0,-254.0,62.0,-73.0,-19.0,28.0,-269.0,0.927333,-0.130941,0.350591,14752.0,-2016.0,5628.0,10.0,10.0,5.0
2895.0,2823.0,2895.0,3139.0,3035.0,0.821777,-0.073486,-0.565002,0.008911,0.0,0.0,0.0,7337.0,-1012.0,2799.0,-259.0,59.0,-74.0,-20.0,24.0,-273.0,0.927303,-0.130848,0.350769,14636.0,-2086.0,5576.0,2.0,14.0,3.0
2890.0,2823.0,2895.0,3135.0,3027.0,0.821899,-0.073486,-0.564819,0.009033,0.0,1.0,-1.0,7340.0,-1058.0,2780.0,-254.0,15.0,-96.0,-1.0,-20.0,-271.0,0.927122,-0.131001,0.351179,14658.0,-2186.0,5494.0,14.0,27.0,-1.0
2896.0,2819.0,2891.0,3135.0,3031.0,0.82196,-0.073425,-0.564697,0.009033,0.0,1.0,-1.0,7318.0,-1061.0,2773.0,-275.0,11.0,-105.0,-1.0,-27.0,-293.0,0.926991,-0.130907,0.351426,14500.0,-2120.0,5544.0,16.0,25.0,-4.0
2895.0,2814.0,2893.0,3134.0,3030.0,0.822021,-0.073425,-0.564575,0.009094,-1.0,-1.0,-1.0,7267.0,-1052.0,2777.0,-325.0,21.0,-103.0,-20.0,-22.0,-340.0,0.92685,-0.130983,0.351666,14444.0,-2096.0,5556.0,-2.0,-3.0,-2.0
2895.0,2821.0,2887.0,3135.0,3039.0,0.822021,-0.073425,-0.564636,0.009033,-1.0,-1.0,-1.0,7266.0,-1053.0,2780.0,-327.0,19.0,-100.0,-24.0,-24.0,-340.0,0.92696,-0.130915,0.351596,14546.0,-2114.0,5576.0,-2.0,-11.0,-6.0
2891.0,2823.0,2885.0,3135.0,3027.0,0.82196,-0.073425,-0.564697,0.008972,-1.0,-1.0,-1.0,7288.0,-1026.0,2804.0,-305.0,45.0,-74.0,-38.0,6.0,-314.0,0.927,-0.130838,0.351425,14644.0,-1896.0,5666.0,-13.0,-8.0,-9.0
2891.0,2815.0,2885.0,3130.0,3031.0,0.82196,-0.073425,-0.564697,0.00885,-1.0,-1.0,-1.0,7301.0,-1007.0,2802.0,-293.0,63.0,-76.0,-31.0,25.0,-306.0,0.927018,-0.130701,0.351423,14688.0,-1920.0,5566.0,-22.0,-6.0,-9.0
2896.0,2822.0,2891.0,3131.0,3027.0,0.82196,-0.073547,-0.564697,0.008606,-1.0,0.0,-1.0,7343.0,-1023.0,2807.0,-251.0,47.0,-71.0,-21.0,14.0,-263.0,0.927052,-0.130626,0.351401,14806.0,-2124.0,5592.0,-10.0,6.0,-10.0
2896.0,2827.0,2896.0,3135.0,3047.0,0.822021,-0.073486,-0.564636,0.008606,0.0,0.0,-1.0,7342.0,-1020.0,2798.0,-252.0,49.0,-82.0,-11.0,14.0,-268.0,0.927021,-0.130533,0.351579,14614.0,-1990.0,5530.0,8.0,18.0,-11.0
2893.0,2822.0,2895.0,3135.0,3031.0,0.822083,-0.073303,-0.564575,0.008545,0.0,0.0,-1.0,7308.0,-976.0,2781.0,-286.0,90.0,-100.0,-4.0,50.0,-312.0,0.927002,-0.130171,0.351774,14478.0,-1824.0,5490.0,5.0,5.0,-3.0
2895.0,2819.0,2893.0,3135.0,3039.0,0.822083,-0.073303,-0.564575,0.008545,0.0,-1.0,0.0,7295.0,-963.0,2780.0,-299.0,103.0,-101.0,-7.0,61.0,-326.0,0.927002,-0.130171,0.351774,14528.0,-1860.0,5546.0,3.0,-10.0,6.0
2896.0,2822.0,2893.0,3131.0,3035.0,0.822021,-0.073242,-0.564697,0.008606,0.0,-1.0,0.0,7325.0,-936.0,2783.0,-270.0,130.0,-96.0,0.0,91.0,-300.0,0.927126,-0.130133,0.351546,14696.0,-1764.0,5572.0,7.0,-6.0,16.0
2896.0,2818.0,2891.0,3133.0,3035.0,0.82196,-0.073181,-0.564697,0.008667,0.0,-1.0,0.0,7331.0,-926.0,2784.0,-263.0,139.0,-95.0,2.0,101.0,-295.0,0.927049,-0.130092,0.351456,14700.0,-1790.0,5568.0,2.0,-6.0,17.0
2896.0,2823.0,2894.0,3135.0,3039.0,0.822021,-0.073242,-0.564697,0.008728,-1.0,0.0,0.0,7345.0,-946.0,2791.0,-249.0,121.0,-88.0,0.0,85.0,-277.0,0.927108,-0.130271,0.351548,14672.0,-1998.0,5562.0,-6.0,8.0,14.0
2895.0,2823.0,2895.0,3135.0,3030.0,0.822021,-0.073303,-0.564636,0.008789,-1.0,0.0,0.0,7336.0,-978.0,2785.0,-257.0,90.0,-95.0,1.0,53.0,-283.0,0.926998,-0.130439,0.351609,14618.0,-2144.0,5502.0,-4.0,9.0,13.0
2893.0,2815.0,2885.0,3135.0,3027.0,0.822083,-0.073364,-0.564514,0.008911,0.0,0.0,0.0,7314.0,-1007.0,2800.0,-278.0,63.0,-82.0,-20.0,26.0,-294.0,0.926847,-0.130684,0.351841,14526.0,-1988.0,5600.0,1.0,8.0,5.0
2895.0,2823.0,2927.0,3135.0,3027.0,0.822144,-0.073425,-0.564453,0.00885,-1.0,0.0,0.0,7288.0,-1012.0,2801.0,-304.0,58.0,-82.0,-30.0,18.0,-318.0,0.926823,-0.130723,0.352,14394.0,-2092.0,5606.0,-10.0,5.0,5.0
2896.0,2823.0,2895.0,3133.0,3035.0,0.822083,-0.073608,-0.564514,0.008911,0.0,-1.0,0.0,7272.0,-1064.0,2792.0,-320.0,9.0,-89.0,-32.0,-32.0,-329.0,0.926843,-0.131085,0.351805,14692.0,-2252.0,5590.0,2.0,-16.0,6.0
2892.0,2815.0,2890.0,3133.0,3027.0,0.822021,-0.073547,-0.564575,0.009033,0.0,-1.0,0.0,7300.0,-1071.0,2793.0,-292.0,3.0,-87.0,-24.0,-35.0,-301.0,0.926857,-0.131115,0.351647,14788.0,-2130.0,5590.0,14.0,-10.0,4.0
2891.0,2819.0,2890.0,3135.0,3030.0,0.822083,-0.073486,-0.564514,0.009033,-1.0,0.0,0.0,7307.0,-1032.0,2800.0,-285.0,41.0,-82.0,-24.0,3.0,-298.0,0.926827,-0.131022,0.351825,14544.0,-1954.0,5564.0,-4.0,9.0,2.0
2895.0,2821.0,2891.0,3135.0,3034.0,0.822083,-0.073547,-0.564514,0.009033,-1.0,-1.0,0.0,7305.0,-1030.0,2795.0,-287.0,44.0,-87.0,-20.0,5.0,-302.0,0.926826,-0.131123,0.351816,14638.0,-2090.0,5558.0,-13.0,-1.0,0.0
2895.0,2825.0,2895.0,3135.0,3035.0,0.822083,-0.073486,-0.564453,0.008972,0.0,0.0,-1.0,7322.0,-1038.0,2798.0,-269.0,34.0,-84.0,-17.0,-1.0,-283.0,0.926735,-0.130952,0.351893,14594.0,-1966.0,5606.0,11.0,5.0,-10.0
2891.0,2815.0,2890.0,3135.0,3030.0,0.822144,-0.073425,-0.564453,0.008972,0.0,0.0,-1.0,7309.0,-1007.0,2794.0,-283.0,65.0,-89.0,-15.0,26.0,-302.0,0.926805,-0.130861,0.352002,14540.0,-1844.0,5560.0,4.0,1.0,-8.0
2895.0,2821.0,2883.0,3129.0,3030.0,0.822083,-0.073364,-0.564514,0.00885,-1.0,-1.0,0.0,7301.0,-978.0,2780.0,-291.0,91.0,-102.0,-4.0,50.0,-317.0,0.926856,-0.130615,0.351839,14612.0,-1922.0,5536.0,-10.0,-11.0,4.0
2895.0,2820.0,2895.0,3135.0,3038.0,0.822021,-0.073425,-0.564575,0.00885,-1.0,-1.0,0.0,7316.0,-977.0,2779.0,-277.0,93.0,-101.0,0.0,53.0,-304.0,0.926886,-0.130707,0.351661,14748.0,-1942.0,5568.0,-8.0,-14.0,7.0
2891.0,2820.0,2891.0,3135.0,3031.0,0.822021,-0.073486,-0.564636,0.008911,0.0,-1.0,0.0,7332.0,-982.0,2798.0,-261.0,90.0,-82.0,-12.0,54.0,-282.0,0.926977,-0.130878,0.351584,14624.0,-1998.0,5642.0,2.0,-2.0,13.0
2891.0,2815.0,2893.0,3135.0,3031.0,0.822021,-0.073425,-0.564636,0.008972,0.0,-1.0,0.0,7316.0,-991.0,2800.0,-277.0,80.0,-80.0,-20.0,43.0,-295.0,0.926969,-0.130846,0.351594,14526.0,-2018.0,5612.0,8.0,-3.0,12.0
2894.0,2818.0,2891.0,3135.0,3031.0,0.822021,-0.073364,-0.564636,0.009155,0.0,-1.0,0.0,7304.0,-1002.0,2804.0,-289.0,70.0,-76.0,-29.0,32.0,-303.0,0.926943,-0.130953,0.351607,14634.0,-1994.0,5636.0,15.0,-14.0,10.0
2895.0,2823.0,2894.0,3135.0,3031.0,0.82196,-0.073364,-0.564697,0.009216,0.0,-1.0,0.0,7329.0,-1001.0,2823.0,-264.0,72.0,-55.0,-39.0,39.0,-273.0,0.926965,-0.131014,0.351439,14828.0,-1992.0,5758.0,8.0,-11.0,12.0
2895.0,2823.0,2895.0,3135.0,3031.0,0.822021,-0.073425,-0.564636,0.009277,-1.0,-1.0,0.0,7319.0,-1005.0,2822.0,-274.0,69.0,-58.0,-40.0,34.0,-283.0,0.926924,-0.131191,0.3516,14554.0,-2088.0,5630.0,-15.0,-2.0,12.0
2892.0,2818.0,2890.0,3135.0,3035.0,0.822021,-0.073547,-0.564636,0.009277,-1.0,-1.0,0.0,7319.0,-1030.0,2823.0,-274.0,46.0,-57.0,-43.0,12.0,-280.0,0.926922,-0.131392,0.351582,14666.0,-2268.0,5638.0,-17.0,-5.0,6.0
2893.0,2815.0,2891.0,3131.0,3031.0,0.82196,-0.073608,-0.564636,0.009277,-1.0,-1.0,-1.0,7312.0,-1059.0,2809.0,-280.0,18.0,-70.0,-35.0,-17.0,-286.0,0.926852,-0.131483,0.351473,14552.0,-2092.0,5572.0,0.0,0.0,-6.0
2895.0,2819.0,2891.0,3135.0,3031.0,0.822021,-0.073608,-0.564636,0.009216,-1.0,0.0,-1.0,7304.0,-1056.0,2801.0,-289.0,20.0,-79.0,-29.0,-17.0,-298.0,0.926929,-0.131423,0.351572,14560.0,-2088.0,5552.0,-7.0,1.0,-7.0
2895.0,2823.0,2895.0,3135.0,3031.0,0.82196,-0.073669,-0.564636,0.009094,-1.0,-1.0,-1.0,7277.0,-1050.0,2782.0,-315.0,26.0,-97.0,-22.0,-15.0,-329.0,0.926877,-0.131377,0.35146,14506.0,-2106.0,5532.0,-10.0,-8.0,-5.0
2895.0,2819.0,2891.0,3135.0,3031.0,0.82196,-0.07373,-0.564697,0.009094,-1.0,-1.0,-1.0,7282.0,-1047.0,2775.0,-311.0,30.0,-103.0,-14.0,-12.0,-328.0,0.926977,-0.131478,0.351383,14622.0,-2068.0,5550.0,-4.0,-11.0,-4.0
2894.0,2819.0,2891.0,3135.0,3031.0,0.821899,-0.073608,-0.564758,0.009033,0.0,-1.0,-1.0,7301.0,-1035.0,2767.0,-293.0,39.0,-110.0,-1.0,-2.0,-315.0,0.927019,-0.131201,0.35123,14632.0,-2062.0,5520.0,5.0,-2.0,-7.0
2893.0,2819.0,2893.0,3119.0,3031.0,0.821899,-0.073608,-0.564758,0.009033,0.0,0.0,-1.0,7309.0,-1018.0,2776.0,-285.0,56.0,-101.0,-5.0,16.0,-307.0,0.927019,-0.131201,0.35123,14684.0,-1908.0,5600.0,5.0,2.0,-6.0
2895.0,2825.0,2895.0,3135.0,3034.0,0.82196,-0.073486,-0.564758,0.008911,-1.0,0.0,-1.0,7315.0,-985.0,2779.0,-279.0,87.0,-99.0,-3.0,47.0,-304.0,0.927108,-0.130871,0.351346,14584.0,-1906.0,5556.0,-5.0,4.0,-3.0
2894.0,2818.0,2870.0,3139.0,3029.0,0.82196,-0.073486,-0.564758,0.008911,-1.0,0.0,0.0,7299.0,-986.0,2771.0,-295.0,86.0,-107.0,-1.0,44.0,-322.0,0.927108,-0.130871,0.351346,14488.0,-1970.0,5486.0,-5.0,1.0,0.0
2895.0,2815.0,2887.0,3135.0,3031.0,0.821899,-0.073486,-0.564819,0.008911,-1.0,-1.0,0.0,7305.0,-990.0,2768.0,-290.0,82.0,-108.0,1.0,40.0,-317.0,0.92714,-0.130863,0.351177,14680.0,-2004.0,5534.0,0.0,-11.0,4.0
2895.0,2823.0,2894.0,3135.0,3035.0,0.821838,-0.073486,-0.56488,0.008911,0.0,-1.0,0.0,7314.0,-989.0,2766.0,-281.0,82.0,-109.0,5.0,41.0,-309.0,0.927171,-0.130855,0.351008,14672.0,-1952.0,5518.0,5.0,-9.0,5.0
2895.0,2823.0,2894.0,3135.0,3031.0,0.821838,-0.073486,-0.56488,0.008911,-1.0,-1.0,0.0,7319.0,-984.0,2774.0,-276.0,87.0,-101.0,0.0,47.0,-302.0,0.927171,-0.130855,0.351008,14628.0,-2004.0,5522.0,-5.0,0.0,6.0
2895.0,2819.0,2891.0,3135.0,3030.0,0.821838,-0.073547,-0.56488,0.008911,-1.0,-1.0,0.0,7303.0,-989.0,2775.0,-292.0,83.0,-100.0,-6.0,42.0,-316.0,0.92717,-0.130956,0.350999,14484.0,-1994.0,5548.0,-9.0,0.0,7.0
2893.0,2817.0,2891.0,3133.0,3035.0,0.821838,-0.073608,-0.56488,0.008972,0.0,-1.0,0.0,7315.0,-1033.0,2775.0,-280.0,41.0,-100.0,-5.0,2.0,-300.0,0.92716,-0.131125,0.350991,14690.0,-2158.0,5508.0,4.0,-1.0,3.0
2895.0,2822.0,2893.0,3139.0,3031.0,0.821838,-0.073547,-0.56488,0.008972,0.0,0.0,-1.0,7317.0,-1037.0,2775.0,-278.0,36.0,-100.0,-5.0,-2.0,-297.0,0.927161,-0.131024,0.351,14584.0,-2066.0,5510.0,15.0,9.0,-2.0
2894.0,2823.0,2891.0,3135.0,3038.0,0.821899,-0.073425,-0.564819,0.009033,0.0,0.0,0.0,7291.0,-1012.0,2784.0,-303.0,60.0,-92.0,-20.0,19.0,-321.0,0.927123,-0.130901,0.351188,14504.0,-1938.0,5600.0,7.0,2.0,0.0
2895.0,2819.0,2893.0,3135.0,3031.0,0.821899,-0.073425,-0.564819,0.009033,0.0,-1.0,0.0,7296.0,-1012.0,2796.0,-298.0,60.0,-80.0,-29.0,21.0,-312.0,0.927123,-0.130901,0.351188,14624.0,-2034.0,5668.0,4.0,0.0,1.0
2895.0,2819.0,2887.0,3131.0,3035.0,0.821899,-0.073303,-0.564758,0.009094,0.0,-1.0,0.0,7283.0,-996.0,2796.0,-311.0,75.0,-81.0,-32.0,34.0,-326.0,0.927016,-0.130768,0.351276,14498.0,-1896.0,5568.0,6.0,-6.0,0.0
2896.0,2823.0,2895.0,3137.0,3031.0,0.821899,-0.073303,-0.564819,0.009033,-1.0,-1.0,0.0,7299.0,-993.0,2813.0,-296.0,77.0,-64.0,-42.0,40.0,-306.0,0.927125,-0.1307,0.351206,14760.0,-2000.0,5720.0,-3.0,-14.0,0.0
2893.0,2819.0,2893.0,3137.0,3029.0,0.821899,-0.073242,-0.564819,0.009033,0.0,-1.0,0.0,7337.0,-997.0,2818.0,-258.0,72.0,-59.0,-33.0,39.0,-269.0,0.927126,-0.1306,0.351215,14790.0,-1986.0,5664.0,5.0,-1.0,2.0
2895.0,2819.0,2891.0,3190.0,3035.0,0.821899,-0.073181,-0.564758,0.009094,0.0,0.0,0.0,7342.0,-988.0,2819.0,-252.0,81.0,-58.0,-31.0,49.0,-264.0,0.927018,-0.130567,0.351294,14666.0,-1904.0,5584.0,7.0,10.0,2.0
2895.0,2797.0,2894.0,3165.0,3031.0,0.82196,-0.073181,-0.564697,0.009033,-1.0,0.0,0.0,7313.0,-978.0,2804.0,-280.0,91.0,-75.0,-25.0,54.0,-297.0,0.926996,-0.130506,0.351462,14534.0,-1954.0,5528.0,-9.0,3.0,9.0
2896.0,2821.0,2894.0,3139.0,3031.0,0.82196,-0.073242,-0.564758,0.009033,-1.0,-1.0,0.0,7305.0,-989.0,2796.0,-289.0,80.0,-82.0,-22.0,41.0,-307.0,0.927095,-0.130608,0.351384,14624.0,-2070.0,5574.0,-9.0,-12.0,10.0
2895.0,2827.0,2895.0,3135.0,3031.0,0.821899,-0.073242,-0.564819,0.009155,0.0,-1.0,0.0,7316.0,-1015.0,2793.0,-278.0,56.0,-84.0,-18.0,18.0,-294.0,0.927108,-0.130738,0.351217,14646.0,-2064.0,5582.0,14.0,-13.0,4.0
2895.0,2819.0,2893.0,3139.0,3035.0,0.821838,-0.073181,-0.56488,0.009216,0.0,-1.0,0.0,7319.0,-1010.0,2792.0,-276.0,60.0,-83.0,-18.0,23.0,-292.0,0.927132,-0.130698,0.351058,14662.0,-1952.0,5594.0,15.0,-11.0,1.0
2893.0,2819.0,2887.0,3131.0,3011.0,0.821838,-0.073059,-0.565002,0.009216,-1.0,-1.0,0.0,7320.0,-997.0,2788.0,-276.0,72.0,-86.0,-14.0,34.0,-295.0,0.927335,-0.1305,0.350938,14692.0,-2020.0,5492.0,-1.0,-12.0,0.0
2896.0,2820.0,2895.0,3139.0,3038.0,0.821777,-0.073059,-0.565002,0.009216,-1.0,-1.0,0.0,7328.0,-1002.0,2787.0,-268.0,66.0,-87.0,-11.0,29.0,-287.0,0.927266,-0.130491,0.350838,14672.0,-2018.0,5598.0,-2.0,-5.0,2.0
2896.0,2819.0,2890.0,3135.0,3035.0,0.821777,-0.07312,-0.565002,0.009216,-1.0,0.0,0.0,7307.0,-1004.0,2774.0,-289.0,65.0,-99.0,-7.0,25.0,-311.0,0.927265,-0.130591,0.350829,14512.0,-2036.0,5480.0,-4.0,3.0,3.0
2895.0,2821.0,2887.0,3135.0,3035.0,0.821777,-0.07312,-0.565002,0.009216,-1.0,0.0,0.0,7296.0,-1000.0,2774.0,-300.0,69.0,-99.0,-11.0,28.0,-321.0,0.927265,-0.130591,0.350829,14520.0,-1974.0,5536.0,-6.0,1.0,4.0
2894.0,2822.0,2891.0,3143.0,3035.0,0.821777,-0.073181,-0.565002,0.009216,-1.0,-1.0,0.0,7290.0,-1008.0,2764.0,-306.0,62.0,-109.0,-5.0,19.0,-330.0,0.927263,-0.130692,0.35082,14634.0,-2020.0,5546.0,-2.0,-9.0,8.0
2895.0,2823.0,2894.0,3135.0,3034.0,0.821716,-0.073242,-0.565063,0.009277,0.0,-1.0,0.0,7301.0,-1008.0,2761.0,-295.0,63.0,-111.0,0.0,21.0,-320.0,0.927285,-0.130853,0.350643,14678.0,-1998.0,5504.0,3.0,-8.0,7.0
2895.0,2833.0,2893.0,3137.0,3035.0,0.821716,-0.073181,-0.565125,0.009338,0.0,-1.0,0.0,7303.0,-1006.0,2773.0,-294.0,65.0,-98.0,-10.0,24.0,-315.0,0.927377,-0.130823,0.350584,14572.0,-1996.0,5548.0,5.0,-6.0,3.0
2895.0,2823.0,2893.0,3135.0,3029.0,0.821655,-0.07312,-0.565125,0.009338,0.0,-1.0,0.0,7314.0,-1003.0,2770.0,-282.0,67.0,-101.0,-3.0,27.0,-305.0,0.927309,-0.130714,0.350492,14740.0,-2024.0,5550.0,3.0,-11.0,1.0
2895.0,2821.0,2895.0,3135.0,3035.0,0.821655,-0.073059,-0.565125,0.009338,0.0,0.0,0.0,7342.0,-1015.0,2765.0,-254.0,54.0,-106.0,10.0,16.0,-279.0,0.927311,-0.130613,0.350501,14760.0,-2044.0,5488.0,7.0,8.0,1.0
2887.0,2823.0,2895.0,3135.0,3035.0,0.821716,-0.073059,-0.565063,0.009338,0.0,0.0,0.0,7351.0,-1010.0,2764.0,-245.0,60.0,-108.0,15.0,23.0,-272.0,0.927279,-0.130621,0.350671,14726.0,-1970.0,5550.0,1.0,22.0,0.0
2896.0,2827.0,2895.0,3135.0,3035.0,0.821838,-0.073181,-0.564941,0.009338,-1.0,0.0,0.0,7276.0,-1016.0,2752.0,-319.0,55.0,-123.0,2.0,9.0,-346.0,0.927214,-0.130837,0.350991,14390.0,-2100.0,5508.0,-14.0,4.0,10.0
2893.0,2819.0,2893.0,3135.0,3031.0,0.821838,-0.073242,-0.564941,0.009338,-1.0,-1.0,0.0,7282.0,-1045.0,2756.0,-313.0,27.0,-119.0,0.0,-17.0,-335.0,0.927213,-0.130938,0.350982,14648.0,-2268.0,5546.0,-4.0,-6.0,3.0
2894.0,2825.0,2894.0,3135.0,3029.0,0.821777,-0.07312,-0.564941,0.009399,0.0,-1.0,-1.0,7295.0,-1037.0,2773.0,-300.0,34.0,-101.0,-12.0,-6.0,-318.0,0.927137,-0.130797,0.350901,14646.0,-1944.0,5642.0,12.0,-5.0,-7.0
2895.0,2825.0,2894.0,3135.0,3035.0,0.821838,-0.073059,-0.564941,0.009399,-1.0,0.0,-1.0,7312.0,-1024.0,2787.0,-283.0,46.0,-88.0,-17.0,8.0,-299.0,0.927208,-0.130706,0.35101,14730.0,-2012.0,5606.0,-1.0,1.0,-9.0
2895.0,2823.0,2895.0,3137.0,3039.0,0.821838,-0.073059,-0.564941,0.009338,0.0,-1.0,-1.0,7296.0,-1017.0,2773.0,-299.0,53.0,-102.0,-9.0,11.0,-319.0,0.927217,-0.130637,0.351009,14532.0,-1970.0,5488.0,5.0,-5.0,-5.0
2895.0,2821.0,2887.0,3134.0,3055.0,0.821777,-0.072937,-0.565002,0.009277,0.0,-1.0,-1.0,7292.0,-998.0,2773.0,-304.0,69.0,-101.0,-11.0,27.0,-326.0,0.927259,-0.130359,0.350856,14600.0,-1874.0,5576.0,7.0,-14.0,-7.0
2895.0,2821.0,2893.0,3175.0,3031.0,0.821777,-0.072876,-0.565063,0.009216,-1.0,-1.0,0.0,7338.0,-959.0,2795.0,-259.0,107.0,-78.0,-13.0,72.0,-281.0,0.927369,-0.130191,0.350795,14852.0,-1812.0,5674.0,-5.0,-5.0,0.0
2895.0,2822.0,2911.0,3135.0,3027.0,0.821777,-0.072815,-0.565063,0.009216,-1.0,0.0,0.0,7335.0,-952.0,2799.0,-262.0,113.0,-74.0,-18.0,78.0,-283.0,0.927371,-0.130091,0.350804,14584.0,-1860.0,5590.0,-7.0,10.0,3.0
2895.0,2826.0,2887.0,3131.0,3027.0,0.821838,-0.072876,-0.565002,0.009155,-1.0,-1.0,0.0,7293.0,-940.0,2794.0,-303.0,126.0,-81.0,-25.0,86.0,-325.0,0.927347,-0.13013,0.350963,14532.0,-1824.0,5564.0,-12.0,-9.0,11.0
2891.0,2815.0,2895.0,3139.0,3027.0,0.821777,-0.072937,-0.565063,0.009155,-1.0,-1.0,0.0,7303.0,-954.0,2797.0,-294.0,112.0,-76.0,-27.0,73.0,-313.0,0.927377,-0.130223,0.350785,14688.0,-2024.0,5606.0,-9.0,-13.0,12.0
2894.0,2819.0,2889.0,3135.0,3031.0,0.821777,-0.073059,-0.565063,0.009216,-1.0,0.0,0.0,7330.0,-966.0,2804.0,-266.0,102.0,-69.0,-25.0,67.0,-284.0,0.927366,-0.130492,0.350769,14650.0,-1930.0,5620.0,-7.0,2.0,12.0
2895.0,2819.0,2895.0,3138.0,3037.0,0.821777,-0.07312,-0.565002,0.009216,-1.0,0.0,0.0,7316.0,-969.0,2794.0,-280.0,100.0,-79.0,-20.0,62.0,-300.0,0.927265,-0.130591,0.350829,14530.0,-1996.0,5536.0,-15.0,1.0,16.0
2894.0,2821.0,2887.0,3135.0,3038.0,0.821716,-0.073303,-0.565125,0.009277,-1.0,-1.0,0.0,7307.0,-1012.0,2782.0,-290.0,60.0,-89.0,-17.0,21.0,-307.0,0.927384,-0.130955,0.350565,14614.0,-2164.0,5534.0,-1.0,-15.0,12.0
2896.0,2822.0,2891.0,3135.0,3031.0,0.821655,-0.073303,-0.565186,0.009399,0.0,-1.0,0.0,7307.0,-1031.0,2784.0,-290.0,42.0,-86.0,-21.0,3.0,-304.0,0.927397,-0.131085,0.350398,14628.0,-2144.0,5588.0,12.0,-19.0,11.0
2893.0,2823.0,2887.0,3135.0,3031.0,0.821594,-0.073242,-0.565308,0.009583,0.0,-1.0,0.0,7326.0,-1048.0,2774.0,-272.0,26.0,-94.0,-8.0,-11.0,-288.0,0.927503,-0.131185,0.350172,14690.0,-2150.0,5496.0,16.0,-9.0,3.0
2895.0,2823.0,2885.0,3141.0,3035.0,0.821533,-0.073181,-0.565308,0.009644,0.0,-1.0,0.0,7319.0,-1048.0,2756.0,-278.0,26.0,-111.0,4.0,-13.0,-300.0,0.927427,-0.131145,0.350082,14598.0,-2084.0,5438.0,18.0,-4.0,1.0
2896.0,2823.0,2891.0,3133.0,3027.0,0.821533,-0.073059,-0.565308,0.009705,0.0,0.0,-1.0,7304.0,-1040.0,2746.0,-293.0,33.0,-122.0,10.0,-9.0,-318.0,0.92742,-0.131013,0.350101,14550.0,-2086.0,5444.0,3.0,4.0,-1.0
2895.0,2819.0,2891.0,3135.0,3038.0,0.821533,-0.07312,-0.565308,0.009705,-1.0,0.0,0.0,7285.0,-1040.0,2743.0,-312.0,34.0,-124.0,5.0,-10.0,-337.0,0.927419,-0.131113,0.350092,14460.0,-2098.0,5474.0,-3.0,2.0,0.0
2895.0,2819.0,2895.0,3135.0,3031.0,0.821533,-0.07312,-0.565369,0.009705,-1.0,-1.0,-1.0,7295.0,-1050.0,2730.0,-303.0,24.0,-137.0,19.0,-21.0,-332.0,0.927519,-0.131115,0.350023,14688.0,-2142.0,5418.0,-1.0,-1.0,-4.0
2894.0,2821.0,2891.0,3139.0,3039.0,0.821533,-0.07312,-0.565369,0.009644,0.0,0.0,-1.0,7305.0,-1040.0,2725.0,-293.0,33.0,-142.0,28.0,-11.0,-325.0,0.927528,-0.131046,0.350022,14654.0,-2008.0,5458.0,1.0,8.0,-3.0
2895.0,2815.0,2896.0,3131.0,3027.0,0.821594,-0.073181,-0.565247,0.009583,-1.0,0.0,0.0,7321.0,-1022.0,2730.0,-276.0,51.0,-139.0,33.0,8.0,-311.0,0.927404,-0.131083,0.35025,14744.0,-2076.0,5494.0,-12.0,20.0,0.0
2895.0,2820.0,2891.0,3135.0,3035.0,0.821655,-0.073181,-0.565186,0.009521,-1.0,1.0,0.0,7334.0,-1025.0,2739.0,-263.0,48.0,-131.0,30.0,7.0,-296.0,0.927382,-0.131022,0.350418,14720.0,-2064.0,5532.0,-7.0,26.0,0.0
2895.0,2819.0,2893.0,3135.0,3025.0,0.821777,-0.073181,-0.564941,0.00946,-1.0,0.0,-1.0,7298.0,-1017.0,2752.0,-297.0,55.0,-122.0,9.0,11.0,-325.0,0.927127,-0.130966,0.350893,14478.0,-2044.0,5552.0,0.0,12.0,-2.0
2895.0,2823.0,2894.0,3134.0,3027.0,0.821838,-0.073181,-0.564941,0.00946,0.0,-1.0,0.0,7301.0,-1026.0,2770.0,-294.0,46.0,-105.0,-5.0,5.0,-315.0,0.927196,-0.130975,0.350994,14702.0,-2120.0,5672.0,7.0,-4.0,1.0
2896.0,2819.0,2883.0,3133.0,3025.0,0.821899,-0.072937,-0.56488,0.009644,1.0,0.0,0.0,7321.0,-997.0,2786.0,-274.0,74.0,-91.0,-9.0,36.0,-295.0,0.927143,-0.130789,0.351202,14544.0,-1766.0,5620.0,30.0,10.0,5.0
2894.0,2827.0,2895.0,3134.0,3029.0,0.821899,-0.072815,-0.56488,0.009644,0.0,-1.0,0.0,7305.0,-962.0,2804.0,-290.0,107.0,-73.0,-29.0,69.0,-308.0,0.927145,-0.130588,0.35122,14554.0,-1736.0,5710.0,7.0,-5.0,9.0
2887.0,2818.0,2891.0,3135.0,3026.0,0.821899,-0.072815,-0.56488,0.009705,0.0,-1.0,0.0,7333.0,-995.0,2831.0,-262.0,75.0,-46.0,-46.0,43.0,-268.0,0.927136,-0.130657,0.351221,14786.0,-2194.0,5750.0,1.0,-6.0,9.0
2891.0,2823.0,2894.0,3135.0,3035.0,0.821899,-0.072815,-0.564819,0.009766,0.0,0.0,0.0,7338.0,-1000.0,2831.0,-256.0,70.0,-46.0,-45.0,39.0,-262.0,0.927027,-0.130725,0.351291,14662.0,-1960.0,5638.0,11.0,4.0,6.0
2885.0,2819.0,2887.0,3135.0,3023.0,0.82196,-0.072815,-0.564758,0.009766,-1.0,0.0,0.0,7320.0,-998.0,2825.0,-273.0,72.0,-54.0,-43.0,38.0,-281.0,0.926996,-0.130732,0.35146,14580.0,-2086.0,5564.0,-5.0,8.0,4.0
2898.0,2821.0,2895.0,3134.0,3029.0,0.822021,-0.072815,-0.564697,0.009766,-1.0,0.0,0.0,7305.0,-1019.0,2812.0,-288.0,52.0,-68.0,-37.0,15.0,-297.0,0.926964,-0.13074,0.35163,14542.0,-2162.0,5556.0,-3.0,7.0,6.0
2891.0,2819.0,2894.0,3134.0,3031.0,0.822021,-0.072876,-0.564697,0.009888,0.0,-1.0,0.0,7283.0,-1029.0,2797.0,-310.0,43.0,-83.0,-32.0,2.0,-322.0,0.926945,-0.130978,0.351623,14516.0,-2016.0,5566.0,6.0,-4.0,2.0
2896.0,2823.0,2887.0,3147.0,3023.0,0.822021,-0.072815,-0.564697,0.009888,-1.0,-1.0,0.0,7290.0,-1024.0,2794.0,-303.0,48.0,-86.0,-26.0,8.0,-317.0,0.926947,-0.130878,0.351632,14660.0,-2018.0,5588.0,-1.0,-8.0,0.0
2897.0,2815.0,2885.0,3135.0,3031.0,0.82196,-0.072876,-0.564758,0.009827,-1.0,-1.0,-1.0,7308.0,-1031.0,2787.0,-285.0,41.0,-92.0,-14.0,2.0,-301.0,0.926986,-0.130902,0.351453,14622.0,-2066.0,5520.0,-4.0,-2.0,-4.0
2896.0,2819.0,2889.0,3137.0,3033.0,0.82196,-0.072876,-0.564758,0.009766,-1.0,0.0,-1.0,7311.0,-1033.0,2789.0,-282.0,38.0,-90.0,-15.0,0.0,-298.0,0.926995,-0.130833,0.351452,14644.0,-2080.0,5624.0,-2.0,1.0,-4.0
2892.0,2823.0,2890.0,3135.0,3031.0,0.822021,-0.072815,-0.564697,0.009766,0.0,-1.0,-1.0,7283.0,-1014.0,2772.0,-310.0,57.0,-108.0,-8.0,14.0,-332.0,0.926964,-0.13074,0.35163,14476.0,-1910.0,5506.0,2.0,-3.0,-2.0
2891.0,2821.0,2887.0,3143.0,3027.0,0.82196,-0.072754,-0.564758,0.009766,-1.0,-1.0,-1.0,7289.0,-1000.0,2772.0,-304.0,70.0,-107.0,-5.0,27.0,-328.0,0.926997,-0.130632,0.351469,14654.0,-1922.0,5548.0,-2.0,-10.0,-2.0
2897.0,2821.0,2894.0,3139.0,3031.0,0.82196,-0.072754,-0.564758,0.009705,-1.0,0.0,0.0,7329.0,-971.0,2776.0,-265.0,98.0,-103.0,6.0,59.0,-294.0,0.927006,-0.130563,0.351468,14646.0,-1846.0,5524.0,-8.0,9.0,2.0
2894.0,2815.0,3015.0,3135.0,3037.0,0.82196,-0.072815,-0.564758,0.009644,-1.0,0.0,0.0,7323.0,-972.0,2766.0,-271.0,97.0,-113.0,13.0,57.0,-303.0,0.927014,-0.130595,0.351458,14622.0,-1974.0,5488.0,-13.0,6.0,5.0
2897.0,2829.0,2895.0,3127.0,3039.0,0.822021,-0.072815,-0.564697,0.009705,0.0,0.0,0.0,7317.0,-1005.0,2765.0,-276.0,65.0,-115.0,11.0,24.0,-304.0,0.926973,-0.130671,0.351628,14634.0,-2112.0,5550.0,9.0,5.0,6.0
2903.0,2823.0,2879.0,3135.0,3031.0,0.822021,-0.072815,-0.564636,0.009766,0.0,0.0,0.0,7320.0,-1010.0,2768.0,-272.0,61.0,-113.0,10.0,21.0,-299.0,0.926864,-0.130739,0.351699,14650.0,-1992.0,5568.0,22.0,9.0,6.0
2891.0,2823.0,2897.0,3127.0,3031.0,0.822083,-0.072693,-0.564636,0.009827,-1.0,-1.0,0.0,7294.0,-963.0,2784.0,-299.0,107.0,-98.0,-10.0,65.0,-325.0,0.926926,-0.130616,0.351818,14560.0,-1830.0,5616.0,-7.0,-4.0,6.0
2893.0,2819.0,2894.0,3139.0,3035.0,0.822083,-0.072754,-0.564636,0.009766,-1.0,-1.0,0.0,7303.0,-976.0,2787.0,-290.0,94.0,-95.0,-10.0,54.0,-314.0,0.926934,-0.130647,0.351808,14678.0,-2052.0,5610.0,-16.0,-8.0,6.0
2892.0,2823.0,2887.0,3131.0,3035.0,0.822021,-0.072815,-0.564636,0.009766,0.0,0.0,0.0,7329.0,-1012.0,2792.0,-263.0,59.0,-89.0,-8.0,22.0,-282.0,0.926864,-0.130739,0.351699,14684.0,-2100.0,5588.0,4.0,6.0,3.0
2897.0,2818.0,2899.0,3135.0,3031.0,0.822083,-0.072754,-0.564575,0.009827,0.0,0.0,0.0,7323.0,-1007.0,2789.0,-269.0,63.0,-93.0,-6.0,25.0,-290.0,0.926825,-0.130715,0.351878,14568.0,-1954.0,5496.0,8.0,14.0,2.0
2897.0,2822.0,2890.0,3139.0,3023.0,0.822144,-0.072693,-0.564514,0.009827,-1.0,0.0,0.0,7292.0,-1002.0,2772.0,-300.0,68.0,-112.0,0.0,25.0,-326.0,0.926795,-0.130623,0.352056,14566.0,-1988.0,5546.0,0.0,4.0,1.0
2896.0,2823.0,2893.0,3135.0,3025.0,0.822144,-0.072693,-0.564453,0.009827,-1.0,0.0,0.0,7298.0,-1012.0,2764.0,-293.0,58.0,-120.0,9.0,15.0,-321.0,0.926694,-0.130621,0.352125,14640.0,-2132.0,5480.0,0.0,4.0,1.0
2893.0,2821.0,2887.0,3135.0,3031.0,0.822205,-0.072693,-0.564453,0.009827,0.0,0.0,0.0,7290.0,-1004.0,2766.0,-302.0,66.0,-119.0,5.0,22.0,-330.0,0.926763,-0.13063,0.352225,14564.0,-1962.0,5590.0,2.0,5.0,0.0
