flex_1,flex_2,flex_3,flex_4,flex_5,Qw,Qx,Qy,Qz,GYRx,GYRy,GYRz,ACCx,ACCy,ACCz,ACCx_real,ACCy_real,ACCz_real,ACCx_world,ACCy_world,ACCz_world,GRAx,GRAy,GRAz,ACCx_raw,ACCy_raw,ACCz_raw,GYRx_raw,GYRy_raw,GYRz_raw
2885.0,2829.0,2886.0,3131.0,3043.0,1.0,0.0,0.0,0.0,0.0,0.0,0.0,0.0,0.0,0.0,0.0,0.0,0.0,0.0,0.0,0.0,0.0,0.0,0.0,0.0,0.0,0.0,0.0,0.0,0.0
2877.0,2833.0,2893.0,3147.0,3056.0,0.863708,-0.005188,-0.503906,0.002869,0.0,0.0,0.0,7784.0,-132.0,1048.0,653.0,-34.0,-2982.0,2917.0,-45.0,-898.0,0.870426,-0.011853,0.492052,15364.0,-378.0,1932.0,4.0,7.0,7.0
2887.0,2815.0,2910.0,3126.0,3025.0,0.862244,-0.005188,-0.50647,0.003052,0.0,-2.0,0.0,7776.0,-159.0,1044.0,621.0,-60.0,-2944.0,2873.0,-70.0,-890.0,0.873369,-0.012038,0.486935,15760.0,-374.0,2152.0,18.0,-27.0,9.0
2891.0,2827.0,2895.0,3135.0,3027.0,0.861511,-0.005188,-0.50769,0.003174,0.0,-1.0,0.0,7819.0,-156.0,1053.0,653.0,-56.0,-2915.0,2866.0,-65.0,-840.0,0.874729,-0.012162,0.484435,15872.0,-274.0,2158.0,19.0,-11.0,5.0
2886.0,2807.0,2903.0,3131.0,3037.0,0.860168,-0.005127,-0.51001,0.003235,0.0,0.0,-1.0,7835.0,-150.0,1054.0,647.0,-50.0,-2876.0,2833.0,-58.0,-811.0,0.877355,-0.01212,0.479764,15660.0,-358.0,2122.0,2.0,12.0,-2.0
2883.0,2823.0,2883.0,3163.0,3043.0,0.859497,-0.005127,-0.511108,0.003174,-1.0,0.0,-1.0,7834.0,-156.0,1051.0,636.0,-57.0,-2860.0,2816.0,-66.0,-806.0,0.87856,-0.012058,0.477487,15666.0,-348.0,2068.0,-3.0,18.0,-7.0
2906.0,2827.0,2883.0,3115.0,3024.0,0.858276,-0.005188,-0.513184,0.003113,0.0,0.0,-1.0,7805.0,-178.0,1056.0,588.0,-78.0,-2820.0,2762.0,-87.0,-815.0,0.880874,-0.0121,0.473264,15460.0,-408.0,2172.0,1.0,19.0,-11.0
2883.0,2814.0,2917.0,3135.0,3051.0,0.857605,-0.005188,-0.514221,0.003113,0.0,0.0,-1.0,7793.0,-191.0,1061.0,567.0,-91.0,-2797.0,2734.0,-100.0,-816.0,0.881965,-0.0121,0.471046,15566.0,-472.0,2172.0,7.0,3.0,-12.0
2916.0,2817.0,2893.0,3135.0,3023.0,0.856262,-0.005127,-0.516418,0.003113,0.0,-1.0,-1.0,7779.0,-155.0,1077.0,534.0,-56.0,-2744.0,2675.0,-65.0,-807.0,0.884347,-0.011995,0.46648,15446.0,-154.0,2178.0,6.0,-7.0,-9.0
2894.0,2832.0,2893.0,3147.0,3039.0,0.855591,-0.005066,-0.517578,0.002991,-1.0,-1.0,-1.0,7781.0,-132.0,1082.0,525.0,-35.0,-2720.0,2652.0,-44.0,-797.0,0.88564,-0.011765,0.464132,15598.0,-156.0,2182.0,-10.0,-18.0,-9.0
2891.0,2837.0,2887.0,3152.0,3051.0,0.854187,-0.005188,-0.519897,0.00293,-1.0,-1.0,-1.0,7821.0,-121.0,1089.0,545.0,-23.0,-2673.0,2624.0,-32.0,-743.0,0.888149,-0.011909,0.459324,15760.0,-164.0,2200.0,-4.0,-7.0,-6.0
2893.0,2831.0,2897.0,3123.0,3051.0,0.853577,-0.005127,-0.520935,0.002869,-1.0,0.0,-1.0,7851.0,-93.0,1099.0,565.0,3.0,-2646.0,2611.0,-6.0,-707.0,0.889287,-0.011741,0.457202,15890.0,-6.0,2292.0,-4.0,10.0,-9.0
2889.0,2823.0,2909.0,3119.0,3039.0,0.852417,-0.005249,-0.522766,0.002686,-2.0,1.0,0.0,7833.0,-80.0,1094.0,532.0,16.0,-2619.0,2575.0,5.0,-713.0,0.891201,-0.011757,0.45331,15460.0,-298.0,2120.0,-28.0,33.0,2.0
2867.0,2815.0,2899.0,3158.0,3039.0,0.851868,-0.005432,-0.523743,0.002625,-1.0,0.0,0.0,7785.0,-104.0,1080.0,475.0,-5.0,-2617.0,2549.0,-17.0,-757.0,0.89229,-0.012004,0.45135,15276.0,-314.0,2108.0,-19.0,21.0,7.0
2883.0,2801.0,2903.0,3143.0,3026.0,0.850586,-0.005615,-0.525818,0.002686,-1.0,-1.0,0.0,7736.0,-144.0,1045.0,408.0,-42.0,-2616.0,2522.0,-55.0,-803.0,0.894476,-0.012377,0.446988,15460.0,-410.0,1986.0,0.0,-17.0,8.0
2893.0,2841.0,2898.0,3139.0,3051.0,0.849854,-0.005676,-0.526917,0.002808,0.0,-1.0,0.0,7745.0,-169.0,1042.0,408.0,-65.0,-2600.0,2509.0,-77.0,-789.0,0.895572,-0.012607,0.444586,15578.0,-502.0,2086.0,14.0,-20.0,6.0
2897.0,2834.0,2894.0,3119.0,3029.0,0.848511,-0.005493,-0.529053,0.002991,1.0,-1.0,-1.0,7802.0,-156.0,1055.0,447.0,-53.0,-2549.0,2485.0,-63.0,-719.0,0.897781,-0.012487,0.440052,15830.0,-206.0,2162.0,28.0,-4.0,-3.0
2878.0,2837.0,2891.0,3135.0,3059.0,0.847961,-0.005371,-0.530029,0.002991,0.0,0.0,-1.0,7854.0,-147.0,1073.0,490.0,-46.0,-2515.0,2475.0,-55.0,-660.0,0.898857,-0.012279,0.438088,16022.0,-232.0,2292.0,21.0,18.0,-9.0
2870.0,2827.0,2893.0,3159.0,3017.0,0.846863,-0.00531,-0.531738,0.002991,-1.0,1.0,-1.0,7811.0,-116.0,1055.0,433.0,-16.0,-2503.0,2442.0,-25.0,-697.0,0.900587,-0.012174,0.434412,15352.0,-186.0,2004.0,-6.0,29.0,-6.0
2864.0,2837.0,2885.0,3107.0,3039.0,0.846313,-0.005371,-0.532654,0.00293,-1.0,0.0,0.0,7791.0,-129.0,1062.0,405.0,-28.0,-2481.0,2412.0,-38.0,-707.0,0.901553,-0.012212,0.432506,15514.0,-362.0,2178.0,-15.0,8.0,0.0
2895.0,2835.0,2889.0,3149.0,3024.0,0.845093,-0.005554,-0.534607,0.002869,-1.0,-1.0,0.0,7791.0,-138.0,1086.0,389.0,-35.0,-2423.0,2356.0,-46.0,-685.0,0.903553,-0.012455,0.428355,15606.0,-286.0,2276.0,-13.0,-9.0,3.0
2893.0,2826.0,2895.0,3135.0,3030.0,0.844482,-0.005676,-0.535583,0.002869,-1.0,-1.0,0.0,7802.0,-156.0,1092.0,391.0,-52.0,-2400.0,2337.0,-63.0,-668.0,0.904549,-0.01266,0.426277,15646.0,-436.0,2230.0,-5.0,-7.0,0.0
2871.0,2819.0,2897.0,3120.0,3029.0,0.843262,-0.005676,-0.537476,0.00293,0.0,-1.0,-1.0,7793.0,-159.0,1116.0,367.0,-54.0,-2342.0,2277.0,-64.0,-655.0,0.906432,-0.012722,0.422187,15610.0,-198.0,2346.0,13.0,-13.0,-1.0
2871.0,2831.0,2906.0,3135.0,3053.0,0.842651,-0.005615,-0.538452,0.002991,-1.0,-1.0,0.0,7827.0,-132.0,1125.0,393.0,-28.0,-2316.0,2266.0,-38.0,-615.0,0.907421,-0.012684,0.420108,15926.0,-106.0,2296.0,-2.0,-13.0,1.0
2886.0,2839.0,2907.0,3134.0,3023.0,0.841492,-0.005798,-0.540222,0.00293,-1.0,0.0,0.0,7838.0,-163.0,1081.0,390.0,-57.0,-2328.0,2278.0,-67.0,-613.0,0.909151,-0.012924,0.416243,15478.0,-470.0,2002.0,-10.0,20.0,2.0
2881.0,2815.0,2891.0,3127.0,3055.0,0.840942,-0.005859,-0.541077,0.00293,0.0,0.0,-1.0,7828.0,-185.0,1068.0,373.0,-78.0,-2326.0,2271.0,-89.0,-623.0,0.909994,-0.013025,0.414394,15626.0,-492.0,2060.0,1.0,16.0,-4.0
2863.0,2815.0,2877.0,3143.0,3007.0,0.839844,-0.005859,-0.542786,0.002991,0.0,-1.0,-1.0,7771.0,-168.0,1062.0,302.0,-60.0,-2302.0,2222.0,-71.0,-669.0,0.911675,-0.013089,0.410696,15432.0,-234.0,2116.0,8.0,-1.0,-5.0
2879.0,2832.0,2891.0,3115.0,3055.0,0.839233,-0.005798,-0.543701,0.002991,-1.0,-1.0,-1.0,7763.0,-151.0,1068.0,287.0,-44.0,-2279.0,2197.0,-55.0,-668.0,0.91255,-0.012984,0.408677,15488.0,-218.0,2204.0,0.0,-11.0,-2.0
2863.0,2811.0,2871.0,3131.0,3039.0,0.838074,-0.005859,-0.545532,0.002991,0.0,-1.0,-1.0,7786.0,-165.0,1070.0,295.0,-57.0,-2245.0,2172.0,-68.0,-638.0,0.914357,-0.013084,0.404737,15702.0,-400.0,2124.0,9.0,-7.0,-8.0
2895.0,2805.0,2892.0,3138.0,3025.0,0.837524,-0.005737,-0.546387,0.002991,1.0,0.0,-1.0,7810.0,-163.0,1077.0,312.0,-57.0,-2223.0,2160.0,-67.0,-609.0,0.91519,-0.012878,0.402885,15772.0,-306.0,2182.0,23.0,7.0,-16.0
2885.0,2813.0,2887.0,3109.0,3035.0,0.836548,-0.005371,-0.547852,0.002991,2.0,1.0,-2.0,7828.0,-190.0,1072.0,319.0,-89.0,-2201.0,2144.0,-98.0,-586.0,0.916576,-0.012263,0.399651,15622.0,-516.0,2102.0,48.0,37.0,-31.0
2883.0,2827.0,2911.0,3141.0,3055.0,0.83606,-0.005005,-0.548584,0.003052,3.0,1.0,-3.0,7827.0,-237.0,1059.0,312.0,-141.0,-2201.0,2143.0,-148.0,-588.0,0.917267,-0.011717,0.398035,15654.0,-770.0,2060.0,82.0,40.0,-46.0
2883.0,2823.0,2895.0,3143.0,3024.0,0.835205,-0.003723,-0.549927,0.003296,5.0,1.0,-3.0,7771.0,-172.0,1085.0,246.0,-91.0,-2152.0,2074.0,-94.0,-623.0,0.918579,-0.009844,0.395145,15396.0,294.0,2430.0,119.0,23.0,-58.0
2895.0,2821.0,2883.0,3119.0,3059.0,0.834717,-0.003174,-0.550659,0.003235,2.0,0.0,-2.0,7769.0,-38.0,1117.0,238.0,34.0,-2106.0,2029.0,32.0,-610.0,0.919268,-0.008861,0.393527,15560.0,762.0,2444.0,48.0,1.0,-35.0
2889.0,2813.0,2879.0,3147.0,3039.0,0.833618,-0.003479,-0.552307,0.002747,-5.0,-1.0,0.0,7799.0,19.0,1151.0,255.0,91.0,-2042.0,1979.0,87.0,-562.0,0.920807,-0.008834,0.389872,15810.0,-298.0,2304.0,-101.0,-20.0,16.0
2894.0,2823.0,2877.0,3127.0,3031.0,0.833008,-0.003967,-0.553162,0.002563,-4.0,-1.0,0.0,7834.0,-52.0,1149.0,284.0,25.0,-2028.0,1979.0,19.0,-525.0,0.921556,-0.009446,0.387905,15852.0,-542.0,2294.0,-80.0,-7.0,13.0
2871.0,2827.0,2897.0,3127.0,3019.0,0.832031,-0.004395,-0.554688,0.002502,-1.0,0.0,-1.0,7833.0,-127.0,1136.0,271.0,-44.0,-2014.0,1963.0,-50.0,-523.0,0.923013,-0.010089,0.384585,15610.0,-278.0,2276.0,-4.0,12.0,-6.0
2877.0,2811.0,2878.0,3123.0,3043.0,0.831543,-0.004333,-0.55542,0.002502,0.0,0.0,-1.0,7825.0,-114.0,1133.0,258.0,-32.0,-2004.0,1949.0,-38.0,-528.0,0.923689,-0.009987,0.38296,15578.0,-158.0,2222.0,6.0,11.0,-5.0
2882.0,2823.0,2885.0,3127.0,3027.0,0.830566,-0.004333,-0.556885,0.002563,0.0,0.0,0.0,7803.0,-88.0,1112.0,225.0,-5.0,-1998.0,1933.0,-11.0,-550.0,0.925037,-0.010054,0.379708,15498.0,14.0,2214.0,5.0,10.0,9.0
2875.0,2829.0,2886.0,3119.0,3047.0,0.830078,-0.004395,-0.557678,0.002502,-1.0,-1.0,0.0,7787.0,-73.0,1097.0,202.0,9.0,-1999.0,1927.0,1.0,-568.0,0.925811,-0.010087,0.378012,15548.0,-124.0,2148.0,-18.0,0.0,9.0
2879.0,2811.0,2895.0,3151.0,3023.0,0.829041,-0.004639,-0.559204,0.002502,-1.0,0.0,0.0,7811.0,-118.0,1073.0,215.0,-32.0,-1995.0,1930.0,-39.0,-547.0,0.927182,-0.01049,0.374584,15578.0,-356.0,2050.0,-14.0,15.0,7.0
2876.0,2815.0,2899.0,3139.0,3047.0,0.828552,-0.0047,-0.559875,0.002502,-1.0,0.0,0.0,7801.0,-127.0,1068.0,200.0,-40.0,-1987.0,1918.0,-48.0,-555.0,0.927749,-0.01059,0.373022,15514.0,-298.0,2062.0,-3.0,19.0,4.0
2887.0,2821.0,2906.0,3126.0,3031.0,0.827637,-0.0047,-0.561218,0.002563,0.0,0.0,-1.0,7804.0,-150.0,1077.0,194.0,-62.0,-1954.0,1886.0,-69.0,-542.0,0.928946,-0.010657,0.370001,15756.0,-396.0,2318.0,17.0,21.0,-8.0
2890.0,2827.0,2896.0,3143.0,3023.0,0.827271,-0.004578,-0.561768,0.002625,1.0,1.0,-1.0,7792.0,-159.0,1077.0,177.0,-72.0,-1944.0,1872.0,-79.0,-551.0,0.929443,-0.010523,0.36878,15452.0,-350.0,2150.0,34.0,35.0,-17.0
2869.0,2832.0,2879.0,3143.0,3039.0,0.826355,-0.004211,-0.56311,0.002747,1.0,-1.0,-1.0,7740.0,-122.0,1110.0,116.0,-39.0,-1886.0,1797.0,-45.0,-581.0,0.930635,-0.010054,0.365759,15492.0,-28.0,2390.0,31.0,-6.0,-12.0
2877.0,2819.0,2895.0,3131.0,3055.0,0.825867,-0.004028,-0.563843,0.002747,0.0,-1.0,-1.0,7756.0,-91.0,1139.0,126.0,-11.0,-1843.0,1762.0,-16.0,-553.0,0.931296,-0.009751,0.364129,15632.0,-42.0,2458.0,15.0,-13.0,-5.0
2885.0,2820.0,2885.0,3135.0,3039.0,0.824829,-0.004028,-0.565308,0.002747,0.0,-1.0,0.0,7791.0,-79.0,1152.0,151.0,0.0,-1803.0,1735.0,-5.0,-509.0,0.932542,-0.009751,0.360762,15788.0,-166.0,2244.0,1.0,-20.0,3.0
2879.0,2815.0,2887.0,3131.0,3051.0,0.824341,-0.004028,-0.566101,0.002747,0.0,-1.0,0.0,7823.0,-84.0,1153.0,177.0,-4.0,-1788.0,1732.0,-8.0,-476.0,0.933298,-0.009751,0.359059,15786.0,-232.0,2326.0,9.0,-10.0,1.0
2879.0,2820.0,2890.0,3142.0,3035.0,0.823364,-0.003845,-0.567505,0.00293,1.0,-1.0,0.0,7815.0,-81.0,1151.0,159.0,-1.0,-1764.0,1705.0,-4.0,-479.0,0.934504,-0.009657,0.355861,15598.0,-92.0,2344.0,23.0,-10.0,6.0
2879.0,2811.0,2879.0,3131.0,3039.0,0.822815,-0.003845,-0.568237,0.002991,0.0,-1.0,0.0,7799.0,-61.0,1145.0,138.0,18.0,-1755.0,1690.0,14.0,-492.0,0.935085,-0.009727,0.354125,15500.0,-26.0,2244.0,12.0,-17.0,11.0
2895.0,2823.0,2898.0,3131.0,3043.0,0.821716,-0.003906,-0.569824,0.003174,-1.0,-2.0,0.0,7794.0,-76.0,1132.0,122.0,6.0,-1739.0,1671.0,2.0,-495.0,0.936443,-0.010037,0.350513,15672.0,-208.0,2234.0,0.0,-36.0,20.0
2882.0,2831.0,2907.0,3143.0,3019.0,0.821167,-0.003967,-0.570618,0.003235,-1.0,-1.0,0.0,7801.0,-76.0,1114.0,124.0,7.0,-1742.0,1675.0,3.0,-491.0,0.937119,-0.010207,0.348705,15624.0,-138.0,2098.0,0.0,-22.0,15.0
2879.0,2831.0,2911.0,3131.0,3043.0,0.820129,-0.004089,-0.572144,0.003296,-1.0,-1.0,0.0,7815.0,-89.0,1082.0,127.0,-3.0,-1746.0,1682.0,-6.0,-483.0,0.938437,-0.010479,0.345258,15706.0,-168.0,2080.0,-4.0,-15.0,2.0
2879.0,2823.0,2865.0,3127.0,3039.0,0.819641,-0.004089,-0.572815,0.003296,-1.0,-1.0,-1.0,7815.0,-93.0,1065.0,122.0,-7.0,-1750.0,1685.0,-10.0,-486.0,0.938978,-0.010479,0.343689,15604.0,-218.0,2020.0,-5.0,-5.0,-1.0
2877.0,2817.0,2890.0,3139.0,3023.0,0.818726,-0.004089,-0.574158,0.003296,0.0,0.0,-1.0,7808.0,-122.0,1045.0,106.0,-36.0,-1745.0,1676.0,-40.0,-494.0,0.940128,-0.010481,0.340649,15614.0,-284.0,2040.0,19.0,5.0,-5.0
2891.0,2831.0,2899.0,3139.0,3031.0,0.818298,-0.003967,-0.574768,0.003357,1.0,0.0,-1.0,7797.0,-117.0,1049.0,91.0,-32.0,-1730.0,1658.0,-35.0,-500.0,0.940637,-0.010352,0.339249,15498.0,-154.0,2108.0,29.0,11.0,-11.0
2892.0,2833.0,2887.0,3123.0,3039.0,0.817444,-0.003662,-0.575989,0.003479,1.0,0.0,-1.0,7815.0,-81.0,1089.0,100.0,0.0,-1667.0,1603.0,-2.0,-466.0,0.941651,-0.009995,0.33645,15840.0,38.0,2362.0,24.0,3.0,-1.0
2879.0,2827.0,2903.0,3139.0,3031.0,0.817017,-0.003601,-0.576538,0.003479,0.0,0.0,0.0,7824.0,-47.0,1104.0,106.0,34.0,-1641.0,1581.0,31.0,-450.0,0.942057,-0.009896,0.335119,15646.0,70.0,2312.0,4.0,19.0,3.0
2887.0,2832.0,2891.0,3121.0,3043.0,0.816223,-0.003723,-0.577637,0.003479,-1.0,-1.0,0.0,7803.0,-88.0,1124.0,78.0,-5.0,-1600.0,1534.0,-7.0,-458.0,0.942935,-0.010097,0.332554,15610.0,-394.0,2290.0,-6.0,-2.0,9.0
2879.0,2827.0,2896.0,3147.0,3023.0,0.815857,-0.003723,-0.578247,0.00354,0.0,-1.0,0.0,7820.0,-104.0,1134.0,90.0,-20.0,-1579.0,1519.0,-22.0,-437.0,0.943507,-0.010169,0.331252,15760.0,-252.0,2290.0,10.0,-1.0,3.0
2891.0,2831.0,2887.0,3139.0,3047.0,0.815002,-0.003784,-0.579468,0.003479,-1.0,-1.0,0.0,7817.0,-78.0,1159.0,79.0,5.0,-1531.0,1472.0,2.0,-428.0,0.944509,-0.0102,0.328444,15614.0,-200.0,2386.0,-19.0,-8.0,2.0
2875.0,2813.0,2874.0,3147.0,3055.0,0.814514,-0.003906,-0.580078,0.003418,-2.0,-1.0,0.0,7803.0,-110.0,1150.0,62.0,-25.0,-1528.0,1464.0,-28.0,-440.0,0.944937,-0.010329,0.326939,15560.0,-488.0,2204.0,-24.0,-20.0,5.0
2883.0,2823.0,2896.0,3130.0,3025.0,0.813599,-0.004028,-0.581421,0.00354,0.0,-1.0,-1.0,7798.0,-152.0,1129.0,47.0,-64.0,-1524.0,1457.0,-67.0,-448.0,0.946058,-0.010671,0.323889,15504.0,-236.0,2184.0,12.0,-21.0,-3.0
2869.0,2819.0,2877.0,3135.0,3039.0,0.813049,-0.003967,-0.582092,0.00354,0.0,-2.0,-1.0,7791.0,-147.0,1112.0,37.0,-60.0,-1527.0,1457.0,-63.0,-456.0,0.946511,-0.010572,0.322215,15612.0,-280.0,2138.0,10.0,-32.0,-4.0
2899.0,2831.0,2903.0,3119.0,3047.0,0.812134,-0.003906,-0.583435,0.00354,0.0,0.0,-1.0,7842.0,-110.0,1104.0,79.0,-24.0,-1510.0,1456.0,-26.0,-406.0,0.947627,-0.010476,0.319162,15806.0,4.0,2216.0,9.0,2.0,-8.0
2887.0,2807.0,2885.0,3153.0,3025.0,0.811768,-0.003845,-0.583923,0.003479,-1.0,0.0,-1.0,7815.0,-83.0,1086.0,49.0,1.0,-1519.0,1455.0,-1.0,-436.0,0.947993,-0.010306,0.317997,15430.0,-34.0,2062.0,-7.0,15.0,-13.0
2882.0,2815.0,2851.0,3135.0,3029.0,0.810974,-0.003906,-0.585022,0.003357,-1.0,0.0,-1.0,7787.0,-81.0,1058.0,14.0,3.0,-1525.0,1451.0,0.0,-467.0,0.948849,-0.010263,0.315424,15512.0,-154.0,2026.0,-9.0,2.0,-6.0
2893.0,2833.0,2897.0,3135.0,3031.0,0.810547,-0.003845,-0.585632,0.003296,0.0,-1.0,-1.0,7768.0,-75.0,1050.0,-8.0,7.0,-1522.0,1442.0,3.0,-485.0,0.94934,-0.010094,0.314017,15422.0,-124.0,2040.0,1.0,-3.0,-3.0
2881.0,2819.0,2906.0,3139.0,3024.0,0.809753,-0.003784,-0.586792,0.003357,0.0,-1.0,0.0,7766.0,-48.0,1066.0,-18.0,34.0,-1484.0,1404.0,30.0,-479.0,0.950288,-0.010068,0.311373,15492.0,-24.0,2190.0,7.0,-9.0,9.0
2883.0,2823.0,2877.0,3143.0,2999.0,0.809326,-0.003784,-0.587341,0.003418,0.0,-1.0,0.0,7764.0,-51.0,1075.0,-23.0,32.0,-1464.0,1384.0,28.0,-476.0,0.950675,-0.01014,0.310036,15508.0,-134.0,2200.0,6.0,-11.0,14.0
2867.0,2823.0,2885.0,3127.0,3055.0,0.808472,-0.003845,-0.588501,0.003601,0.0,-1.0,0.0,7805.0,-69.0,1082.0,9.0,16.0,-1435.0,1368.0,13.0,-432.0,0.951545,-0.010456,0.307291,15792.0,-170.0,2152.0,13.0,-5.0,16.0
2895.0,2839.0,2895.0,3143.0,3035.0,0.808105,-0.003845,-0.58905,0.003723,0.0,0.0,0.0,7822.0,-76.0,1078.0,23.0,10.0,-1429.0,1367.0,7.0,-415.0,0.952001,-0.010601,0.306053,15746.0,-166.0,2164.0,9.0,6.0,10.0
2893.0,2815.0,2871.0,3135.0,3043.0,0.807739,-0.003845,-0.589539,0.003723,0.0,0.0,0.0,7834.0,-78.0,1077.0,32.0,8.0,-1420.0,1362.0,5.0,-402.0,0.952358,-0.010602,0.304886,15702.0,-156.0,2178.0,4.0,13.0,2.0
2887.0,2815.0,2899.0,3142.0,3025.0,0.807129,-0.003845,-0.590393,0.003662,-1.0,1.0,-1.0,7839.0,-112.0,1073.0,31.0,-25.0,-1408.0,1351.0,-27.0,-396.0,0.953018,-0.010531,0.302892,15604.0,-360.0,2096.0,-4.0,29.0,-10.0
2870.0,2835.0,2895.0,3141.0,3035.0,0.806824,-0.003845,-0.590759,0.003662,0.0,1.0,-1.0,7817.0,-136.0,1067.0,7.0,-49.0,-1406.0,1342.0,-51.0,-417.0,0.953249,-0.010532,0.301967,15460.0,-426.0,2074.0,8.0,27.0,-13.0
2871.0,2835.0,2896.0,3147.0,3054.0,0.806152,-0.003662,-0.591675,0.003723,1.0,0.0,-1.0,7783.0,-158.0,1072.0,-31.0,-73.0,-1383.0,1310.0,-75.0,-443.0,0.953933,-0.01031,0.299803,15530.0,-418.0,2194.0,24.0,7.0,-19.0
2893.0,2815.0,2894.0,3115.0,2991.0,0.805786,-0.003479,-0.592163,0.003784,1.0,0.0,-2.0,7785.0,-175.0,1084.0,-32.0,-92.0,-1362.0,1290.0,-93.0,-436.0,0.954287,-0.010088,0.298636,15638.0,-396.0,2274.0,39.0,3.0,-23.0
2887.0,2800.0,2893.0,3119.0,3063.0,0.805176,-0.002991,-0.593018,0.003845,2.0,1.0,-2.0,7824.0,-166.0,1099.0,1.0,-89.0,-1331.0,1271.0,-89.0,-393.0,0.954944,-0.009377,0.296644,15752.0,-392.0,2242.0,51.0,25.0,-33.0
2887.0,2823.0,2893.0,3135.0,3025.0,0.804932,-0.002625,-0.593323,0.003906,2.0,1.0,-2.0,7799.0,-171.0,1105.0,-25.0,-98.0,-1318.0,1251.0,-97.0,-412.0,0.955148,-0.00886,0.295891,15362.0,-346.0,2210.0,68.0,33.0,-36.0
2885.0,2819.0,2915.0,3120.0,3039.0,0.804321,-0.001831,-0.594177,0.004028,2.0,0.0,-2.0,7771.0,-104.0,1134.0,-58.0,-40.0,-1273.0,1199.0,-38.0,-429.0,0.955804,-0.007733,0.293899,15674.0,42.0,2396.0,62.0,4.0,-39.0
2879.0,2832.0,2875.0,3131.0,3051.0,0.804016,-0.001465,-0.594543,0.004028,1.0,0.0,-2.0,7790.0,-48.0,1147.0,-41.0,10.0,-1253.0,1185.0,12.0,-406.0,0.956033,-0.007146,0.292974,15662.0,274.0,2384.0,36.0,12.0,-29.0
2891.0,2795.0,2885.0,3135.0,3041.0,0.803345,-0.001343,-0.595459,0.003723,-2.0,-2.0,-1.0,7756.0,-10.0,1141.0,-81.0,43.0,-1241.0,1163.0,45.0,-438.0,0.956708,-0.006591,0.290803,15536.0,-116.0,2274.0,-28.0,-23.0,-4.0
2889.0,2819.0,2917.0,3143.0,3038.0,0.802917,-0.001465,-0.596069,0.003662,-1.0,-2.0,0.0,7788.0,-32.0,1144.0,-53.0,23.0,-1226.0,1158.0,25.0,-405.0,0.957178,-0.006718,0.289389,15788.0,-176.0,2260.0,-18.0,-24.0,0.0
2885.0,2830.0,2883.0,3139.0,3055.0,0.802185,-0.001465,-0.597046,0.003601,-1.0,-1.0,-1.0,7805.0,-38.0,1124.0,-41.0,16.0,-1227.0,1163.0,18.0,-391.0,0.957872,-0.00665,0.287048,15656.0,-42.0,2172.0,-2.0,-5.0,-6.0
2895.0,2822.0,2899.0,3149.0,3046.0,0.801819,-0.001465,-0.597534,0.00354,-1.0,-1.0,-1.0,7823.0,-32.0,1110.0,-26.0,21.0,-1231.0,1172.0,23.0,-376.0,0.958218,-0.00658,0.285877,15756.0,-16.0,2134.0,-3.0,0.0,-2.0
2893.0,2821.0,2903.0,3127.0,3023.0,0.801208,-0.001526,-0.598328,0.003479,-1.0,0.0,-1.0,7822.0,-36.0,1075.0,-32.0,18.0,-1251.0,1190.0,19.0,-386.0,0.95876,-0.006608,0.283949,15560.0,-98.0,2032.0,-7.0,20.0,-5.0
2882.0,2827.0,2897.0,3139.0,3043.0,0.800964,-0.001526,-0.598694,0.003418,-1.0,0.0,-1.0,7804.0,-39.0,1060.0,-52.0,14.0,-1259.0,1192.0,15.0,-406.0,0.959054,-0.006537,0.283119,15474.0,-74.0,2068.0,-8.0,16.0,-5.0
2883.0,2821.0,2890.0,3135.0,3039.0,0.800293,-0.001648,-0.599609,0.003357,-1.0,-1.0,0.0,7780.0,-47.0,1061.0,-81.0,7.0,-1240.0,1167.0,8.0,-426.0,0.959715,-0.006663,0.280946,15646.0,-224.0,2188.0,-21.0,-12.0,7.0
2877.0,2829.0,2901.0,3141.0,3047.0,0.799927,-0.00177,-0.600098,0.003357,-1.0,-1.0,0.0,7799.0,-65.0,1076.0,-65.0,-8.0,-1215.0,1148.0,-7.0,-402.0,0.960056,-0.006861,0.279774,15688.0,-238.0,2224.0,-16.0,-7.0,9.0
2875.0,2827.0,2883.0,3135.0,3042.0,0.799316,-0.001953,-0.600952,0.003357,-1.0,0.0,0.0,7810.0,-67.0,1120.0,-59.0,-8.0,-1155.0,1093.0,-7.0,-377.0,0.960689,-0.007157,0.277771,15668.0,-98.0,2420.0,-14.0,3.0,7.0
2886.0,2819.0,2899.0,3135.0,3037.0,0.799011,-0.002075,-0.601257,0.003296,-1.0,0.0,0.0,7808.0,-65.0,1135.0,-62.0,-5.0,-1133.0,1071.0,-4.0,-373.0,0.960809,-0.00728,0.276915,15574.0,-148.0,2292.0,-20.0,10.0,8.0
2879.0,2825.0,2883.0,3133.0,3031.0,0.798401,-0.002258,-0.602051,0.003296,-1.0,-1.0,0.0,7779.0,-91.0,1129.0,-96.0,-28.0,-1123.0,1053.0,-28.0,-400.0,0.961341,-0.007575,0.274985,15544.0,-268.0,2260.0,-8.0,-8.0,9.0
2879.0,2843.0,2901.0,3131.0,3026.0,0.798096,-0.002319,-0.602539,0.003357,0.0,-1.0,0.0,7781.0,-105.0,1122.0,-97.0,-41.0,-1121.0,1051.0,-41.0,-400.0,0.961752,-0.007747,0.273909,15550.0,-260.0,2184.0,6.0,-11.0,5.0
2886.0,2821.0,2887.0,3119.0,3039.0,0.797424,-0.002258,-0.603455,0.003418,0.0,-1.0,-1.0,7794.0,-83.0,1108.0,-90.0,-19.0,-1118.0,1051.0,-19.0,-390.0,0.962403,-0.007727,0.271735,15614.0,-70.0,2176.0,6.0,-10.0,-2.0
2879.0,2827.0,2859.0,3133.0,3043.0,0.797058,-0.002258,-0.603882,0.003418,0.0,-1.0,-1.0,7789.0,-91.0,1103.0,-96.0,-27.0,-1114.0,1046.0,-27.0,-393.0,0.962642,-0.007728,0.270635,15616.0,-236.0,2180.0,3.0,-12.0,-1.0
2895.0,2832.0,2897.0,3135.0,3039.0,0.796387,-0.002136,-0.604736,0.003479,0.0,-1.0,-1.0,7803.0,-74.0,1105.0,-87.0,-11.0,-1094.0,1030.0,-10.0,-377.0,0.963193,-0.00761,0.268533,15558.0,-30.0,2262.0,10.0,-3.0,-9.0
2894.0,2811.0,2885.0,3159.0,2991.0,0.796082,-0.002136,-0.605164,0.003418,-1.0,-1.0,-1.0,7812.0,-59.0,1113.0,-81.0,2.0,-1078.0,1017.0,2.0,-366.0,0.963504,-0.007538,0.26753,15680.0,22.0,2210.0,-1.0,-2.0,-6.0
2871.0,2815.0,2879.0,3143.0,3035.0,0.795593,-0.002197,-0.605835,0.003296,-1.0,1.0,-1.0,7837.0,-45.0,1100.0,-59.0,16.0,-1078.0,1023.0,16.0,-343.0,0.963982,-0.00749,0.265939,15584.0,-124.0,2092.0,-22.0,27.0,-3.0
2887.0,2829.0,2902.0,3143.0,3039.0,0.795349,-0.002258,-0.60614,0.003235,-1.0,0.0,-1.0,7801.0,-63.0,1093.0,-97.0,-1.0,-1079.0,1014.0,-1.0,-379.0,0.964171,-0.007514,0.26518,15398.0,-222.0,2204.0,-19.0,19.0,-1.0
2887.0,2832.0,2896.0,3150.0,3039.0,0.794861,-0.002441,-0.606812,0.003235,-1.0,0.0,0.0,7760.0,-87.0,1094.0,-142.0,-23.0,-1065.0,990.0,-24.0,-417.0,0.964646,-0.007807,0.263588,15336.0,-212.0,2164.0,0.0,4.0,9.0
2891.0,2823.0,2879.0,3135.0,3043.0,0.794556,-0.002441,-0.607178,0.003296,0.0,-1.0,0.0,7734.0,-83.0,1095.0,-170.0,-18.0,-1056.0,974.0,-19.0,-441.0,0.964857,-0.007882,0.262659,15328.0,-124.0,2214.0,7.0,-14.0,10.0
2883.0,2823.0,2881.0,3127.0,3023.0,0.793762,-0.002441,-0.608215,0.003479,0.0,-2.0,0.0,7777.0,-90.0,1106.0,-132.0,-23.0,-1025.0,955.0,-23.0,-393.0,0.96554,-0.008108,0.260139,15834.0,-178.0,2258.0,19.0,-32.0,5.0
2891.0,2832.0,2899.0,3135.0,3037.0,0.793457,-0.002319,-0.608582,0.00354,1.0,-1.0,-1.0,7855.0,-76.0,1125.0,-56.0,-10.0,-998.0,949.0,-9.0,-312.0,0.96575,-0.007989,0.25921,16166.0,-28.0,2320.0,27.0,0.0,-4.0
2891.0,2823.0,2899.0,3139.0,3051.0,0.793091,-0.002075,-0.60907,0.003479,0.0,1.0,-1.0,7831.0,-42.0,1114.0,-83.0,19.0,-999.0,943.0,19.0,-338.0,0.966081,-0.00753,0.258035,15430.0,-28.0,2182.0,5.0,34.0,-9.0
2885.0,2815.0,2877.0,3134.0,3025.0,0.792908,-0.002075,-0.609314,0.003479,-1.0,0.0,-1.0,7805.0,-37.0,1110.0,-110.0,24.0,-999.0,936.0,24.0,-363.0,0.966245,-0.00753,0.257447,15526.0,-88.0,2216.0,-12.0,15.0,-2.0
2895.0,2819.0,2881.0,3131.0,3037.0,0.792419,-0.002197,-0.609985,0.003357,-1.0,-1.0,0.0,7772.0,-39.0,1109.0,-147.0,23.0,-986.0,915.0,22.0,-394.0,0.966714,-0.007578,0.255853,15378.0,-80.0,2264.0,-21.0,-3.0,2.0
2885.0,2825.0,2893.0,3143.0,3039.0,0.792114,-0.002319,-0.610352,0.003296,-1.0,-1.0,0.0,7775.0,-56.0,1117.0,-146.0,7.0,-971.0,901.0,6.0,-388.0,0.966921,-0.007698,0.254921,15602.0,-236.0,2234.0,-22.0,-20.0,1.0
2883.0,2815.0,2895.0,3143.0,3039.0,0.791504,-0.002319,-0.611145,0.003296,0.0,0.0,-1.0,7817.0,-102.0,1113.0,-108.0,-38.0,-959.0,900.0,-38.0,-346.0,0.967432,-0.0077,0.252986,15646.0,-274.0,2150.0,20.0,3.0,-11.0
2887.0,2818.0,2889.0,3131.0,3039.0,0.79126,-0.002197,-0.61145,0.003357,1.0,0.0,-1.0,7816.0,-94.0,1112.0,-110.0,-31.0,-954.0,895.0,-31.0,-346.0,0.967617,-0.007582,0.252227,15674.0,-114.0,2292.0,35.0,1.0,-13.0
2879.0,2815.0,2897.0,3135.0,3047.0,0.790771,-0.001709,-0.612061,0.003418,1.0,0.0,-1.0,7820.0,-84.0,1091.0,-109.0,-27.0,-962.0,903.0,-26.0,-346.0,0.967988,-0.006887,0.25071,15570.0,-236.0,2010.0,44.0,18.0,-17.0
2887.0,2827.0,2903.0,3135.0,3035.0,0.790527,-0.001465,-0.612366,0.003601,2.0,0.0,-1.0,7798.0,-104.0,1080.0,-133.0,-48.0,-967.0,903.0,-46.0,-370.0,0.968173,-0.006726,0.249953,15450.0,-378.0,2132.0,62.0,14.0,-15.0
2890.0,2825.0,2895.0,3139.0,3039.0,0.7901,-0.000549,-0.612976,0.004272,6.0,-1.0,-1.0,7737.0,-165.0,1080.0,-197.0,-114.0,-956.0,877.0,-111.0,-427.0,0.96862,-0.006106,0.248536,15268.0,-362.0,2150.0,144.0,-8.0,-21.0
2887.0,2823.0,2893.0,3131.0,3035.0,0.789734,0.000122,-0.613403,0.0047,6.0,-2.0,-1.0,7726.0,-129.0,1103.0,-210.0,-83.0,-924.0,843.0,-79.0,-431.0,0.968852,-0.005573,0.247438,15398.0,-28.0,2342.0,157.0,-28.0,-18.0
2886.0,2823.0,2893.0,3125.0,3039.0,0.789001,0.001343,-0.614319,0.005432,4.0,-3.0,-1.0,7724.0,-16.0,1154.0,-217.0,21.0,-854.0,774.0,27.0,-419.0,0.969412,-0.004555,0.245163,15460.0,316.0,2436.0,98.0,-59.0,-4.0
2887.0,2819.0,2897.0,3120.0,3037.0,0.788574,0.001648,-0.614929,0.005554,2.0,-4.0,0.0,7769.0,37.0,1178.0,-176.0,71.0,-818.0,749.0,77.0,-370.0,0.969853,-0.004232,0.243739,15892.0,382.0,2504.0,46.0,-71.0,7.0
2887.0,2827.0,2891.0,3139.0,3039.0,0.787781,0.001587,-0.615906,0.005615,-1.0,-2.0,1.0,7859.0,2.0,1159.0,-90.0,38.0,-817.0,770.0,45.0,-284.0,0.970415,-0.004417,0.241288,15858.0,-404.0,2162.0,-21.0,-32.0,32.0
2879.0,2818.0,2891.0,3135.0,3043.0,0.787476,0.001343,-0.616333,0.005798,-1.0,-2.0,2.0,7852.0,16.0,1116.0,-100.0,57.0,-852.0,802.0,64.0,-302.0,0.97071,-0.005033,0.240283,15686.0,176.0,2028.0,-14.0,-26.0,48.0
2887.0,2818.0,2889.0,3135.0,3031.0,0.786865,0.00116,-0.617065,0.005615,-1.0,0.0,-1.0,7877.0,-25.0,1042.0,-78.0,16.0,-911.0,865.0,23.0,-293.0,0.971108,-0.005105,0.238417,15736.0,-314.0,1824.0,-18.0,22.0,-14.0
2887.0,2821.0,2894.0,3131.0,3031.0,0.786743,0.001099,-0.617249,0.005554,-1.0,1.0,-1.0,7838.0,-27.0,1017.0,-118.0,15.0,-932.0,876.0,22.0,-336.0,0.971244,-0.005128,0.237999,15406.0,2.0,1918.0,-10.0,37.0,-8.0
2893.0,2823.0,2894.0,3135.0,3031.0,0.786377,0.000977,-0.617737,0.005371,-2.0,0.0,0.0,7765.0,-18.0,1000.0,-194.0,23.0,-940.0,867.0,29.0,-411.0,0.971558,-0.0051,0.236818,15416.0,-58.0,1994.0,-24.0,17.0,7.0
2881.0,2815.0,2891.0,3137.0,3025.0,0.786133,0.000854,-0.617981,0.005371,-2.0,0.0,0.0,7759.0,-21.0,1009.0,-200.0,22.0,-925.0,851.0,27.0,-412.0,0.971639,-0.005295,0.236132,15552.0,-38.0,2150.0,-25.0,9.0,13.0
2887.0,2823.0,2887.0,3135.0,3031.0,0.785828,0.000549,-0.618408,0.005249,-2.0,0.0,0.0,7790.0,-7.0,1077.0,-172.0,39.0,-849.0,784.0,43.0,-367.0,0.97193,-0.005629,0.235124,15758.0,30.0,2390.0,-30.0,21.0,11.0
2894.0,2830.0,2896.0,3133.0,3035.0,0.785706,0.000427,-0.61853,0.005127,-2.0,1.0,0.0,7824.0,2.0,1110.0,-138.0,48.0,-813.0,757.0,52.0,-325.0,0.97197,-0.005671,0.23478,15846.0,56.0,2398.0,-36.0,38.0,8.0
2885.0,2821.0,2887.0,3139.0,3039.0,0.785645,0.000122,-0.618652,0.004944,-2.0,1.0,0.0,7788.0,-25.0,1147.0,-175.0,23.0,-774.0,711.0,26.0,-351.0,0.972083,-0.005925,0.234531,15338.0,-142.0,2360.0,-32.0,40.0,3.0
2883.0,2826.0,2895.0,3131.0,3039.0,0.785522,0.0,-0.618835,0.004883,-2.0,0.0,0.0,7756.0,-32.0,1155.0,-208.0,17.0,-762.0,692.0,20.0,-380.0,0.972218,-0.006043,0.234112,15380.0,-74.0,2388.0,-25.0,13.0,2.0
2881.0,2829.0,2896.0,3131.0,3039.0,0.785095,-0.000183,-0.619324,0.0047,-2.0,-1.0,0.0,7777.0,-41.0,1166.0,-189.0,9.0,-741.0,676.0,11.0,-356.0,0.972454,-0.006109,0.232835,15580.0,-188.0,2282.0,-24.0,-6.0,3.0
2890.0,2823.0,2895.0,3142.0,3037.0,0.784851,-0.000305,-0.619629,0.0047,-1.0,-1.0,0.0,7798.0,-57.0,1178.0,-169.0,-5.0,-723.0,664.0,-2.0,-332.0,0.97263,-0.006303,0.232073,15746.0,-218.0,2446.0,-16.0,-9.0,3.0
2883.0,2831.0,2895.0,3135.0,3031.0,0.784485,-0.000366,-0.620178,0.004639,-1.0,-1.0,-1.0,7811.0,-68.0,1182.0,-160.0,-16.0,-708.0,652.0,-13.0,-319.0,0.973037,-0.006328,0.230817,15736.0,-180.0,2404.0,-5.0,-11.0,-4.0
2883.0,2827.0,2886.0,3153.0,3031.0,0.784241,-0.000366,-0.620422,0.004578,-1.0,-1.0,-1.0,7829.0,-68.0,1180.0,-142.0,-16.0,-705.0,653.0,-13.0,-300.0,0.973118,-0.006255,0.23013,15754.0,-144.0,2332.0,-5.0,-4.0,-11.0
2883.0,2830.0,2893.0,3127.0,3039.0,0.783875,-0.000427,-0.620911,0.004395,-1.0,0.0,-1.0,7855.0,-56.0,1155.0,-119.0,-5.0,-720.0,673.0,-2.0,-280.0,0.973428,-0.006127,0.228948,15724.0,-68.0,2246.0,-21.0,14.0,-16.0
2885.0,2832.0,2895.0,3138.0,3039.0,0.783691,-0.000427,-0.621094,0.004211,-2.0,0.0,-1.0,7822.0,-61.0,1129.0,-152.0,-12.0,-742.0,687.0,-9.0,-317.0,0.973488,-0.005901,0.228432,15408.0,-186.0,2138.0,-25.0,10.0,-17.0
2887.0,2823.0,2896.0,3143.0,3039.0,0.783264,-0.000549,-0.621704,0.003967,-2.0,-1.0,-1.0,7772.0,-45.0,1103.0,-206.0,2.0,-756.0,689.0,3.0,-372.0,0.973913,-0.005793,0.227002,15408.0,-36.0,2132.0,-24.0,-13.0,-7.0
2887.0,2822.0,2886.0,3127.0,3031.0,0.782959,-0.00061,-0.62207,0.003906,-2.0,-2.0,0.0,7756.0,-46.0,1098.0,-223.0,1.0,-753.0,683.0,2.0,-387.0,0.974106,-0.005816,0.226068,15428.0,-102.0,2192.0,-25.0,-26.0,0.0
2883.0,2821.0,2887.0,3121.0,3030.0,0.78241,-0.000793,-0.622742,0.003784,-1.0,-1.0,-1.0,7835.0,-45.0,1113.0,-147.0,3.0,-725.0,673.0,4.0,-305.0,0.974472,-0.005955,0.224371,15984.0,-42.0,2298.0,-8.0,-7.0,-1.0
2891.0,2827.0,2893.0,3135.0,3031.0,0.782227,-0.000793,-0.622986,0.003784,-1.0,0.0,-1.0,7822.0,-40.0,1105.0,-162.0,8.0,-728.0,673.0,9.0,-320.0,0.974626,-0.005956,0.223781,15466.0,-58.0,2162.0,0.0,14.0,-3.0
2887.0,2827.0,2895.0,3143.0,3043.0,0.78186,-0.000671,-0.623413,0.003723,0.0,0.0,-1.0,7837.0,-5.0,1113.0,-148.0,41.0,-711.0,659.0,42.0,-302.0,0.974839,-0.005692,0.222675,15840.0,180.0,2302.0,1.0,6.0,-4.0
2879.0,2827.0,2895.0,3135.0,3039.0,0.781738,-0.000671,-0.623596,0.003662,-1.0,0.0,0.0,7822.0,21.0,1101.0,-164.0,67.0,-719.0,664.0,68.0,-320.0,0.974973,-0.005617,0.222255,15474.0,168.0,2096.0,-11.0,15.0,3.0
2883.0,2822.0,2881.0,3133.0,3038.0,0.781311,-0.000916,-0.624146,0.00354,-2.0,-1.0,0.0,7775.0,19.0,1088.0,-214.0,66.0,-721.0,655.0,66.0,-368.0,0.975297,-0.00585,0.220901,15462.0,-8.0,2140.0,-30.0,-13.0,20.0
2891.0,2831.0,2896.0,3141.0,3047.0,0.781006,-0.00116,-0.624451,0.00354,-2.0,-2.0,1.0,7770.0,22.0,1087.0,-220.0,73.0,-715.0,648.0,73.0,-372.0,0.975391,-0.006233,0.220043,15554.0,4.0,2158.0,-38.0,-24.0,24.0
2883.0,2831.0,2897.0,3139.0,3055.0,0.780457,-0.001648,-0.625183,0.003479,-2.0,-1.0,1.0,7842.0,-24.0,1092.0,-152.0,32.0,-696.0,645.0,32.0,-300.0,0.975845,-0.006922,0.218268,16012.0,-200.0,2228.0,-33.0,-8.0,26.0
2882.0,2827.0,2895.0,3135.0,3039.0,0.780334,-0.001831,-0.625366,0.00354,-1.0,0.0,0.0,7847.0,-52.0,1090.0,-148.0,7.0,-694.0,645.0,6.0,-295.0,0.975977,-0.007285,0.217848,15630.0,-290.0,2134.0,-19.0,21.0,21.0
2885.0,2827.0,2891.0,3143.0,3035.0,0.78009,-0.002014,-0.625671,0.003662,0.0,0.0,0.0,7808.0,-82.0,1089.0,-188.0,-18.0,-689.0,631.0,-18.0,-332.0,0.976146,-0.007725,0.217086,15576.0,-266.0,2180.0,3.0,12.0,15.0
2889.0,2823.0,2891.0,3141.0,3043.0,0.779907,-0.002075,-0.625854,0.003784,0.0,0.0,0.0,7818.0,-107.0,1091.0,-179.0,-41.0,-683.0,628.0,-41.0,-322.0,0.976201,-0.007974,0.216571,15746.0,-352.0,2196.0,14.0,10.0,9.0
2889.0,2831.0,2883.0,3139.0,3045.0,0.779663,-0.001953,-0.62616,0.003967,0.0,0.0,0.0,7783.0,-79.0,1104.0,-215.0,-13.0,-663.0,601.0,-13.0,-352.0,0.976372,-0.008014,0.215811,15388.0,-56.0,2258.0,10.0,18.0,2.0
2883.0,2811.0,2898.0,3185.0,3039.0,0.779541,-0.001953,-0.626343,0.003906,-1.0,-1.0,0.0,7766.0,-73.0,1115.0,-233.0,-7.0,-649.0,583.0,-7.0,-367.0,0.976505,-0.007938,0.21539,15466.0,-110.0,2330.0,-6.0,0.0,0.0
2883.0,2827.0,2895.0,3131.0,3039.0,0.779175,-0.002075,-0.62677,0.003845,-1.0,-1.0,-1.0,7779.0,-87.0,1118.0,-222.0,-21.0,-637.0,574.0,-21.0,-353.0,0.976711,-0.008054,0.214283,15590.0,-306.0,2168.0,-13.0,-1.0,-3.0
2883.0,2827.0,2891.0,3142.0,3043.0,0.778992,-0.002075,-0.627014,0.003845,0.0,-1.0,-1.0,7786.0,-98.0,1109.0,-216.0,-32.0,-641.0,580.0,-32.0,-347.0,0.976862,-0.008055,0.213692,15634.0,-230.0,2210.0,2.0,0.0,-7.0
2875.0,2825.0,2895.0,3141.0,3037.0,0.778687,-0.001953,-0.62738,0.003784,0.0,0.0,-1.0,7815.0,-65.0,1113.0,-188.0,-1.0,-629.0,574.0,-1.0,-317.0,0.97705,-0.00779,0.212757,15666.0,-38.0,2178.0,5.0,19.0,-11.0
2887.0,2829.0,2896.0,3135.0,3043.0,0.778625,-0.001892,-0.627502,0.003784,0.0,0.0,-1.0,7790.0,-53.0,1106.0,-214.0,10.0,-634.0,574.0,9.0,-343.0,0.977164,-0.007696,0.212509,15374.0,12.0,2210.0,9.0,20.0,-5.0
2883.0,2827.0,2902.0,3139.0,3071.0,0.778442,-0.001831,-0.627686,0.003723,0.0,0.0,-1.0,7767.0,-28.0,1115.0,-238.0,33.0,-621.0,556.0,32.0,-364.0,0.97722,-0.007525,0.211994,15464.0,80.0,2306.0,4.0,3.0,-2.0
2863.0,2832.0,2896.0,3147.0,3045.0,0.778137,-0.001831,-0.628113,0.003723,0.0,-1.0,0.0,7776.0,-20.0,1118.0,-231.0,41.0,-610.0,547.0,40.0,-354.0,0.977502,-0.007527,0.210982,15550.0,-28.0,2232.0,1.0,-2.0,12.0
2885.0,2828.0,2896.0,3135.0,3035.0,0.777954,-0.001892,-0.628296,0.003784,-1.0,-1.0,0.0,7785.0,-5.0,1121.0,-223.0,58.0,-603.0,542.0,57.0,-345.0,0.977556,-0.007699,0.210468,15642.0,100.0,2280.0,-4.0,-8.0,14.0
2882.0,2835.0,2896.0,3134.0,3037.0,0.777649,-0.002014,-0.628723,0.003784,-1.0,0.0,0.0,7801.0,-23.0,1113.0,-209.0,41.0,-602.0,544.0,40.0,-330.0,0.977836,-0.007891,0.209455,15550.0,-178.0,2140.0,-14.0,9.0,12.0
2879.0,2833.0,2898.0,3143.0,3039.0,0.777466,-0.002075,-0.628906,0.003784,-1.0,0.0,0.0,7794.0,-54.0,1100.0,-216.0,11.0,-611.0,552.0,10.0,-338.0,0.97789,-0.007987,0.20894,15582.0,-304.0,2110.0,-1.0,4.0,10.0
2885.0,2831.0,2896.0,3141.0,3027.0,0.777161,-0.002014,-0.629272,0.003967,0.0,0.0,0.0,7836.0,-70.0,1081.0,-176.0,-3.0,-622.0,571.0,-3.0,-301.0,0.978076,-0.008124,0.208007,15746.0,-56.0,2098.0,19.0,21.0,2.0
2887.0,2826.0,2895.0,3135.0,3029.0,0.7771,-0.002014,-0.629395,0.004028,0.0,1.0,0.0,7812.0,-55.0,1080.0,-201.0,12.0,-621.0,565.0,11.0,-325.0,0.978188,-0.008201,0.207759,15446.0,-20.0,2156.0,8.0,24.0,2.0
2891.0,2826.0,2896.0,3143.0,3039.0,0.776978,-0.001953,-0.629517,0.004028,-1.0,0.0,0.0,7796.0,-52.0,1084.0,-217.0,14.0,-615.0,556.0,13.0,-339.0,0.978225,-0.008107,0.207415,15590.0,-110.0,2262.0,-4.0,9.0,2.0
2881.0,2827.0,2887.0,3143.0,3031.0,0.776733,-0.002075,-0.629822,0.004028,-1.0,0.0,0.0,7813.0,-65.0,1114.0,-201.0,2.0,-578.0,523.0,1.0,-316.0,0.978391,-0.008298,0.206651,15612.0,-170.0,2350.0,0.0,11.0,4.0
2885.0,2832.0,2895.0,3135.0,3031.0,0.776611,-0.002075,-0.629944,0.004028,0.0,0.0,0.0,7801.0,-62.0,1138.0,-214.0,5.0,-552.0,495.0,4.0,-323.0,0.978426,-0.008298,0.206308,15500.0,-48.0,2446.0,8.0,9.0,4.0
2885.0,2823.0,2895.0,3135.0,3031.0,0.776367,-0.002014,-0.630249,0.004028,-1.0,-1.0,0.0,7767.0,-32.0,1171.0,-249.0,35.0,-512.0,449.0,33.0,-349.0,0.978593,-0.008205,0.205544,15432.0,-70.0,2358.0,-11.0,-13.0,7.0
2891.0,2832.0,2896.0,3120.0,3039.0,0.776184,-0.002136,-0.630493,0.004028,-1.0,-1.0,0.0,7775.0,-42.0,1184.0,-242.0,26.0,-494.0,433.0,24.0,-338.0,0.97874,-0.008396,0.204952,15598.0,-130.0,2462.0,-12.0,-20.0,12.0
2879.0,2829.0,2903.0,3143.0,3043.0,0.775757,-0.002258,-0.631042,0.004089,-1.0,-2.0,0.0,7777.0,-66.0,1190.0,-243.0,4.0,-477.0,417.0,2.0,-335.0,0.979053,-0.008665,0.203596,15554.0,-244.0,2444.0,0.0,-28.0,8.0
2887.0,2822.0,2867.0,3131.0,3035.0,0.775513,-0.002258,-0.631348,0.00415,0.0,-2.0,0.0,7768.0,-71.0,1181.0,-253.0,0.0,-480.0,418.0,-1.0,-345.0,0.979218,-0.008743,0.202832,15504.0,-144.0,2356.0,3.0,-38.0,6.0
2883.0,2825.0,2895.0,3127.0,3043.0,-0.631653,0.00415,0.0,-0.000122,0.0,7773.0,-76.0,1171.0,-19862.0,21302.0,1171.0,-19819.0,18033.0,470.0,-7812.0,7298.0,-1e-06,-0.005243,0.398968,15566.0,-204.0,2248.0,19.0,-42.0,-5.0
2879.0,2822.0,2906.0,3127.0,3025.0,0.774658,-0.002075,-0.632385,0.004272,0.0,-3.0,-1.0,7777.0,-78.0,1147.0,-249.0,-7.0,-493.0,433.0,-8.0,-342.0,0.979747,-0.008619,0.200198,15570.0,-138.0,2220.0,20.0,-50.0,-5.0
2889.0,2819.0,2895.0,3139.0,3043.0,0.774048,-0.001892,-0.633118,0.004272,0.0,-2.0,-1.0,7844.0,-71.0,1135.0,-185.0,-2.0,-489.0,442.0,-2.0,-278.0,0.980111,-0.008339,0.198327,15910.0,-116.0,2226.0,9.0,-33.0,-14.0
2887.0,2823.0,2896.0,3133.0,3025.0,0.773865,-0.001831,-0.633362,0.004211,-1.0,-1.0,-1.0,7844.0,-45.0,1109.0,-186.0,21.0,-510.0,463.0,20.0,-283.0,0.980257,-0.008169,0.197734,15668.0,90.0,2044.0,-1.0,-17.0,-9.0
2883.0,2827.0,2883.0,3141.0,3031.0,0.773499,-0.001892,-0.633789,0.003967,-2.0,0.0,-1.0,7859.0,-42.0,1063.0,-172.0,23.0,-547.0,502.0,22.0,-276.0,0.980455,-0.007956,0.196624,15704.0,-172.0,1948.0,-30.0,8.0,-3.0
2886.0,2815.0,2896.0,3139.0,3039.0,0.773315,-0.002075,-0.633972,0.003845,-2.0,0.0,0.0,7823.0,-34.0,1040.0,-209.0,32.0,-566.0,513.0,31.0,-316.0,0.980505,-0.008085,0.196107,15376.0,10.0,1942.0,-33.0,10.0,3.0
2887.0,2823.0,2895.0,3133.0,3031.0,0.772949,-0.00238,-0.634399,0.003662,-2.0,-1.0,0.0,7787.0,-33.0,1036.0,-246.0,35.0,-561.0,502.0,33.0,-350.0,0.9807,-0.008326,0.194996,15672.0,-16.0,2184.0,-36.0,-15.0,15.0
2883.0,2826.0,2893.0,3135.0,3039.0,0.772827,-0.002563,-0.634644,0.003601,-2.0,0.0,0.0,7851.0,-20.0,1038.0,-184.0,49.0,-555.0,508.0,47.0,-288.0,0.980921,-0.008533,0.194496,16122.0,62.0,2032.0,-35.0,4.0,16.0
2883.0,2823.0,2877.0,3147.0,3039.0,0.772705,-0.00293,-0.634766,0.003479,-2.0,1.0,0.0,7854.0,-23.0,1065.0,-181.0,50.0,-525.0,479.0,48.0,-279.0,0.980953,-0.008944,0.194149,15714.0,-92.0,2272.0,-35.0,24.0,17.0
2873.0,2833.0,2895.0,3141.0,3029.0,0.772644,-0.003113,-0.634827,0.003418,-1.0,1.0,0.0,7861.0,-39.0,1083.0,-175.0,35.0,-506.0,462.0,33.0,-270.0,0.980969,-0.00915,0.193976,15746.0,-184.0,2218.0,-21.0,34.0,9.0
2898.0,2815.0,2893.0,3151.0,3031.0,0.772705,-0.003174,-0.634766,0.003357,-1.0,1.0,0.0,7827.0,-46.0,1103.0,-208.0,29.0,-487.0,437.0,26.0,-298.0,0.980952,-0.009167,0.194147,15536.0,2.0,2192.0,-2.0,34.0,3.0
2877.0,2833.0,2895.0,3143.0,3039.0,0.772644,-0.003235,-0.634827,0.003357,-1.0,0.0,0.0,7817.0,-48.0,1129.0,-219.0,27.0,-460.0,408.0,24.0,-304.0,0.980968,-0.009261,0.193975,15588.0,-170.0,2458.0,-16.0,18.0,4.0
2887.0,2827.0,2889.0,3131.0,3055.0,0.7724,-0.003418,-0.635071,0.003357,-1.0,-1.0,0.0,7778.0,-90.0,1145.0,-258.0,-11.0,-438.0,379.0,-13.0,-337.0,0.981034,-0.009544,0.193286,15502.0,-334.0,2310.0,-6.0,-14.0,8.0
2896.0,2818.0,2894.0,3151.0,3023.0,0.772278,-0.003418,-0.635254,0.003418,0.0,-1.0,0.0,7809.0,-108.0,1163.0,-228.0,-29.0,-416.0,364.0,-31.0,-303.0,0.981162,-0.009622,0.192866,15844.0,-258.0,2458.0,11.0,-16.0,2.0
2897.0,2807.0,2890.0,3127.0,3047.0,0.772034,-0.003296,-0.635559,0.003479,0.0,-1.0,-1.0,7803.0,-65.0,1156.0,-235.0,12.0,-417.0,364.0,9.0,-310.0,0.981323,-0.009511,0.192102,15508.0,26.0,2194.0,6.0,0.0,-2.0
2878.0,2819.0,2893.0,3131.0,3047.0,0.771851,-0.003296,-0.635742,0.003418,-1.0,-1.0,0.0,7792.0,-54.0,1148.0,-247.0,23.0,-421.0,365.0,20.0,-323.0,0.981373,-0.009434,0.191586,15536.0,-58.0,2264.0,-7.0,-9.0,1.0
2886.0,2831.0,2893.0,3123.0,3047.0,0.771545,-0.003418,-0.636169,0.003357,-1.0,-1.0,0.0,7794.0,-64.0,1104.0,-247.0,14.0,-457.0,401.0,11.0,-329.0,0.981644,-0.009545,0.19057,15606.0,-216.0,2110.0,-14.0,-9.0,5.0
2901.0,2821.0,2901.0,3155.0,3007.0,0.771423,-0.003479,-0.636353,0.003357,-1.0,-1.0,0.0,7772.0,-70.0,1081.0,-270.0,8.0,-476.0,415.0,4.0,-355.0,0.981771,-0.00964,0.190149,15390.0,-164.0,2018.0,-6.0,-6.0,8.0
2879.0,2835.0,2895.0,3135.0,3031.0,0.771057,-0.00354,-0.636719,0.003479,0.0,0.0,0.0,7784.0,-69.0,1053.0,-259.0,12.0,-496.0,438.0,8.0,-348.0,0.981868,-0.009889,0.189118,15668.0,-138.0,2086.0,9.0,1.0,16.0
2879.0,2823.0,2901.0,3123.0,3039.0,0.770935,-0.00354,-0.636902,0.003601,0.0,0.0,0.0,7772.0,-69.0,1045.0,-272.0,13.0,-500.0,439.0,9.0,-361.0,0.981994,-0.010045,0.188697,15420.0,-120.0,2076.0,16.0,7.0,18.0
2887.0,2832.0,2880.0,3139.0,3029.0,0.770813,-0.003479,-0.637024,0.003723,0.0,-1.0,1.0,7760.0,-63.0,1059.0,-284.0,19.0,-484.0,421.0,15.0,-370.0,0.982027,-0.010107,0.188355,15496.0,-86.0,2224.0,18.0,-5.0,23.0
2883.0,2833.0,2874.0,3149.0,3051.0,0.770508,-0.00354,-0.63739,0.003967,0.0,-1.0,0.0,7776.0,-80.0,1113.0,-270.0,6.0,-422.0,363.0,2.0,-344.0,0.9822,-0.010513,0.187419,15612.0,-270.0,2380.0,12.0,-14.0,22.0
2891.0,2832.0,2893.0,3127.0,3035.0,0.770386,-0.003601,-0.637573,0.00415,0.0,-1.0,0.0,7791.0,-90.0,1138.0,-256.0,-1.0,-393.0,338.0,-3.0,-324.0,0.982325,-0.010841,0.186999,15672.0,-190.0,2418.0,18.0,-21.0,20.0
2871.0,2825.0,2895.0,3120.0,3039.0,0.770081,-0.003601,-0.637939,0.004333,0.0,-2.0,0.0,7819.0,-92.0,1170.0,-229.0,-1.0,-354.0,305.0,-3.0,-290.0,0.982498,-0.011075,0.186063,15686.0,-280.0,2344.0,5.0,-23.0,11.0
2903.0,2815.0,2907.0,3171.0,3051.0,0.769897,-0.003601,-0.638184,0.004395,0.0,-2.0,0.0,7822.0,-105.0,1164.0,-227.0,-13.0,-355.0,306.0,-15.0,-288.0,0.98264,-0.011154,0.18547,15646.0,-264.0,2326.0,6.0,-23.0,5.0
2879.0,2819.0,2899.0,3135.0,3027.0,0.769531,-0.003601,-0.63855,0.004456,0.0,-1.0,-1.0,7841.0,-123.0,1145.0,-209.0,-30.0,-365.0,320.0,-32.0,-272.0,0.982736,-0.011232,0.184439,15702.0,-312.0,2226.0,6.0,-11.0,-5.0
2887.0,2832.0,2897.0,3127.0,3047.0,0.769409,-0.00354,-0.638733,0.004456,0.0,-1.0,-1.0,7833.0,-124.0,1137.0,-218.0,-32.0,-370.0,323.0,-34.0,-281.0,0.982862,-0.011139,0.184018,15620.0,-212.0,2220.0,9.0,-7.0,-4.0
2887.0,2827.0,2900.0,3131.0,3031.0,0.769165,-0.003479,-0.638977,0.004517,0.0,-1.0,-1.0,7795.0,-119.0,1119.0,-257.0,-27.0,-382.0,328.0,-29.0,-322.0,0.982926,-0.011124,0.183331,15358.0,-240.0,2124.0,4.0,-7.0,-3.0
2875.0,2821.0,2890.0,3143.0,3047.0,0.768982,-0.003479,-0.639221,0.004517,0.0,-2.0,-1.0,7786.0,-113.0,1104.0,-267.0,-21.0,-392.0,336.0,-23.0,-333.0,0.983068,-0.011125,0.182738,15594.0,-146.0,2124.0,4.0,-23.0,-8.0
2898.0,2823.0,2895.0,3142.0,3037.0,0.768738,-0.003357,-0.639526,0.004333,-1.0,0.0,-1.0,7832.0,-64.0,1112.0,-222.0,23.0,-378.0,331.0,20.0,-287.0,0.983227,-0.010704,0.181971,15676.0,82.0,2230.0,-10.0,8.0,-8.0
2898.0,2832.0,2887.0,3143.0,3025.0,0.768677,-0.003418,-0.639587,0.004211,-2.0,0.0,-1.0,7803.0,-39.0,1111.0,-251.0,48.0,-378.0,325.0,45.0,-316.0,0.983243,-0.010642,0.181798,15410.0,46.0,2254.0,-24.0,9.0,-3.0
2881.0,2823.0,2903.0,3143.0,3047.0,0.768433,-0.003601,-0.639954,0.004028,-2.0,-1.0,0.0,7800.0,-45.0,1108.0,-256.0,42.0,-374.0,321.0,39.0,-319.0,0.983493,-0.01069,0.180951,15784.0,-156.0,2226.0,-24.0,-12.0,5.0
2897.0,2825.0,2907.0,3175.0,3053.0,0.768311,-0.003662,-0.640015,0.003967,-1.0,0.0,0.0,7817.0,-51.0,1102.0,-239.0,36.0,-378.0,328.0,33.0,-303.0,0.983431,-0.010706,0.180685,15718.0,-138.0,2170.0,-8.0,7.0,3.0
2882.0,2825.0,2895.0,3127.0,3035.0,0.76825,-0.003662,-0.640076,0.003906,-1.0,1.0,-1.0,7832.0,-32.0,1092.0,-224.0,55.0,-386.0,339.0,52.0,-290.0,0.983447,-0.010627,0.180512,15682.0,-16.0,2162.0,-8.0,35.0,-2.0
2879.0,2831.0,2896.0,3151.0,3051.0,0.768311,-0.003662,-0.640076,0.003845,-1.0,1.0,-1.0,7807.0,-38.0,1078.0,-250.0,48.0,-401.0,349.0,45.0,-318.0,0.983526,-0.01055,0.180606,15446.0,-146.0,2106.0,-16.0,35.0,-1.0
2883.0,2830.0,2890.0,3135.0,3037.0,0.76825,-0.003784,-0.640137,0.003784,-1.0,0.0,-1.0,7761.0,-74.0,1077.0,-296.0,13.0,-401.0,341.0,9.0,-363.0,0.983541,-0.010659,0.180432,15378.0,-276.0,2080.0,-7.0,14.0,-3.0
2885.0,2834.0,2891.0,3154.0,3050.0,0.768127,-0.003784,-0.640259,0.003784,0.0,-1.0,0.0,7755.0,-83.0,1101.0,-302.0,4.0,-374.0,313.0,0.0,-364.0,0.983572,-0.010659,0.180088,15504.0,-138.0,2378.0,11.0,-6.0,0.0
2886.0,2818.0,2893.0,3111.0,3039.0,0.767883,-0.003662,-0.640564,0.003845,0.0,-1.0,0.0,7790.0,-61.0,1151.0,-268.0,25.0,-318.0,264.0,21.0,-320.0,0.983729,-0.01055,0.179324,15742.0,-46.0,2446.0,7.0,-17.0,0.0
2883.0,2827.0,2894.0,3137.0,3023.0,0.767761,-0.003662,-0.640686,0.003845,-1.0,-1.0,0.0,7818.0,-50.0,1154.0,-240.0,36.0,-312.0,263.0,33.0,-292.0,0.98376,-0.01055,0.17898,15814.0,-60.0,2278.0,0.0,-14.0,3.0
2875.0,2823.0,2889.0,3135.0,3027.0,0.767639,-0.003601,-0.640869,0.003784,0.0,0.0,-1.0,7843.0,-57.0,1158.0,-216.0,28.0,-304.0,260.0,25.0,-267.0,0.983885,-0.010379,0.178558,15614.0,-138.0,2324.0,3.0,11.0,-5.0
2879.0,2827.0,2903.0,3135.0,3021.0,0.767578,-0.003601,-0.64093,0.003784,0.0,0.0,-1.0,7811.0,-58.0,1143.0,-249.0,27.0,-318.0,268.0,24.0,-301.0,0.983901,-0.010379,0.178386,15412.0,-92.0,2198.0,3.0,6.0,-1.0
2878.0,2815.0,2883.0,3115.0,3055.0,0.767334,-0.003662,-0.641235,0.003784,-1.0,-1.0,0.0,7795.0,-65.0,1112.0,-266.0,20.0,-343.0,290.0,16.0,-322.0,0.984056,-0.010473,0.17762,15538.0,-188.0,2120.0,-10.0,-13.0,4.0
2879.0,2813.0,2895.0,3127.0,3039.0,0.767151,-0.003723,-0.641418,0.003784,-1.0,-1.0,0.0,7779.0,-83.0,1105.0,-282.0,3.0,-345.0,289.0,0.0,-338.0,0.984101,-0.010567,0.177103,15482.0,-264.0,2182.0,-11.0,-20.0,6.0
2879.0,2835.0,2895.0,3135.0,3043.0,0.766724,-0.003845,-0.641907,0.003845,-1.0,-2.0,0.0,7779.0,-111.0,1097.0,-284.0,-22.0,-343.0,287.0,-25.0,-339.0,0.984301,-0.010833,0.175821,15678.0,-252.0,2226.0,-1.0,-37.0,5.0
2874.0,2813.0,2897.0,3151.0,3025.0,0.766541,-0.003845,-0.642151,0.003845,0.0,-1.0,0.0,7816.0,-103.0,1107.0,-248.0,-14.0,-328.0,279.0,-16.0,-301.0,0.98444,-0.010833,0.175227,15868.0,-104.0,2266.0,3.0,-22.0,0.0
2879.0,2815.0,2875.0,3119.0,3053.0,0.766418,-0.003784,-0.642334,0.003723,-1.0,0.0,-1.0,7820.0,-76.0,1085.0,-245.0,10.0,-346.0,297.0,7.0,-301.0,0.984565,-0.010584,0.174804,15570.0,-158.0,2096.0,-6.0,7.0,-7.0
2895.0,2838.0,2896.0,3135.0,3037.0,0.766296,-0.003784,-0.642456,0.003723,0.0,0.0,-1.0,7820.0,-83.0,1077.0,-245.0,3.0,-352.0,303.0,0.0,-302.0,0.984595,-0.010584,0.17446,15670.0,-202.0,2138.0,3.0,7.0,-9.0
2891.0,2819.0,2893.0,3135.0,3031.0,0.766235,-0.003601,-0.642517,0.003723,0.0,1.0,-1.0,7817.0,-35.0,1065.0,-248.0,49.0,-362.0,313.0,46.0,-307.0,0.984612,-0.010303,0.174289,15534.0,160.0,2108.0,8.0,24.0,-3.0
2887.0,2815.0,2898.0,3135.0,3055.0,0.766174,-0.003601,-0.642578,0.003662,-1.0,0.0,0.0,7789.0,-4.0,1066.0,-277.0,79.0,-360.0,306.0,75.0,-336.0,0.984627,-0.010224,0.174117,15374.0,158.0,2190.0,-12.0,18.0,7.0
2883.0,2830.0,2893.0,3131.0,3034.0,0.765991,-0.003784,-0.642822,0.003601,-1.0,-1.0,0.0,7769.0,-37.0,1065.0,-298.0,48.0,-356.0,298.0,44.0,-355.0,0.984765,-0.010427,0.173521,15612.0,-218.0,2144.0,-7.0,-14.0,14.0
2871.0,2823.0,2891.0,3135.0,3029.0,0.765869,-0.003845,-0.643005,0.003662,0.0,-1.0,0.0,7791.0,-53.0,1076.0,-277.0,33.0,-342.0,288.0,29.0,-332.0,0.984888,-0.010599,0.173098,15744.0,-172.0,2264.0,5.0,-13.0,11.0
2883.0,2829.0,2895.0,3141.0,3023.0,0.765625,-0.003845,-0.64325,0.003845,0.0,-1.0,0.0,7830.0,-75.0,1107.0,-238.0,13.0,-305.0,259.0,10.0,-287.0,0.984946,-0.010835,0.172412,15904.0,-166.0,2318.0,8.0,-6.0,6.0
2881.0,2819.0,2897.0,3142.0,3039.0,0.765625,-0.003784,-0.643311,0.003845,0.0,0.0,0.0,7847.0,-72.0,1117.0,-222.0,15.0,-294.0,251.0,12.0,-269.0,0.98504,-0.010742,0.172334,15748.0,-142.0,2232.0,4.0,12.0,3.0
2881.0,2817.0,2881.0,3135.0,3031.0,0.765503,-0.003845,-0.643372,0.003845,-1.0,-1.0,0.0,7806.0,-93.0,1117.0,-262.0,-4.0,-292.0,242.0,-7.0,-308.0,0.984976,-0.010835,0.172068,15478.0,-272.0,2206.0,-4.0,-1.0,1.0
2890.0,2831.0,2896.0,3135.0,3037.0,0.765381,-0.003845,-0.643494,0.003845,0.0,-1.0,0.0,7804.0,-100.0,1118.0,-265.0,-11.0,-288.0,238.0,-14.0,-310.0,0.985006,-0.010835,0.171724,15612.0,-220.0,2260.0,3.0,-11.0,4.0
2879.0,2827.0,2896.0,3135.0,3029.0,0.765137,-0.003906,-0.643799,0.003967,-1.0,-1.0,0.0,7795.0,-78.0,1128.0,-275.0,12.0,-272.0,220.0,8.0,-317.0,0.985157,-0.011086,0.170958,15612.0,-138.0,2222.0,-2.0,-21.0,11.0
2883.0,2818.0,2894.0,3139.0,3045.0,0.765015,-0.003906,-0.643982,0.003967,0.0,-1.0,0.0,7804.0,-95.0,1118.0,-267.0,-4.0,-279.0,229.0,-7.0,-310.0,0.98528,-0.011086,0.170535,15684.0,-308.0,2146.0,6.0,-17.0,7.0
2883.0,2815.0,2879.0,3139.0,3035.0,0.764832,-0.003723,-0.644226,0.004211,1.0,-1.0,-1.0,7798.0,-89.0,1090.0,-274.0,2.0,-302.0,251.0,-1.0,-321.0,0.985417,-0.011121,0.169944,15526.0,-30.0,2142.0,33.0,-2.0,-7.0
2879.0,2831.0,2891.0,3135.0,3035.0,0.764709,-0.00354,-0.644348,0.004211,1.0,-1.0,-1.0,7808.0,-60.0,1087.0,-264.0,28.0,-302.0,252.0,25.0,-311.0,0.985448,-0.010841,0.169601,15738.0,68.0,2198.0,24.0,0.0,-7.0
2887.0,2831.0,2895.0,3138.0,3039.0,0.764709,-0.003418,-0.644287,0.00415,-1.0,1.0,-1.0,7824.0,-36.0,1071.0,-248.0,50.0,-319.0,272.0,47.0,-299.0,0.985357,-0.010576,0.16968,15508.0,-66.0,2042.0,-8.0,43.0,-2.0
2887.0,2827.0,2885.0,3135.0,3050.0,0.764771,-0.003479,-0.644226,0.004089,-1.0,1.0,-1.0,7784.0,-60.0,1066.0,-287.0,26.0,-325.0,271.0,22.0,-338.0,0.985342,-0.01059,0.169851,15334.0,-294.0,2122.0,-10.0,42.0,-2.0
2887.0,2831.0,2896.0,3130.0,3035.0,0.764832,-0.003479,-0.644226,0.004089,0.0,0.0,-1.0,7716.0,-85.0,1044.0,-356.0,1.0,-348.0,282.0,-2.0,-409.0,0.98542,-0.010591,0.169945,15230.0,-206.0,2030.0,7.0,15.0,-6.0
2893.0,2832.0,2896.0,3119.0,3039.0,0.764709,-0.003418,-0.644348,0.00415,0.0,-1.0,-1.0,7715.0,-85.0,1062.0,-357.0,1.0,-327.0,261.0,-2.0,-407.0,0.98545,-0.010576,0.169602,15512.0,-146.0,2214.0,9.0,-5.0,-5.0
2885.0,2839.0,2883.0,3135.0,3039.0,0.764587,-0.003296,-0.64447,0.004089,0.0,0.0,-1.0,7768.0,-50.0,1124.0,-305.0,34.0,-262.0,206.0,30.0,-345.0,0.985481,-0.010311,0.169258,15636.0,-58.0,2398.0,3.0,4.0,-3.0
2886.0,2821.0,2895.0,3135.0,3047.0,0.764587,-0.003296,-0.644531,0.004089,0.0,-1.0,0.0,7780.0,-54.0,1141.0,-293.0,30.0,-244.0,190.0,26.0,-330.0,0.985574,-0.010311,0.169179,15616.0,-124.0,2382.0,5.0,-2.0,4.0
2883.0,2815.0,2887.0,3141.0,3031.0,0.764404,-0.003235,-0.644714,0.00415,0.0,-1.0,0.0,7813.0,-60.0,1155.0,-261.0,24.0,-226.0,178.0,21.0,-295.0,0.985618,-0.010297,0.168664,15702.0,-210.0,2314.0,4.0,-4.0,2.0
2881.0,2823.0,2915.0,3135.0,3043.0,0.764343,-0.003235,-0.644775,0.004211,0.0,-1.0,0.0,7817.0,-81.0,1157.0,-257.0,3.0,-223.0,176.0,0.0,-290.0,0.985632,-0.010376,0.168493,15666.0,-290.0,2296.0,4.0,-7.0,1.0
2892.0,2825.0,2886.0,3139.0,3043.0,0.76416,-0.003235,-0.644958,0.004211,0.0,0.0,-1.0,7845.0,-118.0,1138.0,-229.0,-32.0,-238.0,196.0,-34.0,-265.0,0.985676,-0.010376,0.167977,15772.0,-322.0,2224.0,5.0,2.0,-10.0
2887.0,2821.0,2893.0,3143.0,3031.0,0.764099,-0.003174,-0.64502,0.004211,-1.0,0.0,-1.0,7836.0,-111.0,1129.0,-238.0,-26.0,-245.0,201.0,-28.0,-275.0,0.985691,-0.010283,0.167805,15608.0,-162.0,2180.0,-1.0,5.0,-13.0
2885.0,2825.0,2896.0,3139.0,3039.0,0.764038,-0.003235,-0.645203,0.003967,-2.0,0.0,-1.0,7840.0,-107.0,1108.0,-236.0,-24.0,-263.0,219.0,-26.0,-276.0,0.985893,-0.010063,0.167473,15668.0,-182.0,2182.0,-23.0,8.0,-16.0
2883.0,2829.0,2899.0,3135.0,3039.0,0.763977,-0.003296,-0.645264,0.003784,-1.0,0.0,-1.0,7816.0,-95.0,1090.0,-260.0,-13.0,-280.0,232.0,-15.0,-303.0,0.985908,-0.00992,0.167299,15452.0,-106.0,2104.0,-22.0,6.0,-14.0
2885.0,2822.0,2893.0,3135.0,3035.0,0.763733,-0.003357,-0.645508,0.00354,-1.0,-1.0,-1.0,7821.0,-54.0,1089.0,-256.0,25.0,-275.0,228.0,22.0,-298.0,0.985967,-0.009698,0.166609,15750.0,48.0,2188.0,-18.0,-8.0,-10.0
2879.0,2820.0,2894.0,3139.0,3027.0,0.763672,-0.003357,-0.645569,0.003418,-1.0,0.0,-1.0,7820.0,-25.0,1090.0,-257.0,53.0,-273.0,226.0,50.0,-299.0,0.985983,-0.00954,0.166436,15588.0,120.0,2184.0,-16.0,1.0,-4.0
2885.0,2820.0,2893.0,3127.0,3031.0,0.76355,-0.003418,-0.645691,0.003296,-1.0,0.0,0.0,7814.0,12.0,1101.0,-263.0,89.0,-259.0,211.0,86.0,-303.0,0.986012,-0.009476,0.166091,15688.0,58.0,2168.0,-15.0,2.0,11.0
2883.0,2822.0,2896.0,3135.0,3029.0,0.763489,-0.003479,-0.645752,0.003296,-1.0,0.0,0.0,7822.0,13.0,1105.0,-255.0,91.0,-254.0,208.0,88.0,-294.0,0.986026,-0.009569,0.165918,15688.0,30.0,2322.0,-10.0,6.0,19.0
2883.0,2819.0,2895.0,3127.0,3037.0,0.763489,-0.00354,-0.645813,0.003418,0.0,0.0,0.0,7802.0,10.0,1082.0,-276.0,90.0,-276.0,226.0,87.0,-318.0,0.986118,-0.00982,0.16584,15572.0,64.0,1970.0,11.0,15.0,18.0
2883.0,2825.0,2891.0,3131.0,3030.0,0.763428,-0.00354,-0.645874,0.003479,-1.0,0.0,0.0,7844.0,9.0,1076.0,-234.0,90.0,-281.0,238.0,87.0,-278.0,0.986132,-0.009899,0.165668,15954.0,-54.0,2146.0,-1.0,15.0,16.0
2886.0,2821.0,2891.0,3133.0,3035.0,0.763428,-0.003723,-0.645874,0.003601,0.0,1.0,0.0,7788.0,-64.0,1047.0,-290.0,20.0,-310.0,257.0,16.0,-337.0,0.986129,-0.010336,0.165668,15236.0,-378.0,1926.0,5.0,24.0,19.0
2889.0,2823.0,2871.0,3143.0,3043.0,0.763367,-0.003784,-0.645935,0.003723,0.0,0.0,0.0,7774.0,-74.0,1075.0,-304.0,12.0,-280.0,225.0,8.0,-346.0,0.986142,-0.010587,0.165496,15522.0,-166.0,2358.0,9.0,4.0,18.0
2887.0,2823.0,2895.0,3135.0,3035.0,0.763306,-0.003845,-0.645996,0.003845,-1.0,0.0,0.0,7779.0,-66.0,1115.0,-299.0,22.0,-239.0,186.0,18.0,-334.0,0.986155,-0.010838,0.165325,15596.0,-140.0,2314.0,-10.0,8.0,16.0
2890.0,2827.0,2883.0,3135.0,3027.0,0.763306,-0.003967,-0.645996,0.003845,-1.0,0.0,0.0,7784.0,-73.0,1124.0,-294.0,17.0,-230.0,178.0,13.0,-328.0,0.986154,-0.011024,0.165324,15596.0,-186.0,2284.0,-16.0,7.0,13.0
2887.0,2815.0,2894.0,3143.0,3025.0,0.763245,-0.00415,-0.646057,0.003845,-1.0,0.0,0.0,7797.0,-61.0,1137.0,-281.0,31.0,-215.0,165.0,27.0,-312.0,0.986167,-0.011304,0.16515,15694.0,-50.0,2342.0,-12.0,8.0,11.0
2887.0,2821.0,2891.0,3131.0,3046.0,0.763245,-0.004211,-0.646057,0.003784,-1.0,0.0,0.0,7811.0,-53.0,1145.0,-267.0,39.0,-207.0,160.0,35.0,-297.0,0.986167,-0.011318,0.165149,15692.0,-58.0,2320.0,-10.0,17.0,11.0
2882.0,2835.0,2889.0,3115.0,3039.0,0.763245,-0.004333,-0.646057,0.003784,-1.0,0.0,0.0,7797.0,-54.0,1122.0,-281.0,40.0,-230.0,180.0,36.0,-315.0,0.986166,-0.011505,0.165148,15580.0,-102.0,2194.0,-6.0,21.0,8.0
2877.0,2818.0,2887.0,3127.0,3039.0,0.763306,-0.004333,-0.646057,0.003845,-1.0,1.0,0.0,7799.0,-42.0,1115.0,-280.0,52.0,-238.0,188.0,48.0,-316.0,0.986245,-0.011584,0.165242,15612.0,42.0,2194.0,-4.0,24.0,11.0
2879.0,2823.0,2885.0,3135.0,3037.0,0.763367,-0.004456,-0.645935,0.003784,-1.0,1.0,0.0,7788.0,-62.0,1113.0,-290.0,33.0,-242.0,190.0,29.0,-326.0,0.986137,-0.011691,0.165491,15496.0,-262.0,2160.0,-11.0,36.0,13.0
2887.0,2823.0,2895.0,3135.0,3023.0,0.763428,-0.004578,-0.645874,0.003845,-1.0,1.0,0.0,7765.0,-83.0,1114.0,-313.0,14.0,-243.0,187.0,9.0,-349.0,0.986121,-0.011956,0.165662,15374.0,-298.0,2224.0,-5.0,28.0,9.0
2886.0,2826.0,2887.0,3122.0,3039.0,0.763428,-0.004578,-0.645874,0.003845,0.0,0.0,0.0,7750.0,-90.0,1129.0,-328.0,7.0,-228.0,170.0,2.0,-361.0,0.986121,-0.011956,0.165662,15504.0,-88.0,2254.0,1.0,10.0,0.0
2887.0,2823.0,2887.0,3135.0,3039.0,0.763367,-0.004578,-0.645874,0.003845,-1.0,0.0,-1.0,7761.0,-76.0,1140.0,-316.0,21.0,-216.0,160.0,16.0,-347.0,0.986042,-0.011956,0.165569,15584.0,-80.0,2322.0,-7.0,8.0,-3.0
2887.0,2826.0,2887.0,3111.0,3043.0,0.763367,-0.004578,-0.645935,0.003723,-1.0,0.0,-1.0,7780.0,-65.0,1138.0,-298.0,31.0,-217.0,164.0,27.0,-330.0,0.986137,-0.011799,0.16549,15768.0,-60.0,2312.0,-15.0,1.0,-4.0
2884.0,2827.0,2895.0,3139.0,3039.0,0.763428,-0.004639,-0.645874,0.00354,-1.0,1.0,-1.0,7813.0,-54.0,1140.0,-265.0,41.0,-217.0,170.0,37.0,-297.0,0.986123,-0.011655,0.16566,15536.0,-62.0,2228.0,-17.0,33.0,-6.0
2886.0,2811.0,2895.0,3135.0,3027.0,0.763428,-0.0047,-0.645874,0.003479,-1.0,0.0,0.0,7782.0,-43.0,1139.0,-296.0,52.0,-218.0,165.0,48.0,-328.0,0.986124,-0.01167,0.165659,15372.0,-10.0,2280.0,-16.0,21.0,1.0
2883.0,2819.0,2883.0,3139.0,3039.0,0.763428,-0.004822,-0.645874,0.003357,-2.0,0.0,0.0,7786.0,11.0,1172.0,-292.0,106.0,-185.0,134.0,102.0,-319.0,0.986124,-0.011698,0.165657,15704.0,206.0,2454.0,-29.0,4.0,13.0
2885.0,2829.0,2896.0,3143.0,3039.0,0.763428,-0.005005,-0.645874,0.003235,-2.0,0.0,0.0,7810.0,-1.0,1174.0,-268.0,95.0,-183.0,136.0,91.0,-295.0,0.986124,-0.01182,0.165654,15730.0,-142.0,2324.0,-44.0,14.0,21.0
2883.0,2823.0,2895.0,3127.0,3038.0,0.763428,-0.005432,-0.645874,0.003113,-2.0,0.0,0.0,7792.0,-57.0,1168.0,-286.0,43.0,-188.0,138.0,38.0,-313.0,0.986122,-0.012315,0.165649,15574.0,-340.0,2430.0,-32.0,10.0,15.0
2881.0,2819.0,2887.0,3139.0,3038.0,0.763428,-0.005615,-0.645874,0.003113,-1.0,0.0,0.0,7818.0,-83.0,1165.0,-260.0,20.0,-191.0,145.0,16.0,-288.0,0.986121,-0.012595,0.165647,15820.0,-300.0,2310.0,-20.0,10.0,12.0
2881.0,2822.0,2894.0,3139.0,3039.0,0.763428,-0.005798,-0.645813,0.003052,-1.0,0.0,0.0,7826.0,-114.0,1165.0,-251.0,-9.0,-192.0,147.0,-12.0,-279.0,0.986028,-0.012795,0.165723,15594.0,-328.0,2388.0,-18.0,22.0,2.0
2885.0,2829.0,2894.0,3135.0,3039.0,0.763489,-0.00592,-0.645813,0.003052,-1.0,0.0,-1.0,7818.0,-130.0,1172.0,-260.0,-23.0,-186.0,140.0,-27.0,-286.0,0.986106,-0.012982,0.165815,15612.0,-324.0,2360.0,-16.0,19.0,-3.0
2893.0,2827.0,2895.0,3139.0,3045.0,0.763489,-0.005981,-0.645752,0.00293,-1.0,0.0,-1.0,7781.0,-129.0,1160.0,-296.0,-23.0,-198.0,146.0,-27.0,-324.0,0.986014,-0.012917,0.165892,15358.0,-188.0,2278.0,-10.0,10.0,-8.0
2884.0,2815.0,2895.0,3133.0,3030.0,0.763428,-0.005981,-0.645813,0.002808,-1.0,-1.0,-1.0,7782.0,-104.0,1176.0,-295.0,0.0,-181.0,129.0,-4.0,-320.0,0.98603,-0.012759,0.16572,15628.0,-36.0,2490.0,-15.0,-7.0,-9.0
2887.0,2821.0,2891.0,3139.0,3039.0,0.763367,-0.006104,-0.645874,0.002563,-2.0,0.0,-1.0,7830.0,-78.0,1191.0,-247.0,25.0,-165.0,121.0,21.0,-271.0,0.986046,-0.01263,0.165545,15750.0,-14.0,2372.0,-27.0,8.0,-2.0
2883.0,2827.0,2897.0,3143.0,3039.0,0.763367,-0.006165,-0.645874,0.00238,-2.0,0.0,-1.0,7824.0,-64.0,1195.0,-253.0,38.0,-161.0,117.0,34.0,-276.0,0.986048,-0.012486,0.165543,15610.0,-130.0,2422.0,-40.0,10.0,-5.0
2884.0,2826.0,2899.0,3134.0,3035.0,0.763367,-0.006409,-0.645935,0.002197,-1.0,-1.0,0.0,7782.0,-82.0,1179.0,-296.0,21.0,-176.0,124.0,16.0,-321.0,0.986142,-0.012623,0.16546,15434.0,-134.0,2348.0,-15.0,-1.0,6.0
2879.0,2823.0,2897.0,3135.0,3027.0,0.763306,-0.00647,-0.646057,0.002197,-1.0,-1.0,0.0,7779.0,-69.0,1173.0,-300.0,35.0,-180.0,128.0,30.0,-326.0,0.98625,-0.012716,0.165209,15638.0,-40.0,2356.0,-10.0,-12.0,4.0
2887.0,2818.0,2887.0,3183.0,3035.0,0.763184,-0.006531,-0.646118,0.002136,-1.0,0.0,0.0,7794.0,-52.0,1156.0,-284.0,52.0,-195.0,145.0,47.0,-312.0,0.986186,-0.012729,0.164942,15512.0,-44.0,2206.0,-7.0,5.0,12.0
2887.0,2823.0,2891.0,3131.0,3039.0,0.763123,-0.006592,-0.646179,0.002136,-1.0,0.0,0.0,7794.0,-46.0,1147.0,-284.0,59.0,-202.0,152.0,54.0,-314.0,0.9862,-0.012821,0.16477,15586.0,-66.0,2264.0,-10.0,4.0,10.0
2885.0,2825.0,2895.0,3135.0,3039.0,0.763062,-0.006775,-0.646301,0.002075,-1.0,0.0,0.0,7791.0,-75.0,1132.0,-288.0,31.0,-215.0,164.0,25.0,-319.0,0.986307,-0.013022,0.164516,15632.0,-354.0,2208.0,-20.0,5.0,9.0
2879.0,2825.0,2895.0,3133.0,3039.0,0.763,-0.006836,-0.646301,0.002136,-1.0,0.0,0.0,7783.0,-104.0,1129.0,-296.0,4.0,-217.0,165.0,-1.0,-327.0,0.986227,-0.013193,0.164422,15510.0,-378.0,2288.0,-6.0,11.0,7.0
2883.0,2819.0,2895.0,3135.0,3031.0,0.763,-0.006897,-0.646362,0.002136,-1.0,0.0,0.0,7782.0,-97.0,1149.0,-297.0,11.0,-197.0,145.0,5.0,-325.0,0.98632,-0.013286,0.164343,15612.0,-132.0,2388.0,-2.0,7.0,5.0
2886.0,2829.0,2895.0,3141.0,3039.0,0.763,-0.006958,-0.646362,0.002136,-1.0,0.0,0.0,7773.0,-96.0,1156.0,-306.0,13.0,-190.0,137.0,7.0,-333.0,0.98632,-0.013379,0.164342,15452.0,-210.0,2332.0,-16.0,8.0,10.0
2883.0,2827.0,2879.0,3139.0,3031.0,0.762878,-0.007141,-0.646484,0.002136,-1.0,-1.0,0.0,7753.0,-140.0,1178.0,-327.0,-28.0,-165.0,108.0,-33.0,-349.0,0.986347,-0.013658,0.163995,15508.0,-400.0,2436.0,-1.0,-17.0,6.0
2885.0,2823.0,2893.0,3127.0,3035.0,0.762817,-0.007141,-0.646606,0.002258,0.0,-1.0,0.0,7766.0,-143.0,1199.0,-315.0,-29.0,-142.0,88.0,-34.0,-333.0,0.986453,-0.013815,0.163745,15620.0,-274.0,2498.0,13.0,-19.0,1.0
2879.0,2819.0,2890.0,3135.0,3035.0,0.762695,-0.007019,-0.646729,0.002319,0.0,-1.0,0.0,7787.0,-109.0,1236.0,-294.0,3.0,-102.0,52.0,-1.0,-306.0,0.986481,-0.013707,0.163402,15578.0,-108.0,2552.0,11.0,-12.0,0.0
2886.0,2827.0,2896.0,3131.0,3039.0,0.762634,-0.007019,-0.64679,0.002319,0.0,-1.0,0.0,7778.0,-93.0,1239.0,-303.0,19.0,-98.0,47.0,14.0,-315.0,0.986495,-0.013706,0.16323,15480.0,-114.0,2444.0,3.0,-18.0,4.0
2867.0,2827.0,2890.0,3135.0,3039.0,0.762451,-0.007019,-0.646973,0.00238,0.0,-1.0,0.0,7801.0,-109.0,1203.0,-280.0,3.0,-129.0,81.0,-1.0,-297.0,0.986537,-0.013783,0.162715,15728.0,-252.0,2270.0,6.0,-8.0,2.0
2883.0,2819.0,2894.0,3135.0,3039.0,0.76239,-0.006958,-0.647034,0.00238,0.0,0.0,0.0,7799.0,-106.0,1164.0,-282.0,6.0,-167.0,118.0,1.0,-305.0,0.986551,-0.01369,0.162543,15542.0,-170.0,2072.0,6.0,3.0,2.0
2887.0,2823.0,2893.0,3135.0,3035.0,0.762268,-0.007019,-0.647217,0.00238,-1.0,-1.0,0.0,7766.0,-112.0,1128.0,-316.0,0.0,-200.0,146.0,-5.0,-344.0,0.986672,-0.013782,0.162119,15562.0,-228.0,2182.0,-7.0,-11.0,4.0
2887.0,2826.0,2893.0,3135.0,3039.0,0.762207,-0.00708,-0.647339,0.00238,-1.0,-1.0,0.0,7779.0,-114.0,1113.0,-304.0,0.0,-213.0,160.0,-5.0,-334.0,0.986779,-0.013875,0.161867,15612.0,-242.0,2152.0,-10.0,-3.0,2.0
2885.0,2822.0,2895.0,3139.0,3037.0,0.762146,-0.007141,-0.647339,0.002258,-1.0,0.0,-1.0,7801.0,-138.0,1105.0,-282.0,-24.0,-220.0,171.0,-29.0,-313.0,0.986701,-0.013809,0.161773,15558.0,-410.0,2146.0,-10.0,19.0,-9.0
2881.0,2821.0,2883.0,3135.0,3031.0,0.762146,-0.007141,-0.647339,0.002258,0.0,0.0,-1.0,7783.0,-158.0,1104.0,-300.0,-44.0,-221.0,169.0,-49.0,-331.0,0.986701,-0.013809,0.161773,15458.0,-404.0,2232.0,3.0,17.0,-13.0
2883.0,2818.0,2891.0,3135.0,3027.0,0.762146,-0.006958,-0.647339,0.002319,0.0,0.0,-1.0,7790.0,-127.0,1134.0,-293.0,-15.0,-191.0,140.0,-20.0,-319.0,0.986701,-0.013609,0.161776,15502.0,-2.0,2400.0,21.0,17.0,-12.0
2882.0,2829.0,2896.0,3139.0,3039.0,0.762207,-0.006836,-0.647278,0.002258,0.0,0.0,-1.0,7782.0,-84.0,1166.0,-300.0,25.0,-160.0,109.0,20.0,-322.0,0.986689,-0.013344,0.161949,15524.0,110.0,2540.0,10.0,12.0,-9.0
2886.0,2831.0,2895.0,3135.0,3039.0,0.762207,-0.006836,-0.647278,0.002075,-1.0,-1.0,-1.0,7777.0,-59.0,1200.0,-305.0,48.0,-126.0,75.0,43.0,-321.0,0.986691,-0.013107,0.161949,15588.0,-188.0,2446.0,-17.0,-4.0,-1.0
2883.0,2819.0,2893.0,3135.0,3039.0,0.762146,-0.006836,-0.647339,0.002075,-1.0,-1.0,-1.0,7785.0,-89.0,1207.0,-298.0,18.0,-118.0,68.0,13.0,-313.0,0.986705,-0.013107,0.161776,15612.0,-374.0,2444.0,-4.0,-12.0,-2.0
2883.0,2819.0,2895.0,3135.0,3035.0,0.762024,-0.006714,-0.647522,0.002136,1.0,-1.0,-1.0,7815.0,-115.0,1214.0,-269.0,-8.0,-107.0,62.0,-12.0,-282.0,0.986826,-0.012999,0.161355,15772.0,-198.0,2458.0,23.0,-10.0,-10.0
2886.0,2823.0,2893.0,3135.0,3037.0,0.761963,-0.006592,-0.647583,0.002197,0.0,-1.0,-1.0,7806.0,-96.0,1209.0,-278.0,9.0,-111.0,64.0,4.0,-292.0,0.986839,-0.012891,0.161185,15442.0,-56.0,2372.0,21.0,-5.0,-11.0
2883.0,2822.0,2891.0,3135.0,3039.0,0.761719,-0.00647,-0.647827,0.002136,-1.0,-2.0,-1.0,7786.0,-91.0,1188.0,-298.0,12.0,-126.0,76.0,7.0,-314.0,0.986897,-0.012624,0.160498,15734.0,-266.0,2334.0,-6.0,-38.0,-4.0
2879.0,2821.0,2887.0,3135.0,3039.0,0.761597,-0.00647,-0.64801,0.002136,0.0,-1.0,-1.0,7825.0,-94.0,1176.0,-260.0,9.0,-135.0,91.0,5.0,-278.0,0.987017,-0.012623,0.160075,15852.0,-164.0,2294.0,1.0,-16.0,-6.0
2887.0,2823.0,2891.0,3135.0,3035.0,0.761536,-0.006409,-0.648071,0.002014,-1.0,-1.0,-1.0,7787.0,-96.0,1132.0,-298.0,5.0,-177.0,127.0,0.0,-322.0,0.987033,-0.012372,0.159903,15446.0,-288.0,2084.0,-3.0,-2.0,-12.0
2885.0,2829.0,2895.0,3135.0,3035.0,0.761475,-0.006348,-0.648193,0.002014,0.0,-1.0,-1.0,7776.0,-108.0,1125.0,-310.0,-7.0,-182.0,130.0,-11.0,-334.0,0.98714,-0.012278,0.159653,15458.0,-236.0,2214.0,13.0,-1.0,-13.0
2885.0,2823.0,2891.0,3135.0,3035.0,0.761414,-0.006104,-0.648254,0.001953,0.0,0.0,-1.0,7783.0,-57.0,1131.0,-303.0,39.0,-175.0,124.0,34.0,-327.0,0.987156,-0.011827,0.159483,15574.0,52.0,2270.0,8.0,7.0,-13.0
2886.0,2823.0,2891.0,3131.0,3037.0,0.761414,-0.006042,-0.648254,0.001892,-1.0,0.0,-1.0,7779.0,-41.0,1139.0,-307.0,54.0,-167.0,116.0,49.0,-330.0,0.987157,-0.011655,0.159484,15548.0,2.0,2298.0,-3.0,6.0,-4.0
2881.0,2823.0,2891.0,3135.0,3039.0,0.761353,-0.006042,-0.648315,0.001831,-1.0,-1.0,0.0,7759.0,-46.0,1149.0,-327.0,48.0,-156.0,102.0,43.0,-348.0,0.987171,-0.011575,0.159312,15456.0,-100.0,2328.0,0.0,-2.0,2.0
2886.0,2827.0,2895.0,3135.0,3043.0,0.761292,-0.006042,-0.648376,0.001831,0.0,-1.0,0.0,7758.0,-55.0,1151.0,-329.0,39.0,-152.0,97.0,34.0,-349.0,0.987185,-0.011575,0.15914,15518.0,-180.0,2294.0,12.0,-8.0,1.0
2885.0,2826.0,2893.0,3183.0,3039.0,0.761169,-0.005798,-0.64856,0.002014,1.0,-1.0,0.0,7784.0,-57.0,1153.0,-303.0,36.0,-147.0,97.0,31.0,-322.0,0.987304,-0.01144,0.15872,15760.0,-108.0,2364.0,24.0,-13.0,0.0
2883.0,2825.0,2892.0,3135.0,3035.0,0.761108,-0.005676,-0.64856,0.002075,1.0,0.0,-1.0,7809.0,-55.0,1167.0,-278.0,37.0,-132.0,86.0,33.0,-295.0,0.987225,-0.011332,0.158629,15708.0,-98.0,2366.0,26.0,5.0,-2.0
2883.0,2819.0,2887.0,3135.0,3035.0,0.761169,-0.005432,-0.64856,0.002136,0.0,0.0,-1.0,7780.0,-51.0,1161.0,-307.0,39.0,-139.0,88.0,35.0,-325.0,0.987304,-0.01104,0.158724,15436.0,-130.0,2320.0,16.0,1.0,-7.0
2883.0,2827.0,2895.0,3135.0,3037.0,0.761108,-0.005371,-0.648621,0.002136,0.0,-1.0,-1.0,7789.0,-62.0,1167.0,-299.0,27.0,-131.0,82.0,23.0,-316.0,0.987318,-0.010947,0.158553,15636.0,-172.0,2324.0,16.0,-5.0,-6.0
2883.0,2825.0,2891.0,3135.0,3043.0,0.760986,-0.005249,-0.648682,0.002197,0.0,-1.0,-1.0,7784.0,-64.0,1158.0,-303.0,24.0,-138.0,88.0,20.0,-321.0,0.987253,-0.01084,0.15829,15540.0,-154.0,2284.0,7.0,-8.0,-4.0
2883.0,2821.0,2893.0,3133.0,3031.0,0.760925,-0.005188,-0.648804,0.002197,0.0,-1.0,-1.0,7789.0,-71.0,1171.0,-299.0,17.0,-123.0,74.0,13.0,-314.0,0.98736,-0.010747,0.158039,15600.0,-176.0,2414.0,3.0,-13.0,-4.0
2887.0,2822.0,2894.0,3135.0,3035.0,0.760803,-0.005127,-0.648987,0.002136,0.0,-1.0,-1.0,7772.0,-80.0,1162.0,-317.0,6.0,-129.0,77.0,2.0,-333.0,0.987481,-0.010574,0.157616,15566.0,-150.0,2332.0,6.0,-19.0,-11.0
2886.0,2823.0,2895.0,3135.0,3039.0,0.760742,-0.005066,-0.649048,0.002136,0.0,-1.0,-1.0,7794.0,-72.0,1164.0,-295.0,13.0,-125.0,77.0,9.0,-311.0,0.987495,-0.010481,0.157444,15770.0,-68.0,2328.0,11.0,-17.0,-11.0
2886.0,2827.0,2895.0,3135.0,3039.0,0.760681,-0.004822,-0.649109,0.002075,0.0,0.0,-1.0,7810.0,-53.0,1150.0,-279.0,29.0,-138.0,92.0,25.0,-297.0,0.98751,-0.01003,0.157275,15556.0,-112.0,2254.0,8.0,10.0,-13.0
2885.0,2823.0,2891.0,3135.0,3035.0,0.760681,-0.0047,-0.649109,0.002075,0.0,0.0,-1.0,7803.0,-52.0,1145.0,-286.0,28.0,-143.0,96.0,24.0,-305.0,0.98751,-0.009844,0.157276,15570.0,-110.0,2294.0,15.0,6.0,-12.0
2883.0,2821.0,2893.0,3135.0,3035.0,0.760559,-0.004395,-0.649231,0.002136,1.0,-1.0,-1.0,7755.0,-23.0,1150.0,-334.0,54.0,-135.0,81.0,50.0,-351.0,0.987538,-0.009458,0.156935,15444.0,86.0,2334.0,25.0,-20.0,-8.0
2883.0,2823.0,2894.0,3135.0,3039.0,0.760437,-0.004272,-0.649353,0.002136,0.0,-2.0,-1.0,7766.0,-13.0,1156.0,-324.0,62.0,-126.0,73.0,58.0,-340.0,0.987566,-0.009272,0.156591,15600.0,40.0,2346.0,21.0,-27.0,-1.0
2887.0,2823.0,2895.0,3135.0,3038.0,0.760254,-0.004089,-0.649597,0.002258,0.0,-2.0,0.0,7787.0,-4.0,1162.0,-304.0,70.0,-115.0,66.0,66.0,-318.0,0.987699,-0.009152,0.155998,15646.0,-60.0,2312.0,15.0,-27.0,5.0
2884.0,2823.0,2893.0,3135.0,3037.0,0.760132,-0.004028,-0.64978,0.002319,0.0,-1.0,0.0,7812.0,-2.0,1165.0,-280.0,72.0,-109.0,64.0,69.0,-294.0,0.987819,-0.009138,0.155575,15818.0,50.0,2418.0,16.0,-22.0,8.0
2887.0,2826.0,2893.0,3135.0,3035.0,0.760071,-0.003967,-0.649841,0.002319,-1.0,0.0,0.0,7838.0,9.0,1139.0,-254.0,83.0,-134.0,93.0,80.0,-272.0,0.987832,-0.009045,0.155404,15754.0,-34.0,2144.0,-11.0,5.0,6.0
2883.0,2827.0,2896.0,3142.0,3039.0,0.760071,-0.004089,-0.649841,0.002258,-1.0,0.0,0.0,7840.0,-3.0,1125.0,-252.0,71.0,-148.0,107.0,68.0,-272.0,0.987832,-0.009151,0.155402,15646.0,-92.0,2170.0,-21.0,16.0,7.0
2886.0,2822.0,2895.0,3135.0,3035.0,0.76001,-0.004272,-0.649902,0.002197,-1.0,-1.0,0.0,7775.0,-78.0,1106.0,-317.0,-1.0,-165.0,113.0,-4.0,-338.0,0.987845,-0.00935,0.155228,15390.0,-380.0,2198.0,-5.0,-5.0,6.0
2879.0,2823.0,2891.0,3135.0,3038.0,0.759949,-0.004272,-0.649963,0.002319,0.0,-1.0,0.0,7786.0,-100.0,1116.0,-306.0,-22.0,-154.0,104.0,-25.0,-325.0,0.987858,-0.009509,0.155057,15676.0,-338.0,2322.0,14.0,-13.0,4.0
2883.0,2819.0,2891.0,3135.0,3035.0,0.759888,-0.00415,-0.650024,0.002441,0.0,-1.0,-1.0,7785.0,-70.0,1143.0,-307.0,7.0,-125.0,75.0,3.0,-322.0,0.987871,-0.009482,0.154886,15520.0,54.0,2348.0,19.0,-2.0,-2.0
2886.0,2825.0,2895.0,3141.0,3037.0,0.759827,-0.004089,-0.650085,0.002441,0.0,-1.0,0.0,7775.0,-43.0,1157.0,-317.0,33.0,-110.0,59.0,29.0,-330.0,0.987885,-0.009389,0.154715,15484.0,48.0,2384.0,2.0,-11.0,1.0
2883.0,2821.0,2891.0,3135.0,3035.0,0.759766,-0.004089,-0.650208,0.00238,-1.0,-1.0,0.0,7771.0,-38.0,1157.0,-322.0,38.0,-108.0,57.0,34.0,-335.0,0.987991,-0.009309,0.154463,15534.0,-60.0,2292.0,-7.0,-21.0,2.0
2886.0,2823.0,2891.0,3135.0,3037.0,0.759583,-0.004028,-0.65033,0.002441,0.0,-1.0,-1.0,7817.0,-43.0,1151.0,-276.0,33.0,-110.0,66.0,30.0,-289.0,0.987938,-0.009295,0.154027,15710.0,-30.0,2280.0,13.0,-2.0,-1.0
2886.0,2827.0,2897.0,3135.0,3035.0,0.759583,-0.003967,-0.650391,0.002441,0.0,0.0,0.0,7810.0,-20.0,1152.0,-283.0,55.0,-109.0,64.0,52.0,-296.0,0.988031,-0.009203,0.153948,15518.0,156.0,2288.0,10.0,7.0,1.0
2889.0,2825.0,2897.0,3139.0,3039.0,0.75946,-0.004028,-0.650513,0.00238,-1.0,-2.0,0.0,7767.0,5.0,1146.0,-327.0,80.0,-112.0,60.0,76.0,-341.0,0.988058,-0.009216,0.153603,15568.0,-28.0,2282.0,-19.0,-25.0,15.0
2887.0,2821.0,2891.0,3135.0,3039.0,0.759399,-0.004089,-0.650635,0.00238,-1.0,-1.0,0.0,7780.0,-25.0,1131.0,-315.0,51.0,-125.0,75.0,47.0,-330.0,0.988164,-0.009308,0.153351,15600.0,-266.0,2134.0,-6.0,-19.0,16.0
2883.0,2821.0,2891.0,3135.0,3037.0,0.759277,-0.004089,-0.650757,0.002625,1.0,0.0,0.0,7817.0,-43.0,1114.0,-278.0,35.0,-139.0,94.0,32.0,-296.0,0.988188,-0.009626,0.153008,15670.0,-38.0,2164.0,23.0,2.0,9.0
2886.0,2825.0,2895.0,3139.0,3039.0,0.759277,-0.003967,-0.650757,0.002686,0.0,0.0,0.0,7831.0,-30.0,1123.0,-264.0,47.0,-130.0,88.0,44.0,-281.0,0.988189,-0.00952,0.153009,15766.0,24.0,2342.0,19.0,15.0,8.0
2886.0,2823.0,2891.0,3135.0,3039.0,0.759338,-0.003967,-0.650696,0.002686,0.0,1.0,0.0,7812.0,-13.0,1110.0,-283.0,64.0,-144.0,99.0,61.0,-302.0,0.988175,-0.00952,0.153181,15472.0,50.0,2158.0,2.0,28.0,10.0
2886.0,2819.0,2895.0,3135.0,3037.0,0.759399,-0.00415,-0.650635,0.002686,-1.0,0.0,0.0,7783.0,-32.0,1094.0,-312.0,48.0,-162.0,112.0,44.0,-333.0,0.988161,-0.009798,0.153352,15600.0,-240.0,2178.0,-20.0,15.0,18.0
2884.0,2826.0,2895.0,3147.0,3039.0,0.759399,-0.004272,-0.650574,0.002747,-1.0,0.0,0.0,7780.0,-62.0,1094.0,-314.0,20.0,-162.0,111.0,16.0,-335.0,0.988067,-0.010063,0.153431,15476.0,-286.0,2170.0,-5.0,19.0,20.0
2883.0,2828.0,2895.0,3143.0,3039.0,0.759399,-0.004272,-0.650574,0.002991,1.0,-1.0,0.0,7747.0,-88.0,1129.0,-347.0,-2.0,-127.0,72.0,-5.0,-362.0,0.988065,-0.01038,0.153432,15450.0,-252.0,2430.0,23.0,-9.0,13.0
400.0,-670.0,3596.0,-27.0,43.0,13.0,,,,,,,,,,,,,,,,,,,,,,,,
2881.0,2826.0,2893.0,3135.0,3039.0,0.779175,-0.001526,-0.625793,0.035217,-2.0,1.0,0.0,7678.0,-367.0,1745.0,-309.0,13.0,-30.0,-37.0,-3.0,-308.0,0.975098,-0.046455,0.216734,15108.0,-1004.0,3358.0,-42.0,39.0,17.0
2879.0,2823.0,2895.0,3135.0,3039.0,0.779236,-0.001831,-0.625732,0.035217,-2.0,0.0,1.0,7635.0,-403.0,1736.0,-352.0,-18.0,-40.0,-35.0,-36.0,-351.0,0.975057,-0.046927,0.216904,15032.0,-1028.0,3410.0,-27.0,15.0,26.0
2881.0,2823.0,2895.0,3139.0,3039.0,0.779175,-0.002136,-0.625732,0.035461,0.0,-1.0,0.0,7634.0,-441.0,1730.0,-352.0,-50.0,-46.0,-27.0,-68.0,-350.0,0.974958,-0.047708,0.216825,15330.0,-902.0,3388.0,1.0,-7.0,19.0
2882.0,2831.0,2896.0,3141.0,3043.0,0.779175,-0.002197,-0.625732,0.035522,-1.0,-1.0,0.0,7665.0,-429.0,1732.0,-321.0,-36.0,-44.0,-23.0,-52.0,-320.0,0.974954,-0.047879,0.216829,15566.0,-738.0,3462.0,-3.0,0.0,12.0
2883.0,2830.0,2896.0,3139.0,3039.0,0.779419,-0.00238,-0.625549,0.0354,-2.0,2.0,-1.0,7731.0,-397.0,1695.0,-255.0,-3.0,-86.0,29.0,-14.0,-267.0,0.974961,-0.048,0.217429,15492.0,-736.0,3228.0,-33.0,55.0,-5.0
2879.0,2825.0,2895.0,3141.0,3047.0,0.779602,-0.002563,-0.625305,0.035217,-2.0,2.0,-1.0,7722.0,-406.0,1670.0,-263.0,-12.0,-115.0,56.0,-22.0,-280.0,0.974798,-0.04804,0.218007,15386.0,-908.0,3168.0,-38.0,66.0,-11.0
2881.0,2821.0,2893.0,3135.0,3039.0,0.779968,-0.002686,-0.624817,0.035095,0.0,2.0,-1.0,7630.0,-448.0,1643.0,-352.0,-54.0,-152.0,74.0,-68.0,-373.0,0.974486,-0.048045,0.219179,14886.0,-878.0,3302.0,12.0,61.0,-10.0
2883.0,2827.0,2895.0,3141.0,3043.0,0.78009,-0.002563,-0.624634,0.035156,0.0,1.0,-1.0,7582.0,-412.0,1643.0,-399.0,-19.0,-155.0,65.0,-35.0,-421.0,0.974361,-0.047919,0.219603,14942.0,-608.0,3280.0,18.0,38.0,-10.0
2881.0,2831.0,2896.0,3143.0,3043.0,0.780273,-0.002563,-0.624451,0.035034,-2.0,1.0,0.0,7635.0,-334.0,1658.0,-346.0,57.0,-145.0,63.0,42.0,-371.0,0.974305,-0.047755,0.220109,15474.0,-454.0,3316.0,-26.0,29.0,8.0
2881.0,2823.0,2895.0,3135.0,3107.0,0.780334,-0.002747,-0.62439,0.034851,-3.0,1.0,0.0,7671.0,-334.0,1664.0,-310.0,57.0,-140.0,66.0,44.0,-335.0,0.974274,-0.047808,0.220266,15552.0,-768.0,3328.0,-55.0,31.0,12.0
2879.0,2822.0,2894.0,3135.0,3043.0,0.780579,-0.003174,-0.624084,0.034729,-1.0,2.0,-1.0,7700.0,-429.0,1675.0,-279.0,-33.0,-135.0,72.0,-43.0,-300.0,0.974074,-0.048303,0.221018,15356.0,-1010.0,3390.0,-17.0,59.0,-9.0
2882.0,2830.0,2896.0,3141.0,3039.0,0.780823,-0.003174,-0.623779,0.034607,-1.0,2.0,-2.0,7692.0,-419.0,1701.0,-286.0,-24.0,-115.0,50.0,-36.0,-302.0,0.973902,-0.048131,0.221771,15352.0,-742.0,3584.0,-3.0,67.0,-27.0
2882.0,2831.0,2896.0,3141.0,3039.0,0.78125,-0.003052,-0.62323,0.034302,-1.0,2.0,-2.0,7670.0,-387.0,1733.0,-305.0,2.0,-94.0,24.0,-11.0,-318.0,0.973588,-0.047524,0.223103,15266.0,-628.0,3578.0,-7.0,63.0,-25.0
2879.0,2823.0,2894.0,3139.0,3049.0,0.781494,-0.002991,-0.622986,0.03418,-1.0,2.0,-1.0,7659.0,-369.0,1766.0,-316.0,18.0,-67.0,-5.0,2.0,-323.0,0.973515,-0.047261,0.223781,15222.0,-620.0,3714.0,-9.0,51.0,-20.0
2879.0,2823.0,2893.0,3135.0,3039.0,0.781799,-0.002991,-0.62262,0.033997,-1.0,1.0,-1.0,7658.0,-356.0,1825.0,-315.0,29.0,-15.0,-56.0,11.0,-311.0,0.973324,-0.04701,0.224702,15332.0,-636.0,3822.0,-6.0,35.0,-11.0
2879.0,2826.0,2895.0,3143.0,3043.0,0.781921,-0.00293,-0.622437,0.033875,-1.0,1.0,-1.0,7661.0,-333.0,1857.0,-311.0,49.0,12.0,-83.0,30.0,-302.0,0.973194,-0.046751,0.225113,15336.0,-534.0,3916.0,-9.0,33.0,-13.0
2879.0,2829.0,2899.0,3141.0,3039.0,0.782227,-0.003052,-0.62207,0.03363,-2.0,1.0,-1.0,7693.0,-295.0,1903.0,-277.0,86.0,51.0,-115.0,68.0,-262.0,0.972995,-0.046615,0.226029,15478.0,-504.0,3898.0,-32.0,29.0,-5.0
2881.0,2823.0,2895.0,3135.0,3043.0,0.782349,-0.003113,-0.621887,0.033447,-2.0,1.0,-1.0,7671.0,-304.0,1906.0,-298.0,76.0,51.0,-120.0,57.0,-281.0,0.972857,-0.046471,0.226435,15116.0,-688.0,3806.0,-33.0,28.0,-5.0
2882.0,2827.0,2895.0,3135.0,3039.0,0.782471,-0.003357,-0.621765,0.033264,-2.0,-1.0,0.0,7643.0,-317.0,1933.0,-326.0,64.0,75.0,-149.0,42.0,-303.0,0.972803,-0.046618,0.226764,15338.0,-672.0,3892.0,-29.0,-13.0,0.0
2883.0,2827.0,2896.0,3141.0,3039.0,0.782471,-0.003418,-0.621765,0.033142,-1.0,-1.0,-1.0,7636.0,-344.0,1935.0,-333.0,37.0,77.0,-151.0,15.0,-308.0,0.972799,-0.046562,0.226755,15162.0,-860.0,3844.0,-21.0,-14.0,-3.0
2882.0,2831.0,2896.0,3138.0,3043.0,0.782349,-0.003479,-0.621948,0.03302,-1.0,-2.0,-1.0,7694.0,-385.0,1929.0,-276.0,-3.0,74.0,-133.0,-21.0,-251.0,0.972931,-0.046517,0.226328,15736.0,-914.0,3888.0,-3.0,-29.0,-17.0
2881.0,2830.0,2895.0,3135.0,3039.0,0.782349,-0.003418,-0.621948,0.032959,0.0,-1.0,-2.0,7722.0,-400.0,1915.0,-248.0,-20.0,60.0,-113.0,-35.0,-226.0,0.972935,-0.046346,0.226324,15576.0,-870.0,3746.0,12.0,-6.0,-28.0
2881.0,2829.0,2891.0,3139.0,3039.0,0.78241,-0.003052,-0.621826,0.032837,0.0,0.0,-2.0,7688.0,-328.0,1885.0,-281.0,45.0,28.0,-92.0,28.0,-269.0,0.972845,-0.045613,0.226566,15198.0,-272.0,3692.0,12.0,8.0,-32.0
2882.0,2831.0,2895.0,3143.0,3039.0,0.782471,-0.00293,-0.621826,0.032593,-2.0,-1.0,-1.0,7655.0,-273.0,1878.0,-315.0,96.0,21.0,-95.0,77.0,-306.0,0.972931,-0.045119,0.226646,15116.0,-276.0,3704.0,-23.0,-2.0,-20.0
2883.0,2830.0,2893.0,3143.0,3047.0,0.782349,-0.003235,-0.621948,0.032227,-2.0,-2.0,0.0,7615.0,-306.0,1814.0,-355.0,63.0,-39.0,-44.0,44.0,-357.0,0.972952,-0.045148,0.226278,15100.0,-848.0,3400.0,-44.0,-26.0,5.0
2879.0,2828.0,2895.0,3139.0,3045.0,0.782227,-0.003357,-0.622131,0.032166,-1.0,-2.0,0.0,7622.0,-345.0,1790.0,-349.0,25.0,-60.0,-20.0,8.0,-354.0,0.973079,-0.045274,0.225854,15354.0,-910.0,3488.0,-22.0,-33.0,0.0
2879.0,2827.0,2894.0,3135.0,3039.0,0.782043,-0.003357,-0.622375,0.032166,0.0,-1.0,-1.0,7637.0,-364.0,1746.0,-335.0,7.0,-99.0,21.0,-7.0,-348.0,0.973233,-0.045289,0.225264,15228.0,-652.0,3396.0,9.0,-18.0,-8.0
2882.0,2829.0,2899.0,3142.0,3047.0,0.781982,-0.003296,-0.622498,0.032166,0.0,-2.0,-1.0,7658.0,-341.0,1737.0,-315.0,29.0,-106.0,31.0,15.0,-331.0,0.973352,-0.045201,0.225017,15520.0,-546.0,3452.0,3.0,-23.0,-5.0
2887.0,2829.0,2896.0,3137.0,3035.0,0.781921,-0.003235,-0.622559,0.032043,-1.0,0.0,0.0,7682.0,-300.0,1717.0,-291.0,68.0,-124.0,52.0,56.0,-314.0,0.973376,-0.044957,0.224838,15342.0,-490.0,3392.0,-9.0,3.0,4.0
2879.0,2823.0,2897.0,3135.0,3039.0,0.781921,-0.003235,-0.622559,0.031982,-1.0,0.0,0.0,7685.0,-295.0,1727.0,-288.0,72.0,-114.0,43.0,60.0,-309.0,0.973377,-0.044881,0.224834,15394.0,-582.0,3504.0,-13.0,7.0,4.0
2879.0,2826.0,2895.0,3131.0,3039.0,0.781921,-0.003357,-0.622498,0.031921,-1.0,0.0,0.0,7660.0,-324.0,1740.0,-313.0,44.0,-102.0,27.0,30.0,-329.0,0.973274,-0.044992,0.224906,15232.0,-758.0,3542.0,-11.0,1.0,0.0
2879.0,2823.0,2893.0,3139.0,3047.0,0.781921,-0.003357,-0.622498,0.03186,-1.0,-1.0,-1.0,7662.0,-326.0,1749.0,-311.0,41.0,-93.0,19.0,27.0,-325.0,0.973274,-0.044916,0.224902,15392.0,-660.0,3548.0,-8.0,-5.0,-6.0
2882.0,2831.0,2899.0,3135.0,3039.0,0.782043,-0.003357,-0.622437,0.031677,-1.0,1.0,-1.0,7702.0,-340.0,1754.0,-271.0,26.0,-90.0,25.0,14.0,-285.0,0.973332,-0.044685,0.225157,15262.0,-766.0,3384.0,-3.0,28.0,-18.0
2879.0,2826.0,2896.0,3139.0,3046.0,0.782043,-0.003235,-0.622375,0.031616,0.0,0.0,-1.0,7678.0,-357.0,1754.0,-294.0,6.0,-91.0,22.0,-6.0,-306.0,0.973245,-0.044414,0.22523,15194.0,-774.0,3552.0,18.0,17.0,-19.0
2879.0,2823.0,2895.0,3135.0,3045.0,0.782043,-0.002808,-0.622375,0.031799,2.0,-2.0,-1.0,7593.0,-323.0,1777.0,-380.0,37.0,-68.0,-20.0,19.0,-386.0,0.973271,-0.043974,0.225244,15006.0,-468.0,3678.0,46.0,-25.0,-10.0
2887.0,2831.0,2903.0,3143.0,3047.0,0.781982,-0.002563,-0.622498,0.03186,1.0,-2.0,-1.0,7605.0,-297.0,1803.0,-369.0,60.0,-40.0,-46.0,41.0,-370.0,0.973401,-0.043675,0.225002,15392.0,-432.0,3750.0,41.0,-43.0,-1.0
2878.0,2826.0,2896.0,3135.0,3050.0,0.78186,-0.002258,-0.62262,0.031982,0.0,-1.0,0.0,7666.0,-234.0,1824.0,-308.0,121.0,-16.0,-58.0,105.0,-308.0,0.973459,-0.043357,0.224668,15452.0,-288.0,3682.0,7.0,-16.0,15.0
2859.0,2822.0,2896.0,3139.0,3039.0,0.781799,-0.002319,-0.622681,0.031982,-1.0,-1.0,0.0,7696.0,-250.0,1825.0,-278.0,105.0,-14.0,-53.0,90.0,-278.0,0.973474,-0.043456,0.224496,15584.0,-714.0,3638.0,-11.0,-7.0,15.0
2887.0,2823.0,2896.0,3139.0,3050.0,0.78186,-0.002319,-0.62262,0.032227,2.0,0.0,-1.0,7693.0,-386.0,1774.0,-281.0,-27.0,-66.0,2.0,-39.0,-287.0,0.973454,-0.043757,0.224684,15312.0,-1148.0,3446.0,46.0,10.0,-1.0
2879.0,2830.0,2895.0,3151.0,3039.0,0.78186,-0.002014,-0.622559,0.032532,4.0,0.0,-1.0,7669.0,-434.0,1759.0,-304.0,-76.0,-82.0,15.0,-88.0,-311.0,0.973377,-0.043655,0.224781,15158.0,-1124.0,3418.0,94.0,10.0,-16.0
2879.0,2826.0,2897.0,3142.0,3045.0,0.781799,-0.000732,-0.62262,0.033447,8.0,-2.0,-2.0,7604.0,-473.0,1741.0,-370.0,-122.0,-99.0,20.0,-137.0,-377.0,0.973478,-0.042795,0.224673,15228.0,-922.0,3576.0,188.0,-28.0,-36.0
2883.0,2827.0,2891.0,3135.0,3039.0,0.781738,0.000305,-0.622681,0.033997,9.0,-1.0,-2.0,7622.0,-397.0,1770.0,-353.0,-54.0,-69.0,-8.0,-69.0,-356.0,0.973567,-0.041861,0.224539,15328.0,-152.0,3766.0,213.0,-15.0,-44.0
2881.0,2826.0,2895.0,3134.0,3037.0,0.781738,0.001953,-0.62262,0.034424,3.0,-1.0,-1.0,7671.0,-137.0,1846.0,-304.0,189.0,5.0,-83.0,172.0,-302.0,0.973586,-0.039812,0.224641,15680.0,334.0,3894.0,80.0,-19.0,-14.0
2882.0,2822.0,2896.0,3143.0,3047.0,0.781799,0.002258,-0.62262,0.034363,0.0,0.0,0.0,7721.0,-83.0,1864.0,-255.0,238.0,23.0,-92.0,223.0,-252.0,0.973682,-0.039259,0.224731,15716.0,68.0,3822.0,13.0,5.0,5.0
2879.0,2821.0,2895.0,3135.0,3039.0,0.78186,0.002197,-0.622498,0.034302,-2.0,0.0,0.0,7723.0,-81.0,1860.0,-252.0,240.0,17.0,-86.0,225.0,-250.0,0.973563,-0.03927,0.224974,15374.0,-226.0,3674.0,-35.0,15.0,21.0
2881.0,2827.0,2892.0,3138.0,3037.0,0.781921,0.001709,-0.622437,0.03418,-2.0,0.0,0.0,7676.0,-221.0,1836.0,-298.0,105.0,-8.0,-64.0,89.0,-296.0,0.97351,-0.039877,0.225139,15122.0,-954.0,3562.0,-24.0,2.0,20.0
2875.0,2827.0,2894.0,3139.0,3063.0,0.781921,0.001648,-0.622437,0.034302,0.0,-1.0,0.0,7644.0,-265.0,1833.0,-330.0,63.0,-11.0,-66.0,46.0,-326.0,0.973506,-0.040124,0.225148,15108.0,-700.0,3608.0,12.0,-12.0,16.0
2883.0,2821.0,2897.0,3139.0,3037.0,0.78186,0.00177,-0.622498,0.034424,0.0,-1.0,0.0,7670.0,-224.0,1827.0,-305.0,104.0,-16.0,-58.0,88.0,-304.0,0.973534,-0.04009,0.224984,15392.0,-262.0,3600.0,2.0,-6.0,10.0
2883.0,2826.0,2898.0,3135.0,3045.0,0.781799,0.001709,-0.622559,0.034424,-1.0,-1.0,0.0,7674.0,-228.0,1813.0,-301.0,101.0,-28.0,-45.0,86.0,-303.0,0.973549,-0.04019,0.224813,15404.0,-556.0,3512.0,-21.0,-8.0,17.0
2881.0,2823.0,2895.0,3143.0,3043.0,0.78186,0.001587,-0.622498,0.034546,1.0,1.0,0.0,7727.0,-323.0,1759.0,-248.0,9.0,-84.0,26.0,0.0,-260.0,0.973522,-0.040528,0.224993,15476.0,-880.0,3352.0,25.0,27.0,4.0
2881.0,2827.0,2900.0,3135.0,3031.0,0.781921,0.001709,-0.622437,0.034668,1.0,1.0,0.0,7714.0,-313.0,1746.0,-261.0,18.0,-98.0,36.0,8.0,-276.0,0.973511,-0.040485,0.225173,15344.0,-452.0,3456.0,42.0,33.0,0.0
2883.0,2827.0,2895.0,3135.0,3047.0,0.782043,0.001892,-0.622192,0.03479,0.0,0.0,0.0,7643.0,-267.0,1728.0,-330.0,63.0,-120.0,39.0,51.0,-350.0,0.973295,-0.040333,0.225675,15108.0,-512.0,3404.0,1.0,14.0,14.0
2879.0,2831.0,2896.0,3142.0,3039.0,0.782043,0.001831,-0.622253,0.034851,-1.0,-1.0,0.0,7633.0,-277.0,1726.0,-340.0,54.0,-122.0,39.0,41.0,-360.0,0.973386,-0.040508,0.225604,15266.0,-604.0,3424.0,0.0,-1.0,20.0
2883.0,2831.0,2897.0,3142.0,3046.0,0.781982,0.00177,-0.622314,0.034973,-1.0,-1.0,1.0,7600.0,-266.0,1732.0,-374.0,67.0,-114.0,23.0,52.0,-392.0,0.973402,-0.04076,0.225441,15064.0,-530.0,3470.0,-9.0,-21.0,26.0
2879.0,2829.0,2897.0,3139.0,3039.0,0.78186,0.001587,-0.622437,0.035095,-1.0,-2.0,1.0,7606.0,-285.0,1740.0,-368.0,52.0,-104.0,16.0,37.0,-383.0,0.973428,-0.041208,0.225108,15308.0,-720.0,3532.0,-13.0,-42.0,35.0
2871.0,2819.0,2895.0,3135.0,3047.0,0.781616,0.001404,-0.622742,0.0354,0.0,-1.0,1.0,7680.0,-321.0,1741.0,-295.0,22.0,-97.0,27.0,10.0,-309.0,0.973589,-0.041896,0.224368,15628.0,-618.0,3490.0,13.0,-18.0,25.0
2883.0,2827.0,2895.0,3187.0,3039.0,0.781616,0.001404,-0.622742,0.035461,0.0,0.0,0.0,7712.0,-291.0,1745.0,-263.0,52.0,-93.0,29.0,42.0,-279.0,0.97359,-0.041972,0.224372,15538.0,-386.0,3486.0,6.0,13.0,22.0
2884.0,2823.0,2895.0,3146.0,3039.0,0.781738,0.001099,-0.622559,0.035522,-2.0,1.0,1.0,7684.0,-311.0,1741.0,-290.0,37.0,-100.0,30.0,25.0,-306.0,0.973434,-0.042512,0.224796,15170.0,-872.0,3460.0,-31.0,26.0,25.0
2878.0,2827.0,2903.0,3151.0,3035.0,0.781799,0.000854,-0.622498,0.035583,-1.0,0.0,0.0,7636.0,-369.0,1731.0,-338.0,-17.0,-111.0,33.0,-30.0,-353.0,0.973397,-0.042965,0.224972,14992.0,-1084.0,3452.0,-12.0,12.0,19.0
2887.0,2829.0,2894.0,3143.0,3046.0,0.781738,0.000854,-0.622559,0.035889,1.0,-1.0,0.0,7633.0,-375.0,1760.0,-341.0,-19.0,-81.0,4.0,-33.0,-349.0,0.973417,-0.04335,0.224823,15332.0,-488.0,3544.0,28.0,-4.0,10.0
2881.0,2823.0,2893.0,3135.0,3039.0,0.781738,0.000916,-0.622559,0.03595,0.0,-1.0,0.0,7647.0,-330.0,1771.0,-327.0,24.0,-70.0,-5.0,9.0,-335.0,0.973422,-0.04333,0.224827,15404.0,-404.0,3610.0,2.0,-4.0,14.0
2881.0,2827.0,2891.0,3135.0,3043.0,0.78186,0.000671,-0.622437,0.035889,-2.0,0.0,0.0,7680.0,-322.0,1788.0,-293.0,35.0,-56.0,-12.0,21.0,-299.0,0.973365,-0.043627,0.225166,15300.0,-690.0,3592.0,-26.0,18.0,16.0
2881.0,2831.0,2893.0,3135.0,3043.0,0.78186,0.000488,-0.622375,0.035889,-1.0,0.0,0.0,7682.0,-357.0,1786.0,-290.0,2.0,-59.0,-7.0,-11.0,-295.0,0.973256,-0.043909,0.225242,15428.0,-962.0,3590.0,-19.0,10.0,12.0
2881.0,2829.0,2891.0,3135.0,3039.0,0.781982,0.000427,-0.622253,0.036072,1.0,0.0,0.0,7643.0,-396.0,1793.0,-329.0,-33.0,-55.0,-17.0,-48.0,-331.0,0.973213,-0.044223,0.225598,15008.0,-714.0,3636.0,25.0,10.0,4.0
2890.0,2831.0,2895.0,3135.0,3043.0,0.781982,0.000549,-0.622253,0.036133,0.0,-1.0,0.0,7642.0,-351.0,1812.0,-330.0,10.0,-36.0,-39.0,-6.0,-329.0,0.973222,-0.044108,0.225602,15384.0,-410.0,3746.0,17.0,-15.0,4.0
2883.0,2826.0,2896.0,3135.0,3039.0,0.781982,0.000549,-0.622253,0.036011,-1.0,0.0,0.0,7694.0,-307.0,1829.0,-278.0,53.0,-19.0,-46.0,38.0,-277.0,0.973222,-0.043957,0.225594,15394.0,-600.0,3644.0,-17.0,10.0,1.0
2887.0,2827.0,2897.0,3139.0,3037.0,0.782043,0.000488,-0.622192,0.03595,-1.0,0.0,0.0,7693.0,-311.0,1827.0,-279.0,49.0,-22.0,-43.0,34.0,-278.0,0.973198,-0.043972,0.225761,15450.0,-656.0,3738.0,-11.0,5.0,1.0
2875.0,2823.0,2903.0,3147.0,3051.0,0.782104,0.000549,-0.62207,0.036011,0.0,0.0,0.0,7656.0,-301.0,1824.0,-315.0,58.0,-27.0,-47.0,41.0,-315.0,0.973088,-0.043943,0.226012,15142.0,-492.0,3652.0,2.0,1.0,6.0
2882.0,2829.0,2894.0,3135.0,3039.0,0.782104,0.000549,-0.622131,0.036011,-1.0,-1.0,0.0,7637.0,-298.0,1819.0,-335.0,62.0,-31.0,-48.0,44.0,-335.0,0.973183,-0.043948,0.225936,15162.0,-594.0,3608.0,-2.0,-14.0,11.0
2881.0,2831.0,2890.0,3147.0,3045.0,0.781982,0.000427,-0.622253,0.036072,0.0,-1.0,0.0,7669.0,-318.0,1821.0,-303.0,44.0,-27.0,-43.0,28.0,-302.0,0.973213,-0.044223,0.225598,15412.0,-750.0,3634.0,1.0,-17.0,12.0
2883.0,2823.0,2909.0,3135.0,3031.0,0.781921,0.000427,-0.622314,0.036194,0.0,-1.0,0.0,7664.0,-343.0,1808.0,-308.0,20.0,-38.0,-32.0,4.0,-309.0,0.973233,-0.04438,0.225436,15310.0,-848.0,3552.0,9.0,-17.0,11.0
2885.0,2831.0,2891.0,3135.0,3039.0,0.781799,0.00061,-0.622437,0.036377,1.0,-1.0,-1.0,7676.0,-372.0,1791.0,-297.0,-8.0,-53.0,-14.0,-22.0,-300.0,0.973285,-0.04433,0.225106,15362.0,-758.0,3528.0,35.0,-8.0,-4.0
2885.0,2829.0,2899.0,3135.0,3043.0,0.781799,0.000732,-0.622437,0.036499,1.0,-1.0,-1.0,7669.0,-355.0,1787.0,-304.0,7.0,-57.0,-12.0,-7.0,-309.0,0.973294,-0.044291,0.225115,15312.0,-594.0,3554.0,32.0,-12.0,-4.0
2878.0,2823.0,2895.0,3142.0,3035.0,0.781738,0.000916,-0.622559,0.03656,0.0,-1.0,0.0,7680.0,-326.0,1767.0,-294.0,35.0,-75.0,5.0,21.0,-304.0,0.973423,-0.04409,0.224871,15402.0,-524.0,3472.0,9.0,-4.0,2.0
2879.0,2827.0,2891.0,3143.0,3026.0,0.781738,0.000977,-0.622559,0.03656,-1.0,0.0,-1.0,7669.0,-318.0,1758.0,-305.0,42.0,-84.0,11.0,28.0,-317.0,0.973427,-0.043995,0.224871,15234.0,-614.0,3462.0,-1.0,1.0,-1.0
2879.0,2831.0,2896.0,3139.0,3051.0,0.781677,0.000977,-0.622559,0.036499,-1.0,-1.0,0.0,7660.0,-315.0,1752.0,-313.0,44.0,-89.0,14.0,30.0,-326.0,0.973351,-0.043919,0.224771,15306.0,-580.0,3466.0,-2.0,-6.0,0.0
2883.0,2829.0,2896.0,3143.0,3039.0,0.781677,0.000916,-0.622559,0.036438,-1.0,0.0,0.0,7668.0,-309.0,1737.0,-305.0,50.0,-104.0,30.0,37.0,-322.0,0.973346,-0.043938,0.224767,15230.0,-712.0,3362.0,-12.0,12.0,5.0
2879.0,2827.0,2903.0,3143.0,3039.0,0.781677,0.000854,-0.622559,0.036438,-1.0,0.0,0.0,7648.0,-330.0,1724.0,-325.0,30.0,-117.0,39.0,17.0,-343.0,0.973342,-0.044034,0.224767,15210.0,-782.0,3402.0,-4.0,6.0,7.0
2877.0,2819.0,2896.0,3143.0,3046.0,0.781677,0.000916,-0.62262,0.03656,0.0,-1.0,-1.0,7646.0,-356.0,1740.0,-328.0,5.0,-100.0,24.0,-8.0,-341.0,0.973442,-0.044095,0.2247,15272.0,-780.0,3488.0,17.0,-3.0,-2.0
2877.0,2829.0,2898.0,3141.0,3039.0,0.781677,0.000977,-0.62262,0.036621,1.0,-1.0,-1.0,7645.0,-364.0,1756.0,-329.0,-2.0,-84.0,8.0,-16.0,-339.0,0.973447,-0.044075,0.224704,15270.0,-732.0,3602.0,27.0,-6.0,-3.0
2881.0,2831.0,2896.0,3135.0,3039.0,0.781616,0.001221,-0.622681,0.036743,0.0,-2.0,0.0,7632.0,-321.0,1800.0,-342.0,38.0,-39.0,-40.0,20.0,-343.0,0.973484,-0.04385,0.224541,15300.0,-562.0,3744.0,8.0,-24.0,4.0
2881.0,2823.0,2893.0,3143.0,3031.0,0.781555,0.001221,-0.622742,0.036804,0.0,-2.0,0.0,7652.0,-332.0,1815.0,-322.0,27.0,-23.0,-50.0,9.0,-319.0,0.973504,-0.043931,0.224374,15430.0,-788.0,3692.0,1.0,-26.0,6.0
2887.0,2825.0,2893.0,3135.0,3047.0,0.781494,0.001282,-0.622803,0.036804,0.0,-1.0,-1.0,7715.0,-301.0,1839.0,-260.0,58.0,2.0,-62.0,43.0,-255.0,0.973528,-0.04384,0.224203,15610.0,-428.0,3762.0,1.0,0.0,-11.0
2879.0,2826.0,2897.0,3135.0,3039.0,0.781555,0.001343,-0.622742,0.036621,-1.0,0.0,-1.0,7737.0,-291.0,1845.0,-238.0,65.0,7.0,-63.0,51.0,-232.0,0.973512,-0.043512,0.224361,15538.0,-572.0,3696.0,-19.0,19.0,-14.0
2883.0,2831.0,2897.0,3139.0,3039.0,0.781738,0.001343,-0.622559,0.036499,0.0,0.0,-1.0,7688.0,-328.0,1827.0,-286.0,27.0,-15.0,-50.0,11.0,-282.0,0.973454,-0.043346,0.224866,15312.0,-736.0,3598.0,1.0,10.0,-12.0
2883.0,2823.0,2895.0,3139.0,3031.0,0.781799,0.001404,-0.622498,0.036499,0.0,0.0,-1.0,7653.0,-321.0,1814.0,-321.0,33.0,-29.0,-45.0,16.0,-320.0,0.973439,-0.043246,0.225037,15042.0,-566.0,3560.0,19.0,9.0,-14.0
2883.0,2823.0,2890.0,3135.0,3039.0,0.781677,0.001709,-0.62262,0.03656,0.0,-2.0,0.0,7585.0,-271.0,1805.0,-389.0,80.0,-35.0,-57.0,60.0,-389.0,0.9735,-0.042854,0.224698,15162.0,-272.0,3618.0,21.0,-44.0,5.0
2886.0,2829.0,2895.0,3135.0,3043.0,0.781494,0.00177,-0.622803,0.03656,-1.0,-3.0,0.0,7632.0,-242.0,1805.0,-343.0,108.0,-31.0,-52.0,90.0,-345.0,0.973563,-0.042773,0.224183,15588.0,-344.0,3612.0,-7.0,-47.0,12.0
2883.0,2829.0,2889.0,3143.0,3035.0,0.78125,0.001465,-0.623108,0.036499,-2.0,-2.0,1.0,7657.0,-269.0,1766.0,-319.0,84.0,-64.0,-13.0,69.0,-328.0,0.973713,-0.043197,0.223418,15378.0,-688.0,3432.0,-29.0,-32.0,30.0
2879.0,2821.0,2890.0,3135.0,3038.0,0.781189,0.001282,-0.62323,0.03656,-2.0,-1.0,0.0,7712.0,-289.0,1760.0,-265.0,67.0,-68.0,3.0,55.0,-276.0,0.973814,-0.043568,0.223176,15800.0,-688.0,3516.0,-25.0,-20.0,22.0
2883.0,2815.0,2893.0,3131.0,3043.0,0.78125,0.001038,-0.623169,0.036499,-1.0,1.0,0.0,7716.0,-357.0,1731.0,-261.0,2.0,-98.0,37.0,-7.0,-276.0,0.973777,-0.043869,0.223343,15182.0,-926.0,3438.0,-12.0,26.0,3.0
2879.0,2823.0,2897.0,3141.0,3051.0,0.78125,0.000977,-0.623108,0.036499,0.0,0.0,-1.0,7660.0,-391.0,1729.0,-316.0,-30.0,-101.0,30.0,-42.0,-328.0,0.973677,-0.04396,0.223419,14966.0,-1004.0,3450.0,4.0,12.0,-10.0
2879.0,2823.0,2896.0,3139.0,3045.0,0.78125,0.001282,-0.623169,0.036621,1.0,-1.0,-1.0,7613.0,-411.0,1763.0,-364.0,-53.0,-66.0,-12.0,-69.0,-366.0,0.973795,-0.04364,0.223351,15132.0,-752.0,3622.0,42.0,-21.0,-22.0
2883.0,2827.0,2898.0,3151.0,3039.0,0.781128,0.001526,-0.62323,0.036743,1.0,-2.0,-1.0,7614.0,-372.0,1774.0,-363.0,-16.0,-53.0,-27.0,-33.0,-364.0,0.973757,-0.043415,0.223093,15304.0,-456.0,3598.0,45.0,-38.0,-16.0
2881.0,2821.0,2893.0,3135.0,3043.0,0.780945,0.001953,-0.623474,0.036743,0.0,-1.0,-1.0,7715.0,-294.0,1793.0,-263.0,56.0,-29.0,-32.0,42.0,-264.0,0.973941,-0.042766,0.222501,15686.0,-456.0,3514.0,12.0,-16.0,-4.0
2882.0,2827.0,2895.0,3135.0,3039.0,0.780945,0.002014,-0.623474,0.036743,0.0,0.0,0.0,7736.0,-284.0,1787.0,-242.0,65.0,-35.0,-23.0,53.0,-246.0,0.973946,-0.042671,0.222501,15544.0,-536.0,3532.0,8.0,4.0,0.0
2883.0,2827.0,2899.0,3135.0,3039.0,0.781067,0.002136,-0.623352,0.036743,0.0,1.0,0.0,7718.0,-287.0,1774.0,-260.0,60.0,-51.0,-11.0,48.0,-267.0,0.973916,-0.042471,0.222843,15232.0,-588.0,3508.0,13.0,29.0,0.0
2885.0,2829.0,2895.0,3139.0,3039.0,0.781189,0.002197,-0.62323,0.036804,0.0,0.0,0.0,7656.0,-285.0,1761.0,-322.0,62.0,-67.0,-9.0,47.0,-331.0,0.973882,-0.042442,0.22319,14896.0,-538.0,3402.0,8.0,13.0,7.0
2879.0,2820.0,2895.0,3135.0,3039.0,0.781006,0.002197,-0.623413,0.036926,0.0,-1.0,0.0,7646.0,-305.0,1750.0,-332.0,44.0,-74.0,-3.0,29.0,-341.0,0.973941,-0.042608,0.222685,15394.0,-660.0,3438.0,17.0,-22.0,9.0
2879.0,2827.0,2898.0,3139.0,3039.0,0.780945,0.002258,-0.623474,0.036987,0.0,-1.0,0.0,7635.0,-293.0,1733.0,-343.0,55.0,-89.0,7.0,40.0,-356.0,0.973965,-0.042594,0.222518,15154.0,-464.0,3370.0,21.0,-20.0,14.0
2859.0,2819.0,2890.0,3139.0,3039.0,0.780701,0.002258,-0.623779,0.037109,0.0,-2.0,0.0,7671.0,-270.0,1730.0,-309.0,80.0,-86.0,11.0,67.0,-323.0,0.974137,-0.04277,0.221765,15598.0,-496.0,3434.0,1.0,-29.0,16.0
2882.0,2823.0,2887.0,3135.0,3039.0,0.78064,0.002197,-0.62384,0.03717,-1.0,-1.0,0.0,7702.0,-264.0,1721.0,-278.0,87.0,-94.0,25.0,76.0,-295.0,0.974152,-0.042946,0.221598,15546.0,-480.0,3350.0,-12.0,-6.0,17.0
2879.0,2820.0,2887.0,3143.0,3035.0,0.780701,0.002014,-0.623779,0.037048,-1.0,1.0,0.0,7742.0,-295.0,1693.0,-237.0,57.0,-123.0,64.0,49.0,-260.0,0.974119,-0.043075,0.221761,15590.0,-712.0,3362.0,-18.0,34.0,10.0
2883.0,2831.0,2891.0,3141.0,3039.0,0.780823,0.001953,-0.623596,0.037048,-1.0,2.0,0.0,7717.0,-307.0,1681.0,-261.0,46.0,-139.0,75.0,38.0,-287.0,0.973981,-0.043156,0.222181,15216.0,-684.0,3286.0,-8.0,54.0,6.0
2882.0,2827.0,2893.0,3141.0,3035.0,0.781006,0.001892,-0.623352,0.037231,0.0,0.0,0.0,7640.0,-343.0,1700.0,-337.0,13.0,-125.0,46.0,0.0,-356.0,0.973824,-0.043461,0.222785,15262.0,-776.0,3566.0,21.0,18.0,9.0
2879.0,2823.0,2894.0,3135.0,3043.0,0.781128,0.002014,-0.623291,0.037354,1.0,1.0,0.0,7644.0,-340.0,1714.0,-334.0,15.0,-113.0,35.0,1.0,-351.0,0.973891,-0.043418,0.22306,15300.0,-620.0,3520.0,39.0,24.0,3.0
2884.0,2815.0,2895.0,3135.0,3039.0,0.781311,0.002319,-0.623047,0.037598,1.0,1.0,0.0,7650.0,-286.0,1754.0,-327.0,68.0,-78.0,0.0,53.0,-338.0,0.973761,-0.043226,0.223668,15322.0,-338.0,3610.0,30.0,25.0,8.0
2881.0,2826.0,2896.0,3141.0,3035.0,0.781372,0.00238,-0.622925,0.037659,0.0,0.0,0.0,7640.0,-248.0,1764.0,-336.0,105.0,-70.0,-12.0,89.0,-347.0,0.973651,-0.043197,0.223919,15170.0,-280.0,3514.0,7.0,21.0,19.0
2887.0,2827.0,2891.0,3147.0,3047.0,0.781433,0.002136,-0.622864,0.03772,-2.0,-1.0,1.0,7611.0,-259.0,1802.0,-364.0,98.0,-33.0,-54.0,78.0,-366.0,0.973614,-0.04365,0.224097,15226.0,-682.0,3732.0,-28.0,-17.0,38.0
2882.0,2823.0,2883.0,3139.0,3045.0,0.781311,0.001953,-0.622925,0.037781,-1.0,-2.0,1.0,7643.0,-296.0,1823.0,-332.0,64.0,-10.0,-67.0,45.0,-328.0,0.973544,-0.044017,0.223835,15528.0,-840.0,3780.0,-18.0,-27.0,32.0
2881.0,2827.0,2893.0,3131.0,3055.0,0.781372,0.00177,-0.622925,0.038025,0.0,0.0,0.0,7718.0,-335.0,1856.0,-257.0,30.0,21.0,-79.0,14.0,-246.0,0.973607,-0.044607,0.22395,15596.0,-726.0,3778.0,10.0,4.0,10.0
2879.0,2822.0,2899.0,3143.0,3039.0,0.781433,0.001831,-0.622864,0.038086,0.0,0.0,0.0,7721.0,-344.0,1863.0,-254.0,21.0,26.0,-82.0,5.0,-242.0,0.973592,-0.044583,0.224126,15456.0,-738.0,3776.0,13.0,13.0,5.0
2883.0,2823.0,2897.0,3135.0,3037.0,0.781616,0.001892,-0.622559,0.038147,0.0,0.0,-1.0,7684.0,-358.0,1872.0,-289.0,6.0,30.0,-93.0,-12.0,-274.0,0.973348,-0.04454,0.224796,15038.0,-802.0,3694.0,7.0,18.0,-1.0
2891.0,2827.0,2883.0,3142.0,3007.0,0.781616,0.001892,-0.622559,0.038208,0.0,-1.0,0.0,7641.0,-371.0,1865.0,-332.0,-5.0,23.0,-95.0,-25.0,-317.0,0.973348,-0.044616,0.224801,15060.0,-814.0,3706.0,11.0,-11.0,2.0
2879.0,2827.0,2896.0,3127.0,3039.0,0.781494,0.002014,-0.622742,0.038452,1.0,-2.0,0.0,7634.0,-403.0,1851.0,-340.0,-36.0,12.0,-84.0,-56.0,-326.0,0.973493,-0.044743,0.2244,15330.0,-906.0,3704.0,32.0,-38.0,2.0
2883.0,2829.0,2896.0,3147.0,3043.0,0.781372,0.002197,-0.622864,0.038574,1.0,-2.0,0.0,7641.0,-381.0,1854.0,-334.0,-15.0,18.0,-90.0,-35.0,-320.0,0.973546,-0.044619,0.224066,15280.0,-532.0,3710.0,38.0,-35.0,1.0
2883.0,2831.0,2896.0,3134.0,3035.0,0.781189,0.002319,-0.623108,0.038513,-1.0,-2.0,0.0,7679.0,-320.0,1849.0,-297.0,43.0,18.0,-85.0,24.0,-287.0,0.973709,-0.044372,0.223471,15556.0,-666.0,3632.0,-19.0,-39.0,1.0
2882.0,2815.0,2898.0,3139.0,3047.0,0.781067,0.002197,-0.62323,0.038452,-1.0,-1.0,0.0,7710.0,-328.0,1829.0,-266.0,36.0,1.0,-61.0,20.0,-260.0,0.973738,-0.044497,0.223124,15562.0,-678.0,3552.0,-21.0,-17.0,1.0
2883.0,2827.0,2894.0,3135.0,3039.0,0.781189,0.002075,-0.623108,0.038208,-2.0,0.0,-1.0,7689.0,-320.0,1793.0,-287.0,43.0,-37.0,-29.0,28.0,-289.0,0.973689,-0.044373,0.223448,15092.0,-676.0,3422.0,-31.0,20.0,-4.0
2870.0,2832.0,2897.0,3139.0,3031.0,0.781189,0.001953,-0.623108,0.038147,-2.0,-1.0,0.0,7643.0,-342.0,1780.0,-333.0,22.0,-50.0,-26.0,5.0,-336.0,0.973679,-0.044488,0.223444,15040.0,-850.0,3528.0,-26.0,-2.0,1.0
2883.0,2826.0,2893.0,3142.0,3047.0,0.781006,0.001831,-0.623291,0.038208,0.0,-2.0,0.0,7610.0,-365.0,1760.0,-366.0,1.0,-66.0,-16.0,-16.0,-371.0,0.973728,-0.044769,0.222935,15208.0,-710.0,3508.0,6.0,-33.0,8.0
2887.0,2825.0,2887.0,3135.0,3027.0,0.780945,0.001831,-0.623474,0.038269,0.0,-2.0,0.0,7627.0,-354.0,1762.0,-351.0,13.0,-61.0,-18.0,-4.0,-356.0,0.973938,-0.04486,0.222616,15388.0,-644.0,3532.0,10.0,-33.0,6.0
2879.0,2815.0,2895.0,3135.0,3035.0,0.780762,0.001953,-0.623596,0.038269,0.0,-1.0,-1.0,7676.0,-324.0,1761.0,-302.0,42.0,-59.0,-11.0,27.0,-309.0,0.97391,-0.044679,0.222177,15396.0,-476.0,3506.0,7.0,-10.0,-3.0
2881.0,2829.0,2895.0,3147.0,3039.0,0.780762,0.002014,-0.623657,0.038208,-1.0,-1.0,-1.0,7701.0,-313.0,1760.0,-278.0,51.0,-59.0,-6.0,37.0,-286.0,0.974009,-0.044512,0.222096,15630.0,-626.0,3534.0,-10.0,-10.0,-7.0
2879.0,2828.0,2895.0,3135.0,3045.0,0.780823,0.002014,-0.623596,0.038086,-1.0,0.0,-1.0,7703.0,-328.0,1761.0,-275.0,35.0,-59.0,-5.0,22.0,-282.0,0.97399,-0.044355,0.222258,15266.0,-556.0,3530.0,-3.0,11.0,-9.0
2879.0,2819.0,2898.0,3141.0,3039.0,0.780823,0.002014,-0.623596,0.037964,-1.0,0.0,-1.0,7688.0,-316.0,1771.0,-290.0,46.0,-49.0,-18.0,31.0,-295.0,0.973989,-0.044203,0.222249,15272.0,-594.0,3612.0,-15.0,6.0,-11.0
2882.0,2823.0,2887.0,3135.0,3045.0,0.780884,0.001953,-0.623535,0.03772,-2.0,0.0,-1.0,7688.0,-301.0,1770.0,-290.0,59.0,-51.0,-17.0,45.0,-296.0,0.973964,-0.043989,0.222402,15402.0,-548.0,3484.0,-30.0,2.0,-9.0
2885.0,2827.0,2895.0,3135.0,3043.0,0.780884,0.001831,-0.623535,0.037537,-2.0,0.0,-1.0,7662.0,-316.0,1756.0,-316.0,44.0,-65.0,-8.0,29.0,-324.0,0.973954,-0.043951,0.222389,15128.0,-728.0,3400.0,-27.0,4.0,-12.0
2881.0,2829.0,2895.0,3143.0,3045.0,0.780823,0.001831,-0.623657,0.037415,-1.0,-1.0,-1.0,7651.0,-324.0,1744.0,-328.0,34.0,-75.0,0.0,19.0,-337.0,0.974069,-0.043808,0.222132,15322.0,-662.0,3460.0,-5.0,-15.0,-10.0
2887.0,2821.0,2891.0,3135.0,3045.0,0.780762,0.001831,-0.623718,0.037354,-1.0,-1.0,-1.0,7674.0,-316.0,1739.0,-305.0,42.0,-79.0,7.0,28.0,-316.0,0.974087,-0.043737,0.221956,15532.0,-560.0,3458.0,-5.0,-15.0,-7.0
2877.0,2819.0,2896.0,3143.0,3039.0,0.780762,0.001831,-0.623718,0.03717,-1.0,0.0,-1.0,7696.0,-295.0,1722.0,-283.0,61.0,-96.0,27.0,49.0,-299.0,0.974087,-0.043508,0.221943,15438.0,-562.0,3404.0,-22.0,12.0,-7.0
2880.0,2827.0,2896.0,3135.0,3039.0,0.780823,0.00177,-0.623657,0.037048,-2.0,1.0,-1.0,7722.0,-302.0,1714.0,-257.0,53.0,-105.0,42.0,43.0,-275.0,0.974063,-0.043447,0.222105,15634.0,-676.0,3388.0,-23.0,25.0,-9.0
2883.0,2823.0,2895.0,3143.0,3045.0,0.781067,0.001709,-0.623352,0.036743,-1.0,2.0,-1.0,7711.0,-330.0,1696.0,-267.0,23.0,-129.0,65.0,14.0,-289.0,0.973885,-0.043138,0.222845,15218.0,-782.0,3336.0,-17.0,58.0,-20.0
2879.0,2819.0,2893.0,3139.0,3039.0,0.78125,0.001709,-0.623169,0.036682,-1.0,1.0,-1.0,7658.0,-352.0,1685.0,-319.0,0.0,-144.0,69.0,-10.0,-342.0,0.973827,-0.043048,0.223355,14996.0,-844.0,3334.0,-4.0,45.0,-21.0
2883.0,2823.0,2895.0,3135.0,3037.0,0.781311,0.001892,-0.623047,0.036682,1.0,-1.0,-1.0,7585.0,-357.0,1705.0,-391.0,-6.0,-126.0,36.0,-21.0,-408.0,0.973726,-0.042753,0.223602,15026.0,-638.0,3530.0,26.0,-3.0,-7.0
2879.0,2827.0,2895.0,3143.0,3047.0,0.78125,0.002014,-0.623108,0.036804,1.0,-2.0,0.0,7581.0,-332.0,1725.0,-395.0,17.0,-105.0,14.0,0.0,-408.0,0.973754,-0.042719,0.223439,15192.0,-506.0,3586.0,30.0,-29.0,0.0
2881.0,2827.0,2895.0,3135.0,3043.0,0.781067,0.002197,-0.623352,0.036865,0.0,-1.0,-1.0,7677.0,-300.0,1776.0,-301.0,48.0,-49.0,-21.0,33.0,-306.0,0.973921,-0.042528,0.222852,15680.0,-572.0,3692.0,11.0,-21.0,-1.0
2879.0,2823.0,2894.0,3139.0,3031.0,0.781067,0.002258,-0.623352,0.036865,0.0,-1.0,-1.0,7703.0,-294.0,1782.0,-275.0,53.0,-43.0,-21.0,39.0,-279.0,0.973926,-0.042432,0.222852,15486.0,-538.0,3580.0,6.0,0.0,-3.0
2881.0,2829.0,2893.0,3141.0,3031.0,0.781128,0.002319,-0.623291,0.036743,-1.0,-1.0,0.0,7698.0,-269.0,1817.0,-280.0,76.0,-9.0,-57.0,60.0,-277.0,0.97391,-0.04218,0.223014,15378.0,-522.0,3734.0,-14.0,-1.0,0.0
2883.0,2825.0,2893.0,3139.0,3039.0,0.781128,0.002258,-0.62323,0.036682,-1.0,-1.0,0.0,7692.0,-284.0,1827.0,-285.0,61.0,0.0,-66.0,45.0,-280.0,0.97381,-0.042195,0.223086,15342.0,-674.0,3726.0,-18.0,-4.0,0.0
2879.0,2829.0,2895.0,3142.0,3043.0,0.781128,0.002258,-0.62323,0.036682,0.0,-1.0,-1.0,7638.0,-314.0,1820.0,-339.0,31.0,-7.0,-69.0,12.0,-332.0,0.97381,-0.042195,0.223086,15082.0,-618.0,3606.0,15.0,-15.0,-3.0
2881.0,2823.0,2895.0,3135.0,3043.0,0.781067,0.00238,-0.623352,0.036743,0.0,-2.0,0.0,7619.0,-302.0,1824.0,-359.0,42.0,-1.0,-80.0,22.0,-351.0,0.973934,-0.042089,0.222842,15158.0,-516.0,3656.0,18.0,-34.0,2.0
2884.0,2823.0,2895.0,3135.0,3039.0,0.780823,0.002441,-0.623657,0.036804,-1.0,-3.0,0.0,7643.0,-279.0,1825.0,-336.0,65.0,5.0,-82.0,46.0,-328.0,0.974111,-0.042094,0.222084,15462.0,-538.0,3628.0,0.0,-49.0,9.0
2882.0,2827.0,2894.0,3143.0,3043.0,0.780701,0.002441,-0.62384,0.036804,-1.0,-2.0,0.0,7690.0,-293.0,1821.0,-291.0,51.0,5.0,-71.0,34.0,-284.0,0.974245,-0.042108,0.221665,15658.0,-678.0,3578.0,-2.0,-36.0,10.0
2887.0,2827.0,2896.0,3139.0,3015.0,0.780579,0.002441,-0.623901,0.036926,0.0,-1.0,0.0,7699.0,-321.0,1793.0,-281.0,25.0,-20.0,-43.0,10.0,-279.0,0.974188,-0.042265,0.221408,15350.0,-686.0,3560.0,14.0,-8.0,1.0
2879.0,2823.0,2895.0,3135.0,3039.0,0.780579,0.002563,-0.623962,0.036987,0.0,-1.0,-1.0,7696.0,-315.0,1785.0,-285.0,30.0,-28.0,-36.0,15.0,-285.0,0.974293,-0.042155,0.221335,15370.0,-558.0,3518.0,15.0,-9.0,-3.0
2881.0,2823.0,2896.0,3135.0,3031.0,0.780518,0.002625,-0.624023,0.036926,-1.0,-1.0,-1.0,7654.0,-297.0,1756.0,-327.0,46.0,-55.0,-20.0,30.0,-332.0,0.974316,-0.041989,0.221159,15192.0,-562.0,3490.0,-10.0,-17.0,-3.0
2885.0,2827.0,2895.0,3139.0,3027.0,0.780457,0.002563,-0.624146,0.036804,-1.0,-2.0,-1.0,7663.0,-310.0,1742.0,-319.0,33.0,-67.0,-6.0,18.0,-327.0,0.974426,-0.041941,0.220903,15400.0,-708.0,3406.0,-16.0,-23.0,-3.0
2883.0,2831.0,2898.0,3135.0,3047.0,0.780334,0.002502,-0.624268,0.036743,-1.0,-1.0,0.0,7673.0,-308.0,1721.0,-309.0,35.0,-85.0,13.0,22.0,-321.0,0.974459,-0.04197,0.220556,15356.0,-654.0,3386.0,-12.0,-9.0,4.0
2879.0,2823.0,2895.0,3135.0,3039.0,0.780273,0.002441,-0.624329,0.036743,-1.0,-1.0,0.0,7674.0,-317.0,1712.0,-308.0,27.0,-93.0,21.0,14.0,-321.0,0.974473,-0.04207,0.220385,15388.0,-682.0,3362.0,-7.0,-10.0,5.0
2881.0,2822.0,2895.0,3135.0,3039.0,0.780273,0.002502,-0.624329,0.036743,0.0,0.0,-1.0,7724.0,-318.0,1705.0,-258.0,25.0,-100.0,39.0,15.0,-274.0,0.974478,-0.041974,0.220384,15534.0,-544.0,3378.0,12.0,21.0,-7.0
2883.0,2827.0,2896.0,3139.0,3035.0,0.780334,0.002563,-0.624268,0.036682,0.0,1.0,-1.0,7733.0,-298.0,1701.0,-249.0,44.0,-105.0,45.0,35.0,-267.0,0.974463,-0.041798,0.220551,15502.0,-496.0,3398.0,3.0,33.0,-13.0
2883.0,2827.0,2895.0,3143.0,3043.0,0.780579,0.002625,-0.623962,0.036499,-1.0,1.0,-1.0,7701.0,-290.0,1692.0,-280.0,49.0,-120.0,52.0,39.0,-301.0,0.974295,-0.041451,0.221299,15210.0,-598.0,3394.0,-14.0,38.0,-6.0
2879.0,2822.0,2895.0,3139.0,3039.0,0.78064,0.002563,-0.623901,0.036499,-1.0,0.0,0.0,7650.0,-301.0,1687.0,-331.0,39.0,-127.0,48.0,27.0,-352.0,0.974271,-0.041541,0.221471,14968.0,-666.0,3344.0,-13.0,21.0,0.0
2882.0,2823.0,2894.0,3135.0,3039.0,0.78064,0.002441,-0.623962,0.036499,-1.0,-1.0,0.0,7608.0,-308.0,1707.0,-373.0,33.0,-106.0,19.0,18.0,-388.0,0.974358,-0.041736,0.221395,15304.0,-640.0,3500.0,-1.0,-20.0,9.0
2881.0,2823.0,2895.0,3139.0,3045.0,0.780579,0.002441,-0.623962,0.03656,0.0,-1.0,0.0,7659.0,-308.0,1721.0,-322.0,34.0,-91.0,16.0,21.0,-335.0,0.974282,-0.041813,0.221305,15660.0,-570.0,3530.0,8.0,-7.0,7.0
2879.0,2826.0,2891.0,3135.0,3039.0,0.780579,0.002502,-0.623962,0.03656,0.0,0.0,0.0,7699.0,-282.0,1721.0,-282.0,59.0,-91.0,23.0,48.0,-297.0,0.974286,-0.041717,0.221304,15624.0,-388.0,3430.0,4.0,19.0,3.0
2885.0,2826.0,2895.0,3135.0,3042.0,0.780823,0.002441,-0.623657,0.036499,-1.0,1.0,0.0,7697.0,-287.0,1738.0,-282.0,54.0,-81.0,13.0,42.0,-294.0,0.97411,-0.041713,0.222062,15174.0,-698.0,3436.0,-9.0,37.0,1.0
2883.0,2829.0,2897.0,3141.0,3043.0,0.780884,0.002441,-0.623596,0.036499,0.0,0.0,-1.0,7674.0,-315.0,1745.0,-305.0,26.0,-75.0,4.0,13.0,-314.0,0.974091,-0.041708,0.222233,15208.0,-790.0,3554.0,7.0,21.0,-1.0
2882.0,2826.0,2896.0,3143.0,3043.0,0.780884,0.002686,-0.623535,0.036743,1.0,-1.0,0.0,7617.0,-305.0,1777.0,-362.0,36.0,-44.0,-38.0,18.0,-363.0,0.974014,-0.041627,0.222326,15202.0,-402.0,3714.0,39.0,-19.0,5.0
2879.0,2821.0,2895.0,3135.0,3039.0,0.780884,0.002869,-0.623596,0.036804,1.0,-2.0,0.0,7618.0,-271.0,1793.0,-362.0,68.0,-27.0,-57.0,49.0,-361.0,0.974123,-0.041422,0.222254,15248.0,-350.0,3686.0,28.0,-28.0,9.0
2881.0,2819.0,2895.0,3135.0,3039.0,0.780701,0.00293,-0.62384,0.036987,0.0,-2.0,0.0,7653.0,-272.0,1809.0,-328.0,68.0,-6.0,-70.0,50.0,-323.0,0.974282,-0.041574,0.221676,15418.0,-596.0,3622.0,15.0,-32.0,16.0
2885.0,2827.0,2896.0,3139.0,3043.0,0.780579,0.002991,-0.623901,0.037109,0.0,-2.0,0.0,7678.0,-267.0,1814.0,-302.0,74.0,0.0,-70.0,57.0,-297.0,0.97423,-0.041636,0.221418,15556.0,-476.0,3676.0,15.0,-34.0,17.0
2885.0,2830.0,2896.0,3143.0,3043.0,0.780518,0.002991,-0.624023,0.03717,-1.0,-1.0,0.0,7721.0,-261.0,1806.0,-260.0,80.0,-5.0,-56.0,65.0,-257.0,0.974345,-0.041722,0.221175,15478.0,-530.0,3464.0,-4.0,-5.0,13.0
2883.0,2823.0,2895.0,3135.0,3031.0,0.780518,0.00293,-0.624023,0.03717,-1.0,0.0,0.0,7735.0,-273.0,1806.0,-246.0,69.0,-5.0,-53.0,55.0,-243.0,0.97434,-0.041817,0.221175,15540.0,-678.0,3644.0,-9.0,5.0,7.0
2881.0,2827.0,2895.0,3141.0,3043.0,0.780579,0.00293,-0.623901,0.03717,-1.0,0.0,0.0,7721.0,-307.0,1786.0,-259.0,35.0,-27.0,-32.0,22.0,-259.0,0.974226,-0.041808,0.221423,15360.0,-814.0,3446.0,-2.0,17.0,2.0
2883.0,2830.0,2895.0,3139.0,3046.0,0.78064,0.00293,-0.62384,0.037292,0.0,-1.0,0.0,7636.0,-328.0,1769.0,-344.0,15.0,-46.0,-31.0,-1.0,-345.0,0.974208,-0.041955,0.221604,14972.0,-656.0,3482.0,10.0,-3.0,5.0
2879.0,2823.0,2895.0,3135.0,3039.0,0.780579,0.00293,-0.623901,0.037354,0.0,-2.0,0.0,7614.0,-334.0,1773.0,-366.0,10.0,-41.0,-40.0,-7.0,-366.0,0.974227,-0.042036,0.221437,15134.0,-740.0,3578.0,2.0,-27.0,11.0
2882.0,2847.0,2891.0,3135.0,3037.0,0.780273,0.002808,-0.624268,0.037598,0.0,-3.0,0.0,7612.0,-388.0,1750.0,-370.0,-39.0,-56.0,-23.0,-56.0,-371.0,0.97441,-0.042561,0.220522,15346.0,-916.0,3462.0,19.0,-54.0,15.0
2883.0,2829.0,2895.0,3141.0,3042.0,0.780151,0.00293,-0.624451,0.037781,1.0,-2.0,0.0,7675.0,-402.0,1749.0,-308.0,-52.0,-54.0,-11.0,-66.0,-309.0,0.974553,-0.042613,0.220116,15740.0,-850.0,3494.0,42.0,-35.0,4.0
2885.0,2829.0,2895.0,3139.0,3039.0,0.78009,0.003296,-0.624451,0.038025,1.0,0.0,0.0,7693.0,-325.0,1735.0,-290.0,21.0,-67.0,0.0,8.0,-298.0,0.974507,-0.042347,0.220037,15328.0,-328.0,3406.0,29.0,2.0,0.0
2882.0,2837.0,2895.0,3139.0,3039.0,0.78009,0.003418,-0.624512,0.038025,0.0,-1.0,0.0,7693.0,-297.0,1732.0,-291.0,48.0,-69.0,0.0,35.0,-300.0,0.974611,-0.042161,0.21996,15422.0,-486.0,3472.0,2.0,-3.0,2.0
2883.0,2830.0,2897.0,3135.0,3039.0,0.78009,0.003357,-0.624451,0.037964,-1.0,0.0,-1.0,7711.0,-303.0,1734.0,-272.0,42.0,-68.0,4.0,30.0,-281.0,0.974511,-0.042176,0.220032,15538.0,-690.0,3470.0,-9.0,8.0,-3.0
2871.0,2829.0,2895.0,3139.0,3045.0,0.780273,0.003418,-0.624329,0.037842,0.0,0.0,-1.0,7659.0,-307.0,1724.0,-324.0,36.0,-82.0,7.0,22.0,-335.0,0.974553,-0.041918,0.220461,15054.0,-538.0,3432.0,3.0,17.0,-15.0
2883.0,2823.0,2894.0,3135.0,3039.0,0.780273,0.00354,-0.624268,0.037781,-1.0,-1.0,-1.0,7642.0,-294.0,1729.0,-340.0,47.0,-77.0,-2.0,32.0,-350.0,0.974466,-0.041646,0.220531,15242.0,-520.0,3490.0,-1.0,-2.0,-15.0
2883.0,2823.0,2896.0,3137.0,3039.0,0.780212,0.003601,-0.624329,0.037659,0.0,-1.0,-1.0,7648.0,-286.0,1760.0,-335.0,53.0,-45.0,-32.0,37.0,-338.0,0.974489,-0.041404,0.22035,15298.0,-506.0,3590.0,2.0,-17.0,-5.0
2882.0,2830.0,2898.0,3142.0,3043.0,0.780151,0.003662,-0.624451,0.037659,-1.0,-2.0,-1.0,7664.0,-277.0,1775.0,-319.0,61.0,-28.0,-45.0,45.0,-319.0,0.974608,-0.041318,0.220102,15460.0,-518.0,3652.0,-1.0,-25.0,-1.0
2883.0,2829.0,2896.0,3139.0,3043.0,0.780151,0.003723,-0.624451,0.037598,0.0,0.0,-1.0,7723.0,-292.0,1793.0,-261.0,45.0,-10.0,-49.0,31.0,-258.0,0.974612,-0.041147,0.220097,15484.0,-656.0,3584.0,8.0,10.0,-7.0
2885.0,2827.0,2896.0,3135.0,3035.0,0.780212,0.003845,-0.62439,0.037598,0.0,0.0,-1.0,7698.0,-294.0,1790.0,-285.0,41.0,-14.0,-50.0,26.0,-282.0,0.974602,-0.040951,0.220268,15212.0,-590.0,3546.0,13.0,8.0,-9.0
2883.0,2819.0,2895.0,3135.0,3039.0,0.780151,0.003967,-0.62439,0.037659,0.0,-2.0,-1.0,7657.0,-277.0,1797.0,-326.0,57.0,-6.0,-68.0,39.0,-321.0,0.974536,-0.040837,0.220176,15300.0,-394.0,3596.0,13.0,-26.0,-2.0
2883.0,2830.0,2896.0,3139.0,3039.0,0.78009,0.004028,-0.624512,0.037598,-1.0,-2.0,0.0,7662.0,-251.0,1798.0,-322.0,82.0,-3.0,-72.0,64.0,-317.0,0.974654,-0.040675,0.219923,15342.0,-368.0,3602.0,-7.0,-23.0,0.0
2883.0,2829.0,2895.0,3143.0,3047.0,0.779907,0.003906,-0.624695,0.037598,-1.0,-2.0,0.0,7651.0,-309.0,1775.0,-333.0,25.0,-22.0,-52.0,8.0,-330.0,0.974702,-0.040881,0.21941,15244.0,-850.0,3488.0,-2.0,-38.0,8.0
2881.0,2823.0,2895.0,3138.0,3043.0,0.779785,0.003967,-0.624878,0.037659,0.0,-2.0,0.0,7671.0,-314.0,1773.0,-314.0,20.0,-21.0,-48.0,4.0,-311.0,0.97484,-0.040877,0.218995,15584.0,-592.0,3552.0,18.0,-44.0,2.0
2879.0,2827.0,2896.0,3135.0,3039.0,0.779724,0.004089,-0.625,0.037537,-1.0,-1.0,-1.0,7703.0,-279.0,1756.0,-283.0,53.0,-35.0,-30.0,39.0,-285.0,0.974962,-0.040544,0.218737,15216.0,-654.0,3378.0,-18.0,0.0,-7.0
2883.0,2831.0,2897.0,3143.0,3043.0,0.779663,0.003967,-0.625061,0.037476,-1.0,-1.0,-1.0,7674.0,-327.0,1734.0,-312.0,6.0,-56.0,-13.0,-7.0,-316.0,0.974971,-0.040663,0.218562,15194.0,-936.0,3342.0,-14.0,-19.0,-2.0
2907.0,2831.0,2895.0,3139.0,3043.0,0.779419,0.00415,-0.625305,0.037598,1.0,-2.0,-1.0,7643.0,-344.0,1706.0,-344.0,-11.0,-78.0,2.0,-25.0,-351.0,0.975061,-0.04055,0.217884,15252.0,-538.0,3390.0,28.0,-38.0,-8.0
2883.0,2826.0,2893.0,3135.0,3039.0,0.779297,0.004272,-0.625488,0.037598,0.0,-2.0,-1.0,7654.0,-312.0,1712.0,-334.0,18.0,-69.0,-5.0,3.0,-341.0,0.975203,-0.040375,0.217463,15470.0,-426.0,3458.0,13.0,-41.0,-9.0
2883.0,2822.0,2893.0,3138.0,3043.0,0.779114,0.004333,-0.625732,0.037415,-1.0,-1.0,-1.0,7684.0,-287.0,1687.0,-306.0,41.0,-89.0,18.0,29.0,-319.0,0.975358,-0.04007,0.216858,15298.0,-562.0,3286.0,-11.0,-13.0,-11.0
2882.0,2827.0,2895.0,3141.0,3031.0,0.779053,0.004333,-0.625793,0.037354,-1.0,-2.0,-1.0,7666.0,-282.0,1680.0,-324.0,45.0,-95.0,20.0,32.0,-338.0,0.975376,-0.039999,0.216682,15246.0,-546.0,3348.0,-18.0,-23.0,-3.0
2881.0,2828.0,2898.0,3143.0,3043.0,0.778931,0.004211,-0.625977,0.037231,-1.0,-1.0,-1.0,7713.0,-316.0,1687.0,-278.0,12.0,-84.0,21.0,1.0,-289.0,0.975498,-0.040051,0.216255,15552.0,-688.0,3396.0,-4.0,-1.0,-7.0
2882.0,2829.0,2894.0,3141.0,3039.0,0.778931,0.004272,-0.625977,0.03717,0.0,0.0,-1.0,7694.0,-298.0,1679.0,-297.0,28.0,-92.0,24.0,17.0,-310.0,0.975502,-0.03988,0.21625,15244.0,-474.0,3312.0,1.0,13.0,-10.0
2879.0,2823.0,2895.0,3138.0,3039.0,0.778931,0.004333,-0.625977,0.037109,0.0,-1.0,-1.0,7666.0,-288.0,1686.0,-325.0,37.0,-85.0,11.0,24.0,-336.0,0.975506,-0.039708,0.216245,15288.0,-624.0,3366.0,2.0,-10.0,-3.0
2884.0,2829.0,2896.0,3141.0,3039.0,0.778931,0.004395,-0.626038,0.037109,0.0,-1.0,-1.0,7670.0,-297.0,1688.0,-322.0,27.0,-82.0,9.0,14.0,-332.0,0.975606,-0.039618,0.216168,15374.0,-622.0,3410.0,18.0,-11.0,-6.0
2883.0,2830.0,2896.0,3143.0,3043.0,0.778809,0.0047,-0.626099,0.037231,1.0,-1.0,-1.0,7678.0,-266.0,1711.0,-313.0,55.0,-57.0,-14.0,41.0,-319.0,0.975572,-0.039301,0.215907,15420.0,-356.0,3488.0,23.0,-17.0,-5.0
2883.0,2827.0,2896.0,3137.0,3039.0,0.778809,0.004822,-0.62616,0.037231,0.0,-1.0,-1.0,7696.0,-241.0,1724.0,-296.0,79.0,-44.0,-25.0,65.0,-301.0,0.975676,-0.039115,0.21583,15492.0,-332.0,3530.0,12.0,-12.0,-2.0
2883.0,2827.0,2895.0,3143.0,3047.0,0.778748,0.004883,-0.62616,0.037109,-1.0,-1.0,0.0,7706.0,-216.0,1734.0,-286.0,102.0,-33.0,-35.0,88.0,-290.0,0.975603,-0.038868,0.215725,15456.0,-358.0,3528.0,-13.0,-6.0,3.0
2881.0,2825.0,2896.0,3143.0,3043.0,0.778809,0.004822,-0.62616,0.037048,-1.0,0.0,0.0,7712.0,-225.0,1723.0,-280.0,93.0,-44.0,-22.0,80.0,-286.0,0.975674,-0.038886,0.215816,15434.0,-536.0,3364.0,-20.0,1.0,3.0
2883.0,2827.0,2899.0,3143.0,3043.0,0.778809,0.0047,-0.62616,0.036987,0.0,-1.0,0.0,7685.0,-271.0,1708.0,-307.0,48.0,-59.0,-10.0,35.0,-314.0,0.975665,-0.039,0.215813,15306.0,-666.0,3352.0,2.0,-3.0,6.0
2883.0,2822.0,2885.0,3135.0,3045.0,0.778748,0.004761,-0.626221,0.037048,0.0,-1.0,0.0,7688.0,-277.0,1698.0,-304.0,42.0,-68.0,-1.0,29.0,-312.0,0.975688,-0.038986,0.215645,15392.0,-554.0,3354.0,11.0,-4.0,3.0
2881.0,2826.0,2896.0,3139.0,3039.0,0.778687,0.004822,-0.626282,0.037109,0.0,-1.0,0.0,7668.0,-286.0,1687.0,-325.0,33.0,-78.0,4.0,20.0,-335.0,0.975712,-0.038973,0.215478,15358.0,-626.0,3360.0,9.0,-10.0,6.0
2883.0,2827.0,2891.0,3141.0,3043.0,0.778687,0.004883,-0.626282,0.037231,0.0,-1.0,0.0,7669.0,-304.0,1678.0,-324.0,15.0,-87.0,14.0,2.0,-335.0,0.975718,-0.03903,0.215486,15348.0,-700.0,3268.0,16.0,-10.0,4.0
2883.0,2827.0,2897.0,3139.0,3039.0,0.778625,0.005005,-0.626343,0.037415,1.0,0.0,0.0,7688.0,-307.0,1660.0,-305.0,13.0,-103.0,34.0,2.0,-320.0,0.975747,-0.039075,0.215327,15428.0,-562.0,3254.0,27.0,4.0,1.0
2881.0,2827.0,2896.0,3135.0,3043.0,0.778625,0.005127,-0.626343,0.037537,1.0,0.0,0.0,7689.0,-300.0,1647.0,-304.0,19.0,-117.0,48.0,9.0,-322.0,0.975758,-0.039038,0.215335,15376.0,-540.0,3238.0,27.0,11.0,1.0
2881.0,2827.0,2895.0,3135.0,3043.0,0.778625,0.005371,-0.626282,0.037659,0.0,0.0,0.0,7673.0,-262.0,1638.0,-319.0,55.0,-126.0,51.0,45.0,-340.0,0.975682,-0.038806,0.215418,15358.0,-398.0,3316.0,20.0,5.0,7.0
2881.0,2826.0,2896.0,3143.0,3047.0,0.778625,0.005432,-0.626282,0.03772,0.0,0.0,0.0,7679.0,-246.0,1638.0,-313.0,71.0,-126.0,51.0,61.0,-335.0,0.975688,-0.038787,0.215422,15398.0,-414.0,3284.0,16.0,11.0,8.0
2883.0,2827.0,2896.0,3138.0,3039.0,0.778748,0.005554,-0.62616,0.037842,0.0,1.0,0.0,7693.0,-208.0,1648.0,-299.0,109.0,-119.0,45.0,99.0,-321.0,0.975661,-0.038739,0.215773,15398.0,-314.0,3314.0,8.0,26.0,14.0
2883.0,2831.0,2898.0,3141.0,3043.0,0.77887,0.005554,-0.626038,0.037842,-1.0,1.0,0.0,7711.0,-194.0,1665.0,-281.0,123.0,-105.0,34.0,113.0,-301.0,0.975624,-0.038729,0.216116,15542.0,-330.0,3426.0,-2.0,31.0,15.0
2879.0,2826.0,2895.0,3139.0,3039.0,0.779114,0.005432,-0.625671,0.037842,-1.0,1.0,0.0,7706.0,-215.0,1678.0,-284.0,103.0,-99.0,28.0,93.0,-302.0,0.975349,-0.038889,0.216956,15298.0,-564.0,3408.0,-8.0,45.0,16.0
2883.0,2827.0,2899.0,3143.0,3039.0,0.779236,0.005371,-0.625549,0.037903,-1.0,1.0,0.0,7682.0,-231.0,1681.0,-307.0,88.0,-99.0,24.0,77.0,-324.0,0.975308,-0.039049,0.217304,15214.0,-560.0,3372.0,-4.0,36.0,19.0
2887.0,2821.0,2898.0,3147.0,3047.0,0.779419,0.005249,-0.625305,0.038147,0.0,1.0,1.0,7661.0,-268.0,1717.0,-327.0,55.0,-68.0,-7.0,41.0,-335.0,0.97515,-0.039525,0.217915,15230.0,-594.0,3556.0,13.0,26.0,24.0
2882.0,2826.0,2896.0,3135.0,3043.0,0.779541,0.005188,-0.625183,0.038269,0.0,0.0,1.0,7649.0,-256.0,1745.0,-339.0,69.0,-43.0,-35.0,53.0,-342.0,0.975109,-0.039762,0.218268,15262.0,-426.0,3682.0,7.0,16.0,26.0
2882.0,2823.0,2896.0,3141.0,3043.0,0.779663,0.004944,-0.625,0.038391,-1.0,0.0,1.0,7679.0,-270.0,1786.0,-307.0,59.0,-5.0,-65.0,42.0,-302.0,0.974958,-0.04028,0.218699,15496.0,-692.0,3592.0,-21.0,12.0,31.0
2883.0,2831.0,2894.0,3141.0,3043.0,0.779724,0.004761,-0.624939,0.038452,-1.0,0.0,1.0,7685.0,-298.0,1798.0,-301.0,34.0,4.0,-71.0,17.0,-293.0,0.974926,-0.040636,0.218877,15342.0,-756.0,3620.0,-14.0,17.0,27.0
2883.0,2826.0,2896.0,3135.0,3039.0,0.779846,0.004578,-0.624756,0.038635,0.0,0.0,0.0,7693.0,-333.0,1824.0,-292.0,3.0,27.0,-89.0,-14.0,-278.0,0.974781,-0.041135,0.219312,15474.0,-698.0,3750.0,6.0,9.0,14.0
2887.0,2827.0,2895.0,3139.0,3046.0,0.779907,0.004578,-0.624634,0.038696,0.0,0.0,0.0,7690.0,-324.0,1832.0,-294.0,13.0,33.0,-96.0,-4.0,-279.0,0.974667,-0.041202,0.219564,15348.0,-582.0,3728.0,7.0,13.0,7.0
2881.0,2823.0,2895.0,3137.0,3039.0,0.779968,0.004456,-0.624573,0.038696,-1.0,-1.0,0.0,7687.0,-315.0,1826.0,-297.0,24.0,25.0,-90.0,6.0,-284.0,0.974639,-0.041387,0.219737,15446.0,-664.0,3638.0,-12.0,0.0,10.0
2882.0,2827.0,2890.0,3143.0,3051.0,0.780029,0.004395,-0.624512,0.038696,-1.0,0.0,0.0,7681.0,-322.0,1815.0,-303.0,17.0,13.0,-79.0,0.0,-293.0,0.974615,-0.041477,0.219909,15302.0,-684.0,3528.0,-12.0,2.0,10.0
2883.0,2819.0,2895.0,3139.0,3051.0,0.78009,0.004089,-0.624451,0.038635,-2.0,0.0,0.0,7677.0,-299.0,1797.0,-306.0,44.0,-5.0,-64.0,27.0,-301.0,0.974572,-0.041871,0.220078,15188.0,-404.0,3432.0,-43.0,10.0,12.0
2879.0,2826.0,2895.0,3139.0,3045.0,0.78009,0.003784,-0.624512,0.038391,-4.0,-1.0,0.0,7657.0,-268.0,1786.0,-327.0,76.0,-16.0,-60.0,58.0,-325.0,0.974642,-0.042047,0.219986,15270.0,-384.0,3558.0,-86.0,-7.0,18.0
2886.0,2829.0,2891.0,3139.0,3043.0,0.780029,0.002563,-0.624573,0.037598,-8.0,0.0,1.0,7673.0,-225.0,1750.0,-310.0,126.0,-50.0,-26.0,110.0,-318.0,0.974563,-0.042966,0.219762,15398.0,-236.0,3378.0,-167.0,4.0,35.0
2884.0,2832.0,2891.0,3135.0,3046.0,0.78009,0.001648,-0.624573,0.037048,-10.0,0.0,2.0,7676.0,-189.0,1727.0,-307.0,169.0,-73.0,-5.0,154.0,-322.0,0.974568,-0.043708,0.21982,15356.0,-164.0,3354.0,-214.0,16.0,51.0
2882.0,2830.0,2896.0,3151.0,3047.0,0.780212,-0.000793,-0.624512,0.035767,-12.0,1.0,2.0,7682.0,-263.0,1663.0,-300.0,113.0,-139.0,64.0,101.0,-328.0,0.974447,-0.045911,0.219995,15362.0,-1094.0,3162.0,-263.0,40.0,68.0
2883.0,2829.0,2894.0,3139.0,3042.0,0.780273,-0.002075,-0.62439,0.035339,-10.0,2.0,2.0,7642.0,-349.0,1631.0,-338.0,39.0,-172.0,91.0,26.0,-369.0,0.974243,-0.047369,0.220209,14982.0,-1190.0,3046.0,-214.0,50.0,63.0
2882.0,2822.0,2894.0,3167.0,3039.0,0.780334,-0.003784,-0.624329,0.034912,-5.0,0.0,1.0,7584.0,-467.0,1624.0,-395.0,-61.0,-181.0,93.0,-77.0,-421.0,0.974106,-0.049499,0.22034,15048.0,-1180.0,3318.0,-102.0,8.0,43.0
2887.0,2831.0,2895.0,3139.0,3051.0,0.780273,-0.004272,-0.62439,0.034912,-3.0,-1.0,1.0,7604.0,-478.0,1641.0,-375.0,-66.0,-162.0,79.0,-82.0,-397.0,0.974091,-0.050265,0.220165,15434.0,-978.0,3402.0,-60.0,-9.0,34.0
2883.0,2829.0,2901.0,3147.0,3046.0,0.780334,-0.0047,-0.624329,0.034912,-2.0,0.0,0.0,7677.0,-430.0,1706.0,-302.0,-12.0,-98.0,30.0,-26.0,-315.0,0.974042,-0.050928,0.220332,15466.0,-540.0,3636.0,-27.0,21.0,16.0
2882.0,2831.0,2891.0,3135.0,3041.0,0.780457,-0.004883,-0.624268,0.034729,-3.0,0.0,0.0,7690.0,-355.0,1747.0,-289.0,62.0,-60.0,-7.0,46.0,-297.0,0.974088,-0.050982,0.220585,15486.0,-272.0,3714.0,-61.0,20.0,21.0
2883.0,2831.0,2899.0,3141.0,3011.0,0.78064,-0.005859,-0.624023,0.034241,-5.0,0.0,1.0,7709.0,-375.0,1797.0,-268.0,50.0,-14.0,-47.0,34.0,-266.0,0.973874,-0.051882,0.221131,15436.0,-1056.0,3706.0,-108.0,22.0,28.0
2885.0,2831.0,2895.0,3149.0,3046.0,0.780701,-0.006348,-0.623901,0.034058,-4.0,0.0,0.0,7689.0,-432.0,1798.0,-287.0,-2.0,-15.0,-48.0,-19.0,-282.0,0.973728,-0.052408,0.22136,15234.0,-1204.0,3616.0,-76.0,21.0,22.0
2881.0,2823.0,2891.0,3147.0,3029.0,0.780762,-0.006775,-0.62384,0.033997,-1.0,-1.0,0.0,7659.0,-480.0,1820.0,-317.0,-45.0,5.0,-72.0,-64.0,-305.0,0.973681,-0.052996,0.221522,15284.0,-1064.0,3716.0,-19.0,-6.0,2.0
2885.0,2823.0,2891.0,3139.0,3049.0,0.780762,-0.006836,-0.62384,0.033997,0.0,-1.0,-1.0,7642.0,-502.0,1821.0,-334.0,-67.0,6.0,-76.0,-87.0,-320.0,0.973677,-0.053091,0.221521,15178.0,-1148.0,3662.0,5.0,-15.0,-5.0
2879.0,2819.0,2891.0,3142.0,3039.0,0.780701,-0.006592,-0.623962,0.034119,1.0,-2.0,-1.0,7663.0,-445.0,1848.0,-314.0,-11.0,35.0,-102.0,-31.0,-297.0,0.973806,-0.05287,0.221285,15442.0,-564.0,3782.0,25.0,-27.0,-13.0
2881.0,2831.0,2895.0,3146.0,3039.0,0.78064,-0.00647,-0.624023,0.034058,0.0,-1.0,-1.0,7693.0,-410.0,1859.0,-284.0,20.0,47.0,-108.0,1.0,-267.0,0.973834,-0.052607,0.221111,15574.0,-626.0,3774.0,3.0,-22.0,-8.0
2887.0,2819.0,2895.0,3143.0,3029.0,0.78064,-0.006531,-0.624023,0.033875,-2.0,-1.0,-1.0,7708.0,-417.0,1840.0,-269.0,12.0,28.0,-86.0,-5.0,-256.0,0.973832,-0.052473,0.221098,15408.0,-1084.0,3568.0,-24.0,-3.0,-7.0
2891.0,2832.0,2891.0,3135.0,3051.0,0.78064,-0.006531,-0.624023,0.033875,0.0,-1.0,-1.0,7698.0,-464.0,1824.0,-279.0,-34.0,12.0,-71.0,-51.0,-267.0,0.973832,-0.052473,0.221098,15312.0,-1224.0,3560.0,1.0,-1.0,-14.0
2879.0,2827.0,2895.0,3138.0,3043.0,0.78064,-0.006287,-0.624023,0.033936,1.0,-1.0,-2.0,7648.0,-460.0,1813.0,-329.0,-32.0,1.0,-71.0,-51.0,-318.0,0.973848,-0.052168,0.221105,15184.0,-818.0,3612.0,28.0,-20.0,-26.0
2879.0,2829.0,2901.0,3139.0,3039.0,0.780579,-0.006104,-0.624146,0.033875,0.0,-2.0,-2.0,7646.0,-453.0,1811.0,-332.0,-28.0,1.0,-72.0,-48.0,-321.0,0.973976,-0.051814,0.220856,15332.0,-850.0,3602.0,21.0,-27.0,-27.0
2879.0,2823.0,2893.0,3139.0,3047.0,0.780396,-0.005737,-0.624329,0.033752,0.0,-2.0,-2.0,7652.0,-433.0,1794.0,-327.0,-14.0,-11.0,-59.0,-33.0,-320.0,0.974059,-0.0511,0.220337,15420.0,-884.0,3566.0,13.0,-37.0,-32.0
2883.0,2827.0,2895.0,3143.0,3031.0,0.780334,-0.005554,-0.624451,0.033691,1.0,-2.0,-2.0,7669.0,-428.0,1781.0,-311.0,-12.0,-21.0,-46.0,-29.0,-306.0,0.974187,-0.050746,0.220087,15396.0,-770.0,3468.0,23.0,-27.0,-36.0
2887.0,2827.0,2890.0,3135.0,3051.0,0.780151,-0.005188,-0.624695,0.033386,-1.0,-2.0,-2.0,7677.0,-338.0,1762.0,-305.0,70.0,-35.0,-35.0,53.0,-308.0,0.974367,-0.049807,0.21948,15460.0,-474.0,3452.0,-13.0,-28.0,-27.0
2890.0,2822.0,2895.0,3135.0,3045.0,0.78009,-0.005188,-0.624756,0.033203,-2.0,-1.0,-1.0,7681.0,-319.0,1743.0,-301.0,87.0,-53.0,-17.0,71.0,-309.0,0.974388,-0.049582,0.219297,15360.0,-556.0,3384.0,-25.0,-18.0,-17.0
2881.0,2823.0,2896.0,3139.0,3039.0,0.779907,-0.005249,-0.624939,0.032959,-1.0,-1.0,-1.0,7660.0,-355.0,1695.0,-322.0,49.0,-97.0,22.0,33.0,-337.0,0.974443,-0.049382,0.218765,15196.0,-870.0,3220.0,-7.0,-18.0,-5.0
2879.0,2821.0,2897.0,3135.0,3039.0,0.779846,-0.005188,-0.625061,0.03302,0.0,-2.0,-1.0,7644.0,-379.0,1681.0,-339.0,25.0,-109.0,31.0,8.0,-355.0,0.97456,-0.049371,0.218522,15236.0,-892.0,3264.0,21.0,-24.0,-10.0
2882.0,2827.0,2897.0,3139.0,3047.0,0.779663,-0.0047,-0.625305,0.033081,1.0,-1.0,-1.0,7673.0,-332.0,1681.0,-312.0,66.0,-104.0,31.0,51.0,-330.0,0.974744,-0.0487,0.21794,15436.0,-344.0,3420.0,39.0,-20.0,-22.0
2887.0,2830.0,2893.0,3135.0,3035.0,0.779602,-0.004456,-0.625366,0.03302,0.0,-1.0,-1.0,7692.0,-282.0,1687.0,-293.0,113.0,-96.0,25.0,99.0,-311.0,0.974779,-0.048246,0.217767,15496.0,-320.0,3410.0,11.0,-12.0,-15.0
2883.0,2822.0,2897.0,3149.0,3039.0,0.77948,-0.004456,-0.625488,0.032776,-1.0,-1.0,0.0,7699.0,-303.0,1657.0,-286.0,89.0,-124.0,55.0,76.0,-310.0,0.974819,-0.047948,0.217408,15456.0,-892.0,3228.0,-15.0,-7.0,0.0
2883.0,2831.0,2893.0,3135.0,3054.0,0.77948,-0.004456,-0.625549,0.032837,0.0,-1.0,-1.0,7684.0,-353.0,1647.0,-302.0,40.0,-133.0,62.0,27.0,-325.0,0.974914,-0.048028,0.217336,15222.0,-954.0,3234.0,19.0,-1.0,-4.0
2881.0,2825.0,2899.0,3127.0,3047.0,0.779358,-0.003967,-0.625671,0.033203,3.0,-1.0,-1.0,7658.0,-382.0,1649.0,-329.0,9.0,-128.0,53.0,-5.0,-348.0,0.97498,-0.047732,0.217021,15330.0,-736.0,3348.0,71.0,-15.0,-14.0
2877.0,2823.0,2893.0,3135.0,3039.0,0.779297,-0.003601,-0.625732,0.033325,3.0,-1.0,-1.0,7671.0,-350.0,1662.0,-316.0,37.0,-114.0,41.0,23.0,-334.0,0.975023,-0.047318,0.21686,15428.0,-444.0,3442.0,72.0,-11.0,-14.0
