flex_1,flex_2,flex_3,flex_4,flex_5,Qw,Qx,Qy,Qz,GYRx,GYRy,GYRz,ACCx,ACCy,ACCz,ACCx_real,ACCy_real,ACCz_real,ACCx_world,ACCy_world,ACCz_world,GRAx,GRAy,GRAz,ACCx_raw,ACCy_raw,ACCz_raw,GYRx_raw,GYRy_raw,GYRz_raw
2887.0,2823.0,2891.0,3135.0,3029.0,1.0,0.0,0.0,0.0,0.0,0.0,0.0,0.0,0.0,0.0,0.0,0.0,0.0,0.0,0.0,0.0,0.0,0.0,0.0,0.0,0.0,0.0,0.0,0.0,0.0
2894.0,2815.0,2898.0,3151.0,3043.0,0.886841,0.030334,-0.46106,0.004517,0.0,-1.0,0.0,7523.0,447.0,2191.0,821.0,40.0,-2503.0,2516.0,168.0,-760.0,0.818047,0.049639,0.573011,15128.0,890.0,4496.0,4.0,-18.0,0.0
2895.0,2823.0,2898.0,3151.0,3038.0,0.88562,0.030518,-0.463318,0.004578,0.0,-1.0,0.0,7518.0,419.0,2187.0,792.0,10.0,-2472.0,2479.0,138.0,-755.0,0.820927,0.049812,0.568749,15004.0,726.0,4328.0,20.0,-21.0,7.0
2885.0,2819.0,2896.0,3127.0,3037.0,0.88501,0.03064,-0.464478,0.0047,1.0,-2.0,0.0,7525.0,423.0,2182.0,787.0,14.0,-2459.0,2467.0,142.0,-745.0,0.822422,0.049867,0.566586,15134.0,928.0,4338.0,31.0,-25.0,9.0
2887.0,2814.0,2899.0,3131.0,3039.0,0.88385,0.031006,-0.466736,0.004761,0.0,-1.0,-1.0,7578.0,476.0,2172.0,816.0,63.0,-2435.0,2466.0,190.0,-692.0,0.825344,0.050365,0.56241,15274.0,968.0,4260.0,2.0,0.0,-1.0
2886.0,2827.0,2911.0,3151.0,3039.0,0.883301,0.031067,-0.467773,0.004761,-1.0,0.0,0.0,7565.0,460.0,2148.0,792.0,46.0,-2443.0,2461.0,174.0,-712.0,0.826665,0.050429,0.560466,14976.0,784.0,4110.0,-6.0,6.0,3.0
2892.0,2823.0,2897.0,3141.0,3045.0,0.882141,0.031067,-0.46991,0.004883,0.0,-1.0,0.0,7527.0,402.0,2130.0,732.0,-9.0,-2428.0,2421.0,120.0,-744.0,0.829357,0.050222,0.556417,15044.0,644.0,4258.0,5.0,-9.0,5.0
2875.0,2815.0,2895.0,3135.0,3045.0,0.881592,0.031128,-0.470947,0.004944,0.0,-1.0,0.0,7535.0,378.0,2128.0,730.0,-33.0,-2414.0,2411.0,95.0,-733.0,0.830674,0.050228,0.554468,15126.0,608.0,4292.0,13.0,-3.0,6.0
2885.0,2819.0,2897.0,3127.0,3037.0,0.880493,0.031372,-0.472961,0.005188,1.0,-1.0,0.0,7517.0,372.0,2131.0,691.0,-40.0,-2379.0,2363.0,88.0,-736.0,0.833204,0.050338,0.550618,15026.0,778.0,4334.0,24.0,0.0,6.0
2896.0,2823.0,2899.0,3152.0,3051.0,0.879944,0.031494,-0.473938,0.005249,0.0,-1.0,-1.0,7522.0,386.0,2143.0,686.0,-27.0,-2352.0,2339.0,100.0,-719.0,0.834408,0.050451,0.54872,15102.0,832.0,4348.0,16.0,-5.0,-1.0
2893.0,2814.0,2896.0,3143.0,3039.0,0.878967,0.031738,-0.47583,0.005249,0.0,0.0,-1.0,7560.0,418.0,2162.0,704.0,1.0,-2304.0,2311.0,126.0,-666.0,0.836811,0.050799,0.545189,15162.0,1034.0,4384.0,12.0,16.0,-9.0
2887.0,2823.0,2895.0,3135.0,3039.0,0.878479,0.03186,-0.476685,0.005188,0.0,0.0,-1.0,7558.0,443.0,2179.0,694.0,24.0,-2273.0,2280.0,147.0,-652.0,0.837845,0.051031,0.543509,15066.0,1022.0,4458.0,5.0,17.0,-11.0
2887.0,2815.0,2897.0,3127.0,3037.0,0.877502,0.031921,-0.478455,0.005127,-1.0,0.0,0.0,7564.0,458.0,2212.0,682.0,39.0,-2212.0,2224.0,158.0,-619.0,0.840017,0.051116,0.540099,15158.0,918.0,4478.0,-14.0,7.0,6.0
2886.0,2826.0,2899.0,3153.0,3039.0,0.877014,0.031921,-0.47937,0.005127,-1.0,0.0,0.0,7563.0,452.0,2213.0,672.0,33.0,-2197.0,2208.0,152.0,-615.0,0.841156,0.051076,0.538365,15066.0,854.0,4436.0,-7.0,5.0,6.0
2890.0,2813.0,2911.0,3153.0,3038.0,0.875977,0.032043,-0.481262,0.005249,0.0,-2.0,0.0,7523.0,431.0,2219.0,613.0,12.0,-2161.0,2149.0,130.0,-637.0,0.843485,0.051086,0.534722,14994.0,870.0,4518.0,10.0,-24.0,3.0
2893.0,2815.0,2887.0,3143.0,3039.0,0.875427,0.032166,-0.482239,0.005249,0.0,-2.0,0.0,7537.0,432.0,2232.0,617.0,12.0,-2132.0,2128.0,129.0,-614.0,0.844668,0.051255,0.532812,15182.0,890.0,4526.0,12.0,-28.0,3.0
2887.0,2823.0,2898.0,3121.0,3031.0,0.874329,0.032349,-0.484253,0.00531,0.0,-1.0,-1.0,7553.0,440.0,2241.0,613.0,18.0,-2092.0,2095.0,133.0,-586.0,0.847136,0.051424,0.528931,15160.0,918.0,4448.0,9.0,-20.0,-4.0
2879.0,2821.0,2915.0,3163.0,3029.0,0.873779,0.032471,-0.485168,0.00531,0.0,-1.0,-1.0,7557.0,445.0,2231.0,608.0,22.0,-2086.0,2088.0,137.0,-582.0,0.848205,0.051592,0.527076,15134.0,932.0,4390.0,9.0,-14.0,-4.0
2885.0,2813.0,2907.0,3126.0,3054.0,0.872681,0.032654,-0.487122,0.005249,0.0,-1.0,-1.0,7566.0,439.0,2185.0,598.0,14.0,-2101.0,2099.0,130.0,-589.0,0.850546,0.051879,0.523245,15190.0,816.0,4268.0,3.0,-16.0,-5.0
2891.0,2823.0,2897.0,3134.0,3035.0,0.872131,0.032715,-0.488098,0.005249,-1.0,-1.0,-1.0,7567.0,430.0,2161.0,589.0,4.0,-2109.0,2102.0,121.0,-597.0,0.851715,0.051939,0.521331,15134.0,808.0,4166.0,0.0,-11.0,-6.0
2887.0,2818.0,2896.0,3141.0,3031.0,0.871094,0.032776,-0.489929,0.005188,-1.0,-1.0,-1.0,7544.0,409.0,2123.0,548.0,-17.0,-2118.0,2092.0,102.0,-629.0,0.853889,0.052018,0.517726,14998.0,718.0,4174.0,-6.0,-5.0,-9.0
2895.0,2823.0,2894.0,3147.0,3031.0,0.870605,0.032776,-0.490784,0.005127,-1.0,-1.0,-1.0,7540.0,403.0,2121.0,536.0,-23.0,-2106.0,2077.0,95.0,-629.0,0.854894,0.052037,0.516037,15080.0,780.0,4270.0,-6.0,-2.0,-10.0
2881.0,2821.0,2896.0,3149.0,3039.0,0.86969,0.032898,-0.492493,0.005066,-1.0,0.0,-1.0,7522.0,425.0,2119.0,501.0,-2.0,-2081.0,2039.0,115.0,-637.0,0.856965,0.052232,0.512755,15012.0,958.0,4272.0,-1.0,5.0,-6.0
2881.0,2815.0,2902.0,3135.0,3037.0,0.869202,0.032959,-0.493286,0.005005,-1.0,0.0,-1.0,7519.0,445.0,2125.0,491.0,16.0,-2062.0,2018.0,132.0,-631.0,0.85786,0.052358,0.511119,15010.0,1006.0,4290.0,-4.0,7.0,-2.0
2886.0,2819.0,2903.0,3143.0,3047.0,0.868347,0.033081,-0.494873,0.004944,-1.0,0.0,-1.0,7539.0,483.0,2154.0,495.0,52.0,-2008.0,1975.0,165.0,-591.0,0.85977,0.052559,0.508058,15198.0,1064.0,4484.0,-6.0,7.0,-1.0
2883.0,2815.0,2894.0,3143.0,3039.0,0.86792,0.033142,-0.495605,0.004944,-1.0,0.0,-1.0,7546.0,492.0,2164.0,495.0,60.0,-1985.0,1956.0,171.0,-576.0,0.860619,0.052629,0.506586,15108.0,1048.0,4380.0,-4.0,12.0,-1.0
2887.0,2823.0,2903.0,3151.0,3031.0,0.867004,0.033203,-0.497131,0.004944,0.0,0.0,0.0,7548.0,483.0,2176.0,483.0,51.0,-1948.0,1920.0,160.0,-561.0,0.862358,0.052659,0.503479,15070.0,940.0,4358.0,3.0,9.0,6.0
2892.0,2815.0,2898.0,3135.0,3039.0,0.866577,0.033325,-0.497864,0.005005,0.0,0.0,0.0,7546.0,485.0,2181.0,474.0,52.0,-1931.0,1902.0,161.0,-557.0,0.863208,0.052774,0.502002,15110.0,1000.0,4386.0,8.0,5.0,8.0
2881.0,2823.0,2897.0,3158.0,3047.0,0.865723,0.033447,-0.49939,0.005127,0.0,0.0,0.0,7553.0,485.0,2182.0,466.0,52.0,-1905.0,1877.0,160.0,-544.0,0.865009,0.052791,0.498993,15118.0,922.0,4386.0,5.0,7.0,16.0
2895.0,2827.0,2911.0,3153.0,3039.0,0.865295,0.033447,-0.500122,0.005188,0.0,0.0,0.0,7552.0,466.0,2184.0,458.0,34.0,-1891.0,1863.0,141.0,-542.0,0.865854,0.052694,0.497522,15098.0,790.0,4390.0,5.0,9.0,16.0
2891.0,2829.0,2899.0,3147.0,3023.0,0.864441,0.033569,-0.501587,0.005432,0.0,0.0,0.0,7547.0,441.0,2175.0,440.0,10.0,-1876.0,1844.0,118.0,-545.0,0.867549,0.052588,0.494571,15064.0,856.0,4366.0,15.0,16.0,10.0
2897.0,2815.0,2901.0,3143.0,3029.0,0.864014,0.03363,-0.502258,0.005493,0.0,0.0,0.0,7545.0,433.0,2176.0,432.0,2.0,-1863.0,1830.0,110.0,-543.0,0.868286,0.052596,0.493155,15092.0,814.0,4374.0,7.0,15.0,6.0
2891.0,2813.0,2896.0,3127.0,3037.0,0.86322,0.033691,-0.503601,0.005615,-1.0,0.0,0.0,7522.0,429.0,2177.0,396.0,-1.0,-1840.0,1794.0,106.0,-557.0,0.869816,0.052511,0.490432,15016.0,872.0,4390.0,-3.0,4.0,7.0
2882.0,2815.0,2897.0,3151.0,3019.0,0.862793,0.03363,-0.504333,0.005615,-1.0,-1.0,0.0,7535.0,426.0,2191.0,402.0,-3.0,-1814.0,1775.0,102.0,-537.0,0.870649,0.052368,0.48896,15178.0,828.0,4450.0,-10.0,-3.0,7.0
2891.0,2832.0,2899.0,3139.0,3031.0,0.862,0.033569,-0.505737,0.005615,-1.0,0.0,0.0,7555.0,393.0,2197.0,409.0,-34.0,-1785.0,1756.0,69.0,-512.0,0.872268,0.052194,0.486178,15136.0,682.0,4372.0,-6.0,10.0,1.0
2883.0,2813.0,2893.0,3139.0,3027.0,0.861633,0.033569,-0.506409,0.005676,0.0,0.0,-1.0,7565.0,383.0,2202.0,412.0,-43.0,-1770.0,1746.0,59.0,-500.0,0.873058,0.0521,0.484868,15202.0,730.0,4438.0,5.0,15.0,-4.0
2887.0,2815.0,2903.0,3123.0,3053.0,0.86084,0.033813,-0.507629,0.005676,0.0,0.0,-1.0,7560.0,395.0,2211.0,397.0,-34.0,-1739.0,1713.0,67.0,-493.0,0.874359,0.052453,0.482247,15066.0,894.0,4394.0,17.0,18.0,-5.0
2883.0,2813.0,2891.0,3125.0,3045.0,0.860474,0.033936,-0.508301,0.005737,0.0,0.0,-1.0,7555.0,408.0,2209.0,385.0,-22.0,-1730.0,1699.0,79.0,-496.0,0.875148,0.052569,0.480926,15090.0,894.0,4410.0,13.0,15.0,-4.0
2903.0,2833.0,2923.0,3155.0,3035.0,0.859741,0.034119,-0.509521,0.005737,0.0,1.0,-1.0,7556.0,433.0,2212.0,375.0,0.0,-1707.0,1675.0,100.0,-487.0,0.876505,0.05282,0.478412,15052.0,914.0,4414.0,11.0,23.0,-7.0
2886.0,2823.0,2895.0,3139.0,3043.0,0.859375,0.034241,-0.510132,0.005676,0.0,0.0,-1.0,7529.0,445.0,2206.0,343.0,10.0,-1702.0,1655.0,111.0,-510.0,0.877178,0.05306,0.477151,14928.0,918.0,4412.0,7.0,12.0,-10.0
2870.0,2807.0,2887.0,3135.0,3013.0,0.858582,0.034424,-0.511414,0.005737,0.0,-1.0,0.0,7508.0,452.0,2210.0,310.0,15.0,-1676.0,1618.0,116.0,-522.0,0.878576,0.053243,0.474466,15080.0,986.0,4500.0,12.0,-8.0,0.0
2875.0,2831.0,2895.0,3111.0,3015.0,0.858215,0.034546,-0.512085,0.005737,0.0,-1.0,-1.0,7523.0,455.0,2210.0,319.0,17.0,-1665.0,1613.0,117.0,-506.0,0.879355,0.05342,0.473142,15106.0,958.0,4356.0,14.0,0.0,-1.0
2875.0,2801.0,2891.0,3159.0,3024.0,0.857422,0.03479,-0.513428,0.005859,0.0,0.0,0.0,7546.0,470.0,2185.0,330.0,30.0,-1668.0,1622.0,131.0,-492.0,0.880856,0.053643,0.470388,15188.0,920.0,4284.0,12.0,4.0,2.0
2875.0,2800.0,2895.0,3147.0,3031.0,0.856995,0.034912,-0.514038,0.00592,0.0,0.0,0.0,7555.0,472.0,2170.0,334.0,31.0,-1672.0,1628.0,132.0,-488.0,0.881469,0.053752,0.469021,15130.0,966.0,4220.0,12.0,15.0,3.0
2879.0,2810.0,2879.0,3135.0,3043.0,0.856323,0.035095,-0.515198,0.00592,0.0,0.0,0.0,7526.0,480.0,2156.0,294.0,37.0,-1666.0,1605.0,139.0,-515.0,0.882767,0.054005,0.466664,14894.0,922.0,4298.0,3.0,18.0,1.0
2879.0,2818.0,2895.0,3154.0,3053.0,0.855957,0.035095,-0.515808,0.005981,-1.0,0.0,0.0,7506.0,482.0,2155.0,268.0,40.0,-1657.0,1585.0,142.0,-532.0,0.883439,0.053909,0.465409,14932.0,970.0,4326.0,-2.0,5.0,10.0
2883.0,2815.0,2879.0,3153.0,3003.0,0.855164,0.035095,-0.51709,0.006042,-1.0,0.0,0.0,7531.0,458.0,2172.0,282.0,17.0,-1618.0,1560.0,116.0,-498.0,0.884817,0.053775,0.462728,15182.0,856.0,4358.0,-6.0,9.0,11.0
2893.0,2823.0,2903.0,3139.0,3047.0,0.854858,0.035095,-0.517639,0.006042,-1.0,0.0,0.0,7536.0,463.0,2178.0,282.0,22.0,-1603.0,1547.0,120.0,-489.0,0.88544,0.053747,0.461637,15082.0,958.0,4386.0,-6.0,17.0,11.0
2887.0,2823.0,2893.0,3135.0,3003.0,0.854187,0.035034,-0.518677,0.006104,-1.0,0.0,0.0,7541.0,430.0,2196.0,278.0,-8.0,-1567.0,1516.0,88.0,-473.0,0.886522,0.05352,0.45942,15096.0,736.0,4456.0,-8.0,20.0,2.0
2873.0,2803.0,2875.0,3127.0,3027.0,0.853882,0.035034,-0.519226,0.006104,0.0,1.0,-1.0,7539.0,421.0,2196.0,271.0,-17.0,-1558.0,1506.0,79.0,-474.0,0.887143,0.053492,0.458328,15024.0,820.0,4346.0,1.0,24.0,-3.0
2894.0,2829.0,2896.0,3157.0,3003.0,0.853271,0.035095,-0.520264,0.006042,-1.0,0.0,-1.0,7528.0,432.0,2210.0,251.0,-7.0,-1527.0,1470.0,87.0,-474.0,0.888276,0.053604,0.456203,15004.0,950.0,4482.0,-11.0,9.0,-2.0
2890.0,2823.0,2889.0,3127.0,3023.0,0.852905,0.035034,-0.520813,0.005981,-1.0,0.0,0.0,7533.0,434.0,2231.0,251.0,-4.0,-1496.0,1443.0,88.0,-457.0,0.888827,0.053531,0.45501,15108.0,850.0,4564.0,-18.0,4.0,1.0
2894.0,2821.0,2923.0,3139.0,3024.0,0.852234,0.034973,-0.521973,0.00592,-1.0,0.0,-1.0,7538.0,432.0,2243.0,246.0,-5.0,-1465.0,1414.0,84.0,-444.0,0.8901,0.05343,0.452659,15130.0,834.0,4596.0,-12.0,2.0,-2.0
2887.0,2801.0,2883.0,3135.0,2990.0,0.851868,0.034973,-0.522522,0.005859,-1.0,-1.0,0.0,7545.0,427.0,2252.0,248.0,-10.0,-1446.0,1399.0,78.0,-432.0,0.890649,0.053462,0.451461,15150.0,840.0,4582.0,-7.0,-1.0,0.0
2895.0,2823.0,2883.0,3143.0,3023.0,0.851135,0.035034,-0.523682,0.00592,0.0,-1.0,0.0,7551.0,436.0,2277.0,244.0,-1.0,-1401.0,1358.0,84.0,-411.0,0.891863,0.053437,0.448996,15152.0,1006.0,4642.0,11.0,-10.0,0.0
2896.0,2821.0,2895.0,3121.0,3063.0,0.85083,0.035156,-0.524231,0.00592,0.0,-1.0,-1.0,7556.0,458.0,2282.0,244.0,18.0,-1387.0,1345.0,103.0,-402.0,0.892479,0.053617,0.447893,15122.0,1030.0,4588.0,11.0,-6.0,-3.0
2885.0,2823.0,2898.0,3159.0,3023.0,0.850098,0.035339,-0.525391,0.005859,-1.0,-1.0,-1.0,7546.0,484.0,2262.0,224.0,42.0,-1386.0,1335.0,127.0,-414.0,0.893681,0.053927,0.445416,15064.0,1020.0,4408.0,-2.0,-7.0,-5.0
2885.0,2811.0,2923.0,3139.0,3062.0,0.849731,0.035339,-0.526001,0.005859,-1.0,-1.0,0.0,7529.0,484.0,2237.0,202.0,42.0,-1401.0,1340.0,129.0,-439.0,0.894333,0.053894,0.444152,14932.0,984.0,4328.0,-6.0,-12.0,0.0
2895.0,2815.0,2881.0,3151.0,3043.0,0.848938,0.035339,-0.527283,0.005798,-1.0,-1.0,0.0,7530.0,461.0,2207.0,192.0,19.0,-1409.0,1345.0,106.0,-449.0,0.89567,0.053887,0.441453,15180.0,802.0,4302.0,-10.0,-19.0,4.0
2891.0,2829.0,2887.0,3139.0,3043.0,0.848511,0.035339,-0.527954,0.005798,-1.0,-1.0,0.0,7541.0,447.0,2188.0,198.0,5.0,-1416.0,1355.0,93.0,-445.0,0.896359,0.053849,0.44002,15122.0,850.0,4248.0,-4.0,-8.0,5.0
2883.0,2822.0,2896.0,3147.0,3061.0,0.847839,0.0354,-0.528992,0.005798,0.0,0.0,-1.0,7540.0,446.0,2167.0,188.0,4.0,-1419.0,1354.0,92.0,-452.0,0.897411,0.053893,0.43778,15084.0,914.0,4272.0,5.0,10.0,-1.0
2895.0,2801.0,2865.0,3137.0,3019.0,0.847534,0.035461,-0.529541,0.005798,-1.0,0.0,-1.0,7536.0,458.0,2162.0,179.0,15.0,-1415.0,1347.0,103.0,-456.0,0.898019,0.053969,0.436677,15066.0,1000.0,4286.0,-1.0,12.0,-2.0
2897.0,2815.0,2895.0,3135.0,3046.0,0.846924,0.035461,-0.530457,0.005737,-1.0,1.0,0.0,7534.0,455.0,2153.0,170.0,12.0,-1407.0,1337.0,100.0,-458.0,0.898919,0.053979,0.434671,14952.0,900.0,4300.0,-8.0,25.0,2.0
2877.0,2815.0,2899.0,3123.0,3027.0,0.84668,0.035461,-0.530884,0.005737,-1.0,0.0,0.0,7508.0,462.0,2166.0,140.0,19.0,-1387.0,1306.0,106.0,-474.0,0.899384,0.053957,0.433804,14888.0,1008.0,4458.0,-7.0,13.0,5.0
2899.0,2826.0,2899.0,3135.0,3047.0,0.846069,0.035461,-0.531799,0.005737,-1.0,0.0,0.0,7528.0,477.0,2206.0,152.0,35.0,-1331.0,1261.0,118.0,-435.0,0.900285,0.053903,0.431798,15110.0,1020.0,4498.0,-8.0,10.0,7.0
2874.0,2810.0,2897.0,3141.0,3039.0,0.845825,0.035461,-0.532288,0.005737,-1.0,0.0,0.0,7526.0,480.0,2228.0,146.0,38.0,-1301.0,1232.0,119.0,-426.0,0.900851,0.053881,0.430866,15070.0,952.0,4600.0,-12.0,2.0,11.0
2882.0,2821.0,2903.0,3123.0,3039.0,0.845154,0.035339,-0.533264,0.005737,-1.0,-1.0,0.0,7555.0,472.0,2265.0,167.0,32.0,-1246.0,1193.0,109.0,-381.0,0.901786,0.053615,0.428698,15204.0,880.0,4606.0,-11.0,-5.0,7.0
2895.0,2832.0,2905.0,3133.0,3045.0,0.844849,0.035339,-0.533752,0.005737,-1.0,-1.0,0.0,7559.0,469.0,2266.0,167.0,30.0,-1237.0,1185.0,106.0,-376.0,0.902286,0.053588,0.427662,15134.0,964.0,4540.0,-9.0,-1.0,9.0
2867.0,2829.0,2895.0,3126.0,3045.0,0.844299,0.035339,-0.534668,0.005798,0.0,0.0,0.0,7562.0,452.0,2250.0,162.0,13.0,-1237.0,1185.0,89.0,-379.0,0.903249,0.053474,0.425756,15124.0,856.0,4446.0,4.0,9.0,3.0
2882.0,2807.0,2899.0,3139.0,3031.0,0.843994,0.0354,-0.535095,0.005798,0.0,0.0,0.0,7552.0,442.0,2248.0,149.0,3.0,-1231.0,1174.0,80.0,-388.0,0.903645,0.05355,0.42478,15032.0,810.0,4480.0,15.0,14.0,2.0
2878.0,2815.0,2899.0,3133.0,3027.0,0.84375,0.035461,-0.535522,0.00592,0.0,0.0,0.0,7534.0,442.0,2240.0,127.0,3.0,-1232.0,1166.0,80.0,-407.0,0.904114,0.0535,0.423907,14950.0,930.0,4416.0,18.0,12.0,5.0
2887.0,2819.0,2891.0,3127.0,3055.0,0.84314,0.035522,-0.536438,0.006042,-1.0,-1.0,0.0,7489.0,450.0,2228.0,75.0,12.0,-1228.0,1141.0,91.0,-449.0,0.905014,0.053418,0.421893,14882.0,926.0,4422.0,0.0,-10.0,14.0
2893.0,2817.0,2901.0,3127.0,3035.0,0.842773,0.035522,-0.536987,0.006042,-1.0,-1.0,0.0,7494.0,436.0,2226.0,75.0,-1.0,-1220.0,1135.0,77.0,-445.0,0.905547,0.053385,0.420686,15030.0,750.0,4488.0,-9.0,-22.0,13.0
2887.0,2811.0,2887.0,3155.0,3039.0,0.842102,0.0354,-0.538147,0.006104,-1.0,-1.0,0.0,7523.0,400.0,2228.0,94.0,-34.0,-1198.0,1126.0,42.0,-417.0,0.906781,0.053052,0.418318,15128.0,704.0,4466.0,-6.0,-18.0,6.0
2895.0,2831.0,2909.0,3133.0,3039.0,0.841736,0.035339,-0.538635,0.006165,-1.0,-1.0,0.0,7517.0,399.0,2223.0,85.0,-33.0,-1194.0,1119.0,43.0,-422.0,0.907213,0.052852,0.41718,14988.0,828.0,4428.0,-1.0,-20.0,8.0
2891.0,2827.0,2915.0,3143.0,3031.0,0.841064,0.0354,-0.539734,0.006165,-1.0,-1.0,-1.0,7555.0,418.0,2235.0,113.0,-15.0,-1163.0,1103.0,58.0,-380.0,0.908338,0.052894,0.414862,15270.0,878.0,4502.0,-8.0,-20.0,-2.0
2881.0,2815.0,2927.0,3131.0,3047.0,0.840698,0.035339,-0.540222,0.006104,-1.0,-1.0,0.0,7562.0,424.0,2233.0,117.0,-8.0,-1156.0,1098.0,65.0,-372.0,0.908759,0.052825,0.413722,15112.0,898.0,4450.0,-10.0,-9.0,1.0
2889.0,2815.0,2896.0,3135.0,3047.0,0.840088,0.035278,-0.54126,0.006104,-1.0,-1.0,0.0,7532.0,420.0,2223.0,78.0,-11.0,-1148.0,1076.0,62.0,-402.0,0.909842,0.052667,0.411578,14980.0,796.0,4418.0,-9.0,-21.0,7.0
2894.0,2815.0,2881.0,3151.0,3031.0,0.839722,0.035278,-0.541809,0.006104,-1.0,-2.0,0.0,7516.0,412.0,2221.0,58.0,-19.0,-1140.0,1061.0,54.0,-416.0,0.910368,0.052634,0.410368,14934.0,776.0,4408.0,-6.0,-28.0,11.0
2881.0,2818.0,2887.0,3137.0,3051.0,0.838989,0.035217,-0.542969,0.006226,0.0,-2.0,0.0,7511.0,395.0,2220.0,43.0,-33.0,-1121.0,1040.0,39.0,-419.0,0.911528,0.052333,0.407886,15086.0,800.0,4424.0,4.0,-44.0,12.0
2881.0,2826.0,2902.0,3135.0,3039.0,0.838562,0.035217,-0.543579,0.006287,0.0,-2.0,0.0,7519.0,410.0,2219.0,47.0,-17.0,-1111.0,1032.0,54.0,-409.0,0.912092,0.052229,0.406507,15054.0,944.0,4434.0,5.0,-42.0,8.0
2894.0,2822.0,2887.0,3131.0,3029.0,0.83783,0.035217,-0.544739,0.006165,-1.0,-2.0,-1.0,7575.0,451.0,2219.0,93.0,22.0,-1090.0,1031.0,90.0,-354.0,0.913231,0.052296,0.404016,15432.0,924.0,4444.0,-20.0,-27.0,-10.0
2896.0,2811.0,2899.0,3142.0,3039.0,0.837524,0.035217,-0.545227,0.006042,-1.0,-1.0,-1.0,7595.0,439.0,2207.0,109.0,9.0,-1094.0,1042.0,77.0,-340.0,0.913708,0.052402,0.402971,15272.0,812.0,4296.0,-12.0,-5.0,-11.0
2895.0,2819.0,2886.0,3151.0,3023.0,0.836975,0.0354,-0.546082,0.005981,0.0,0.0,-1.0,7582.0,447.0,2175.0,90.0,15.0,-1110.0,1049.0,85.0,-362.0,0.914537,0.052726,0.401105,15060.0,980.0,4244.0,12.0,9.0,-13.0
2883.0,2807.0,2902.0,3147.0,3025.0,0.83667,0.035522,-0.546448,0.00592,0.0,0.0,-1.0,7549.0,472.0,2163.0,54.0,38.0,-1115.0,1038.0,109.0,-394.0,0.914813,0.052971,0.400185,14902.0,1088.0,4254.0,12.0,4.0,-5.0
2877.0,2811.0,2883.0,3151.0,3035.0,0.836121,0.035645,-0.547302,0.00592,-1.0,-1.0,0.0,7511.0,507.0,2151.0,10.0,71.0,-1112.0,1017.0,144.0,-430.0,0.915643,0.053126,0.398322,14904.0,1080.0,4282.0,-6.0,-10.0,7.0
2886.0,2817.0,2881.0,3135.0,3039.0,0.835815,0.035645,-0.547791,0.00592,-1.0,-1.0,0.0,7521.0,495.0,2152.0,16.0,60.0,-1102.0,1012.0,132.0,-419.0,0.916126,0.053098,0.397277,15140.0,888.0,4330.0,-13.0,-20.0,12.0
2877.0,2819.0,2897.0,3151.0,3024.0,0.835205,0.035583,-0.548706,0.005981,-1.0,-1.0,0.0,7548.0,468.0,2146.0,36.0,34.0,-1091.0,1012.0,104.0,-396.0,0.91699,0.052875,0.395259,15202.0,852.0,4260.0,-1.0,-6.0,7.0
2891.0,2802.0,2895.0,3147.0,2998.0,0.834961,0.035645,-0.549133,0.005981,0.0,0.0,0.0,7560.0,460.0,2152.0,44.0,26.0,-1078.0,1004.0,95.0,-383.0,0.917436,0.052954,0.394378,15172.0,882.0,4340.0,7.0,5.0,6.0
2896.0,2822.0,2881.0,3152.0,3029.0,0.834717,0.035645,-0.549438,0.006042,0.0,0.0,0.0,7563.0,468.0,2158.0,45.0,34.0,-1066.0,993.0,103.0,-376.0,0.917682,0.052866,0.393635,15098.0,998.0,4380.0,3.0,15.0,4.0
2877.0,2814.0,2903.0,3147.0,3047.0,0.834351,0.035645,-0.550049,0.005981,-1.0,0.0,0.0,7558.0,458.0,2169.0,35.0,24.0,-1045.0,971.0,91.0,-376.0,0.918294,0.0529,0.392352,15130.0,830.0,4384.0,-21.0,18.0,0.0
2885.0,2806.0,2905.0,3143.0,3039.0,0.834106,0.035522,-0.550354,0.00592,-1.0,0.0,-1.0,7553.0,426.0,2173.0,28.0,-6.0,-1035.0,961.0,61.0,-379.0,0.918528,0.052742,0.391617,15070.0,636.0,4334.0,-16.0,19.0,-1.0
2882.0,2814.0,2896.0,3151.0,3007.0,0.833679,0.035522,-0.551025,0.005981,0.0,0.0,0.0,7511.0,396.0,2183.0,-18.0,-35.0,-1013.0,924.0,32.0,-413.0,0.919182,0.052637,0.390166,14944.0,784.0,4402.0,6.0,1.0,5.0
2887.0,2819.0,2906.0,3135.0,3031.0,0.833435,0.035522,-0.551392,0.006042,0.0,-1.0,0.0,7519.0,404.0,2195.0,-13.0,-26.0,-994.0,909.0,39.0,-400.0,0.919527,0.052548,0.389356,15148.0,870.0,4510.0,8.0,-10.0,8.0
2891.0,2832.0,2896.0,3151.0,3029.0,0.833008,0.035583,-0.552063,0.006104,-1.0,0.0,0.0,7563.0,430.0,2225.0,24.0,0.0,-952.0,884.0,62.0,-347.0,0.92018,0.052544,0.3879,15200.0,880.0,4518.0,-1.0,8.0,3.0
2866.0,2820.0,2885.0,3149.0,3014.0,0.832825,0.035583,-0.552368,0.006104,-1.0,0.0,0.0,7561.0,434.0,2223.0,20.0,3.0,-949.0,880.0,65.0,-348.0,0.920486,0.052527,0.387258,15064.0,904.0,4400.0,0.0,15.0,4.0
2878.0,2827.0,2896.0,3167.0,3021.0,0.832581,0.035645,-0.552673,0.006104,-1.0,0.0,-1.0,7550.0,438.0,2226.0,7.0,7.0,-940.0,867.0,68.0,-356.0,0.920725,0.052607,0.386509,15054.0,902.0,4518.0,0.0,9.0,-1.0
2883.0,2815.0,2879.0,3143.0,3051.0,0.832153,0.035645,-0.553345,0.006042,-1.0,-1.0,0.0,7523.0,435.0,2221.0,-24.0,3.0,-933.0,849.0,65.0,-381.0,0.921366,0.052636,0.385055,14944.0,846.0,4422.0,-13.0,-7.0,3.0
2879.0,2800.0,2898.0,3155.0,3015.0,0.831909,0.035522,-0.553772,0.006042,-1.0,-1.0,0.0,7524.0,421.0,2211.0,-27.0,-8.0,-936.0,851.0,54.0,-384.0,0.921805,0.052411,0.384184,15066.0,750.0,4334.0,-18.0,-14.0,4.0
2896.0,2810.0,2886.0,3142.0,3031.0,0.83136,0.035461,-0.554565,0.005981,-1.0,-1.0,0.0,7522.0,400.0,2189.0,-35.0,-28.0,-943.0,857.0,34.0,-394.0,0.922511,0.052328,0.382395,14992.0,788.0,4322.0,-5.0,-14.0,0.0
2887.0,2807.0,2895.0,3135.0,3039.0,0.831055,0.035461,-0.554993,0.005981,-1.0,-1.0,-1.0,7531.0,406.0,2193.0,-29.0,-22.0,-931.0,848.0,39.0,-383.0,0.922883,0.052301,0.381413,15166.0,854.0,4458.0,-4.0,-15.0,-4.0
2894.0,2828.0,2899.0,3167.0,3035.0,0.830627,0.035461,-0.555664,0.005859,-1.0,0.0,-1.0,7547.0,426.0,2207.0,-18.0,-3.0,-905.0,828.0,56.0,-360.0,0.923515,0.052399,0.379956,15052.0,944.0,4422.0,-11.0,3.0,-1.0
2894.0,2815.0,2883.0,3123.0,3035.0,0.830444,0.0354,-0.555969,0.005798,-1.0,0.0,-1.0,7549.0,431.0,2219.0,-18.0,2.0,-888.0,812.0,60.0,-353.0,0.923814,0.052349,0.379316,15112.0,874.0,4468.0,-13.0,6.0,-2.0
2879.0,2827.0,2879.0,3151.0,3047.0,0.830078,0.0354,-0.556519,0.005798,-1.0,-1.0,0.0,7516.0,438.0,2225.0,-56.0,9.0,-872.0,783.0,67.0,-380.0,0.924318,0.052316,0.378097,14890.0,922.0,4440.0,-8.0,-1.0,5.0
2903.0,2815.0,2923.0,3155.0,3035.0,0.829834,0.035339,-0.556885,0.005737,-1.0,-1.0,0.0,7505.0,442.0,2223.0,-69.0,13.0,-867.0,774.0,71.0,-390.0,0.924649,0.052262,0.377288,14990.0,892.0,4424.0,-11.0,-16.0,5.0
2883.0,2815.0,2885.0,3151.0,3047.0,0.829285,0.035278,-0.557678,0.005737,-1.0,-1.0,0.0,7528.0,422.0,2210.0,-52.0,-4.0,-866.0,781.0,53.0,-373.0,0.925353,0.052112,0.375496,15110.0,812.0,4346.0,-1.0,-21.0,3.0
2896.0,2787.0,2903.0,3135.0,3042.0,0.828979,0.035278,-0.558105,0.005737,0.0,-1.0,0.0,7550.0,429.0,2203.0,-33.0,2.0,-865.0,787.0,59.0,-354.0,0.925721,0.052086,0.374514,15276.0,932.0,4366.0,4.0,-18.0,0.0
2883.0,2807.0,2891.0,3126.0,3011.0,0.828491,0.0354,-0.558777,0.005676,-1.0,0.0,-1.0,7571.0,446.0,2179.0,-17.0,17.0,-876.0,803.0,74.0,-341.0,0.926285,0.052314,0.372945,15086.0,890.0,4256.0,-8.0,4.0,-8.0
2887.0,2807.0,2903.0,3135.0,3043.0,0.828308,0.0354,-0.559143,0.005554,-1.0,0.0,-1.0,7559.0,448.0,2162.0,-32.0,18.0,-887.0,808.0,76.0,-358.0,0.926679,0.052434,0.372231,15046.0,918.0,4240.0,-13.0,4.0,-8.0
2883.0,2811.0,2901.0,3147.0,3035.0,0.827881,0.0354,-0.559753,0.005432,-1.0,0.0,-1.0,7560.0,444.0,2156.0,-35.0,13.0,-881.0,802.0,71.0,-358.0,0.927203,0.052533,0.370839,15114.0,854.0,4280.0,-11.0,4.0,-6.0
2889.0,2815.0,2879.0,3103.0,3023.0,0.827698,0.0354,-0.560059,0.005371,-1.0,0.0,-1.0,7548.0,453.0,2158.0,-50.0,22.0,-874.0,790.0,79.0,-368.0,0.927499,0.052585,0.370194,15024.0,936.0,4348.0,-10.0,5.0,-4.0
2879.0,2809.0,2895.0,3147.0,3043.0,0.827271,0.035461,-0.560608,0.00531,0.0,-1.0,-1.0,7541.0,458.0,2191.0,-60.0,26.0,-830.0,746.0,81.0,-360.0,0.927925,0.052719,0.368866,15112.0,974.0,4616.0,4.0,0.0,-1.0
2883.0,2821.0,2903.0,3139.0,3045.0,0.827087,0.035522,-0.560913,0.00531,0.0,-1.0,-1.0,7540.0,470.0,2213.0,-64.0,37.0,-803.0,719.0,90.0,-353.0,0.928226,0.052803,0.368216,15026.0,998.0,4520.0,2.0,-1.0,-1.0
2896.0,2815.0,2896.0,3143.0,3051.0,0.82666,0.035583,-0.561523,0.005249,-1.0,-1.0,0.0,7529.0,470.0,2238.0,-79.0,36.0,-766.0,679.0,87.0,-352.0,0.928752,0.052936,0.36682,15076.0,892.0,4516.0,-4.0,-21.0,0.0
2895.0,2815.0,2877.0,3147.0,3039.0,0.826416,0.035583,-0.56189,0.005249,-1.0,-2.0,-1.0,7542.0,458.0,2230.0,-69.0,24.0,-768.0,686.0,75.0,-343.0,0.929083,0.052915,0.366005,15182.0,856.0,4416.0,-3.0,-23.0,-2.0
2895.0,2803.0,2887.0,3141.0,3015.0,0.825989,0.035645,-0.562561,0.005127,-1.0,0.0,-1.0,7568.0,454.0,2199.0,-48.0,18.0,-787.0,712.0,70.0,-330.0,0.929704,0.053116,0.364538,15168.0,928.0,4324.0,-3.0,4.0,-11.0
2881.0,2823.0,2909.0,3151.0,3027.0,0.825806,0.035706,-0.562744,0.005066,-1.0,0.0,-1.0,7557.0,444.0,2192.0,-59.0,7.0,-790.0,712.0,59.0,-342.0,0.929796,0.05327,0.364025,15046.0,792.0,4334.0,-7.0,12.0,-13.0
2883.0,2815.0,2899.0,3141.0,3043.0,0.825439,0.035767,-0.563293,0.005005,0.0,0.0,-1.0,7520.0,429.0,2167.0,-100.0,-8.0,-805.0,712.0,47.0,-385.0,0.930287,0.053408,0.362797,14932.0,846.0,4236.0,3.0,3.0,-10.0
2881.0,2801.0,2897.0,3111.0,3031.0,0.825256,0.035828,-0.563538,0.004944,0.0,-1.0,-1.0,7512.0,426.0,2180.0,-110.0,-12.0,-787.0,692.0,42.0,-388.0,0.93048,0.053562,0.362214,14974.0,864.0,4486.0,7.0,-4.0,-7.0
2881.0,2815.0,2883.0,3115.0,3031.0,0.824829,0.03595,-0.564209,0.004944,0.0,-1.0,0.0,7501.0,457.0,2193.0,-126.0,16.0,-762.0,662.0,69.0,-391.0,0.931107,0.053726,0.360743,15028.0,994.0,4464.0,1.0,-21.0,4.0
2895.0,2823.0,2897.0,3143.0,3027.0,0.824585,0.03595,-0.564514,0.005005,0.0,-2.0,0.0,7530.0,460.0,2215.0,-99.0,20.0,-734.0,646.0,70.0,-355.0,0.93134,0.053637,0.359997,15286.0,928.0,4570.0,2.0,-23.0,7.0
2883.0,2815.0,2903.0,3149.0,3025.0,0.824158,0.036072,-0.565186,0.005066,0.0,-1.0,0.0,7555.0,467.0,2235.0,-79.0,26.0,-702.0,623.0,74.0,-323.0,0.93197,0.053731,0.358526,15118.0,930.0,4462.0,7.0,-16.0,7.0
2890.0,2815.0,2898.0,3125.0,3026.0,0.823914,0.036072,-0.565491,0.005127,0.0,-1.0,0.0,7560.0,465.0,2237.0,-76.0,25.0,-693.0,616.0,72.0,-317.0,0.932201,0.053642,0.357779,15164.0,926.0,4452.0,4.0,-20.0,11.0
2887.0,2815.0,2893.0,3135.0,3024.0,0.823486,0.036072,-0.566101,0.005188,-1.0,-1.0,0.0,7559.0,455.0,2205.0,-81.0,16.0,-714.0,635.0,65.0,-329.0,0.932727,0.053535,0.356385,15066.0,856.0,4298.0,0.0,-11.0,1.0
2894.0,2821.0,2895.0,3120.0,3039.0,0.823242,0.036072,-0.566467,0.005127,-1.0,-1.0,-1.0,7550.0,438.0,2172.0,-93.0,0.0,-740.0,656.0,51.0,-349.0,0.933049,0.053583,0.355568,15028.0,776.0,4140.0,-2.0,-12.0,-3.0
2893.0,2823.0,2902.0,3147.0,3047.0,0.822754,0.036133,-0.5672,0.005188,0.0,-1.0,0.0,7529.0,413.0,2137.0,-119.0,-25.0,-762.0,669.0,28.0,-382.0,0.933706,0.053572,0.35393,15042.0,806.0,4174.0,8.0,-20.0,1.0
2893.0,2807.0,2887.0,3121.0,3051.0,0.82251,0.036133,-0.567505,0.005188,0.0,-1.0,0.0,7533.0,414.0,2128.0,-117.0,-24.0,-765.0,673.0,29.0,-380.0,0.933932,0.053551,0.353182,15088.0,860.0,4176.0,9.0,-15.0,1.0
2891.0,2807.0,2943.0,3095.0,3029.0,0.822083,0.036255,-0.568176,0.005249,-1.0,0.0,0.0,7565.0,440.0,2091.0,-90.0,0.0,-790.0,705.0,54.0,-361.0,0.934556,0.053644,0.351709,15164.0,946.0,4122.0,-2.0,9.0,1.0
2877.0,2821.0,2897.0,3143.0,3047.0,0.82196,0.036255,-0.568359,0.005188,-1.0,0.0,-1.0,7559.0,447.0,2087.0,-98.0,7.0,-790.0,702.0,61.0,-368.0,0.934714,0.053703,0.351299,15058.0,926.0,4166.0,-8.0,19.0,-2.0
2883.0,2815.0,2895.0,3135.0,3039.0,0.821838,0.036194,-0.568542,0.005127,-1.0,0.0,-1.0,7557.0,455.0,2090.0,-101.0,15.0,-784.0,695.0,69.0,-368.0,0.934871,0.053661,0.350894,15100.0,958.0,4206.0,-12.0,20.0,-1.0
2882.0,2815.0,2893.0,3131.0,3037.0,0.821655,0.036194,-0.568848,0.005066,-1.0,1.0,0.0,7540.0,455.0,2117.0,-120.0,14.0,-752.0,659.0,66.0,-374.0,0.93516,0.053714,0.350245,14932.0,914.0,4324.0,-11.0,25.0,4.0
2890.0,2822.0,2898.0,3147.0,3034.0,0.821533,0.036133,-0.56897,0.005066,-1.0,0.0,0.0,7513.0,454.0,2131.0,-148.0,14.0,-735.0,633.0,66.0,-394.0,0.935221,0.053604,0.34991,14888.0,896.0,4370.0,-6.0,15.0,7.0
2885.0,2817.0,2895.0,3149.0,3039.0,0.821228,0.036133,-0.569397,0.005127,0.0,-1.0,0.0,7525.0,474.0,2184.0,-139.0,35.0,-674.0,579.0,83.0,-363.0,0.93558,0.053508,0.348923,15146.0,1072.0,4502.0,4.0,-1.0,11.0
2883.0,2815.0,2891.0,3127.0,3031.0,0.821106,0.036194,-0.569641,0.005127,-1.0,-1.0,0.0,7545.0,492.0,2209.0,-121.0,52.0,-645.0,558.0,97.0,-335.0,0.935843,0.053597,0.34844,15212.0,1108.0,4604.0,-5.0,0.0,9.0
2883.0,2810.0,2895.0,3127.0,3031.0,0.820801,0.036072,-0.570007,0.005066,-1.0,0.0,0.0,7571.0,469.0,2222.0,-97.0,31.0,-624.0,548.0,74.0,-306.0,0.93609,0.05344,0.34753,15176.0,784.0,4426.0,-15.0,6.0,5.0
2891.0,2817.0,2898.0,3151.0,3039.0,0.820679,0.036011,-0.57019,0.005066,-1.0,0.0,0.0,7573.0,444.0,2231.0,-96.0,7.0,-612.0,538.0,49.0,-301.0,0.936251,0.053329,0.347125,15140.0,730.0,4504.0,-5.0,7.0,4.0
2891.0,2823.0,2901.0,3151.0,3047.0,0.820435,0.036011,-0.570557,0.005188,0.0,0.0,0.0,7561.0,411.0,2221.0,-111.0,-24.0,-615.0,538.0,19.0,-318.0,0.936582,0.053169,0.346308,15140.0,774.0,4390.0,6.0,2.0,2.0
2885.0,2815.0,2874.0,3123.0,3027.0,0.820312,0.036011,-0.570801,0.005188,0.0,0.0,0.0,7556.0,411.0,2215.0,-118.0,-24.0,-618.0,538.0,20.0,-325.0,0.936844,0.053158,0.345829,15050.0,818.0,4424.0,4.0,4.0,1.0
2884.0,2815.0,2887.0,3135.0,3039.0,0.820007,0.03595,-0.571228,0.005188,-1.0,-1.0,0.0,7520.0,403.0,2200.0,-157.0,-31.0,-624.0,531.0,14.0,-363.0,0.937195,0.053031,0.344845,14946.0,774.0,4332.0,-9.0,-9.0,0.0
2891.0,2819.0,2899.0,3142.0,3039.0,0.819763,0.03595,-0.571472,0.005188,-1.0,-1.0,0.0,7515.0,394.0,2201.0,-163.0,-40.0,-618.0,524.0,5.0,-367.0,0.937317,0.053011,0.344166,15028.0,742.0,4398.0,-7.0,-15.0,0.0
2894.0,2827.0,2900.0,3151.0,3039.0,0.819458,0.035889,-0.572021,0.005066,-1.0,-1.0,-1.0,7559.0,410.0,2199.0,-123.0,-24.0,-611.0,531.0,19.0,-326.0,0.937859,0.053023,0.34304,15232.0,880.0,4368.0,-7.0,-2.0,-9.0
2889.0,2815.0,2895.0,3131.0,3037.0,0.819275,0.03595,-0.572205,0.005005,-1.0,0.0,-1.0,7554.0,422.0,2191.0,-129.0,-13.0,-614.0,531.0,30.0,-331.0,0.937946,0.053178,0.342526,15042.0,944.0,4336.0,-8.0,5.0,-8.0
2883.0,2815.0,2897.0,3133.0,3039.0,0.81897,0.03595,-0.572632,0.004883,-1.0,-1.0,-1.0,7555.0,447.0,2183.0,-131.0,10.0,-614.0,530.0,53.0,-332.0,0.938287,0.053291,0.341536,15150.0,942.0,4322.0,-9.0,-1.0,-7.0
2893.0,2823.0,2891.0,3143.0,3037.0,0.818848,0.03595,-0.572815,0.004822,-1.0,0.0,-1.0,7559.0,460.0,2179.0,-128.0,22.0,-615.0,531.0,65.0,-328.0,0.938443,0.053351,0.341125,15124.0,1042.0,4348.0,-7.0,6.0,-6.0
2893.0,2822.0,2897.0,3143.0,3039.0,0.818604,0.036011,-0.573181,0.0047,-1.0,0.0,0.0,7532.0,484.0,2178.0,-158.0,45.0,-609.0,514.0,89.0,-353.0,0.938755,0.053569,0.3403,14962.0,1038.0,4312.0,-2.0,7.0,2.0
2886.0,2819.0,2896.0,3127.0,3027.0,0.818481,0.036072,-0.573364,0.0047,-1.0,-1.0,0.0,7513.0,492.0,2179.0,-178.0,52.0,-605.0,504.0,96.0,-369.0,0.938915,0.053659,0.339886,14942.0,1016.0,4382.0,-3.0,-2.0,4.0
2886.0,2815.0,2887.0,3134.0,3039.0,0.818176,0.036011,-0.573853,0.004761,-1.0,-1.0,0.0,7518.0,489.0,2179.0,-177.0,51.0,-596.0,496.0,95.0,-365.0,0.939368,0.053462,0.338832,15120.0,940.0,4324.0,-2.0,-14.0,14.0
2886.0,2819.0,2903.0,3152.0,3043.0,0.817993,0.036011,-0.574097,0.004761,0.0,-1.0,0.0,7535.0,489.0,2182.0,-161.0,51.0,-588.0,494.0,94.0,-347.0,0.939557,0.053447,0.338252,15168.0,954.0,4346.0,1.0,-4.0,12.0
2887.0,2823.0,2899.0,3149.0,3039.0,0.817749,0.036011,-0.574463,0.004822,-1.0,0.0,0.0,7558.0,477.0,2178.0,-141.0,39.0,-586.0,500.0,81.0,-328.0,0.93988,0.053356,0.337432,15142.0,948.0,4314.0,0.0,9.0,9.0
2887.0,2819.0,2894.0,3131.0,3031.0,0.817627,0.036011,-0.574585,0.004822,-1.0,0.0,0.0,7566.0,470.0,2174.0,-133.0,32.0,-587.0,504.0,74.0,-321.0,0.93994,0.053346,0.337092,15188.0,894.0,4336.0,-5.0,13.0,9.0
2887.0,2815.0,2901.0,3123.0,3031.0,0.817444,0.03595,-0.574829,0.004883,-1.0,0.0,0.0,7549.0,436.0,2162.0,-152.0,0.0,-594.0,506.0,43.0,-342.0,0.940132,0.05316,0.336517,15010.0,766.0,4294.0,-4.0,19.0,10.0
2910.0,2815.0,2895.0,3151.0,3043.0,0.817383,0.035889,-0.574951,0.004944,0.0,0.0,0.0,7526.0,421.0,2164.0,-176.0,-13.0,-590.0,495.0,30.0,-364.0,0.940265,0.052985,0.336282,14884.0,780.0,4318.0,1.0,18.0,7.0
2883.0,2823.0,2909.0,3149.0,3039.0,0.817139,0.035828,-0.575256,0.005005,-1.0,0.0,0.0,7517.0,416.0,2185.0,-187.0,-16.0,-563.0,466.0,26.0,-365.0,0.940487,0.052794,0.335537,15090.0,858.0,4482.0,-1.0,2.0,7.0
2891.0,2815.0,2887.0,3135.0,3043.0,0.817017,0.035828,-0.575439,0.005066,-1.0,0.0,0.0,7530.0,412.0,2197.0,-175.0,-19.0,-548.0,456.0,22.0,-349.0,0.94065,0.052713,0.335128,15140.0,800.0,4496.0,0.0,5.0,7.0
2891.0,2818.0,2897.0,3135.0,3039.0,0.816833,0.035828,-0.575684,0.005127,0.0,0.0,-1.0,7558.0,430.0,2220.0,-149.0,-1.0,-520.0,438.0,37.0,-314.0,0.940843,0.052627,0.334548,15214.0,924.0,4468.0,1.0,12.0,-1.0
2887.0,2821.0,2896.0,3147.0,3046.0,0.816772,0.035889,-0.575806,0.005066,0.0,0.0,-1.0,7557.0,443.0,2226.0,-151.0,10.0,-512.0,430.0,47.0,-312.0,0.940968,0.052792,0.334303,15074.0,954.0,4480.0,2.0,15.0,-3.0
2895.0,2831.0,2901.0,3151.0,3043.0,0.816589,0.03595,-0.57605,0.005005,-1.0,-1.0,0.0,7548.0,460.0,2240.0,-161.0,26.0,-493.0,408.0,63.0,-314.0,0.941152,0.052946,0.333717,15182.0,930.0,4534.0,-10.0,-3.0,2.0
2885.0,2823.0,2897.0,3127.0,3039.0,0.816467,0.035889,-0.576233,0.005005,-1.0,0.0,0.0,7557.0,449.0,2239.0,-154.0,16.0,-491.0,409.0,52.0,-307.0,0.94131,0.052836,0.333311,15132.0,830.0,4442.0,-9.0,3.0,4.0
2887.0,2823.0,2896.0,3131.0,3035.0,0.816284,0.035889,-0.576538,0.005066,0.0,-1.0,0.0,7519.0,428.0,2220.0,-194.0,-4.0,-505.0,410.0,34.0,-350.0,0.941601,0.052749,0.332661,14878.0,834.0,4390.0,6.0,-3.0,5.0
2887.0,2821.0,2911.0,3151.0,3047.0,0.816101,0.035889,-0.576721,0.005066,0.0,-1.0,0.0,7509.0,421.0,2225.0,-205.0,-10.0,-495.0,397.0,28.0,-357.0,0.941689,0.052734,0.332151,15000.0,794.0,4484.0,4.0,-15.0,7.0
2894.0,2823.0,2896.0,3151.0,3047.0,0.815796,0.035889,-0.577209,0.005188,0.0,-1.0,0.0,7526.0,421.0,2219.0,-192.0,-9.0,-493.0,400.0,29.0,-344.0,0.942143,0.052567,0.331091,15110.0,896.0,4364.0,7.0,-22.0,10.0
2885.0,2815.0,2896.0,3134.0,3035.0,0.815613,0.035889,-0.577454,0.005249,0.0,-1.0,0.0,7550.0,436.0,2217.0,-169.0,6.0,-490.0,404.0,43.0,-320.0,0.942334,0.05248,0.330511,15276.0,972.0,4404.0,8.0,-18.0,8.0
2887.0,2823.0,2903.0,3135.0,3047.0,0.815369,0.03595,-0.57782,0.005188,-1.0,0.0,-1.0,7586.0,461.0,2203.0,-136.0,29.0,-497.0,421.0,65.0,-290.0,0.942645,0.052629,0.329685,15166.0,906.0,4328.0,-11.0,15.0,-4.0
2891.0,2819.0,2899.0,3155.0,3039.0,0.815308,0.03595,-0.577881,0.005127,-1.0,0.0,-1.0,7567.0,450.0,2194.0,-155.0,18.0,-505.0,423.0,55.0,-311.0,0.94267,0.052695,0.329514,14984.0,822.0,4318.0,-16.0,17.0,-7.0
2891.0,2823.0,2896.0,3147.0,3039.0,0.815063,0.035889,-0.578247,0.005005,-1.0,-1.0,-1.0,7531.0,413.0,2181.0,-193.0,-18.0,-511.0,418.0,21.0,-350.0,0.942975,0.052715,0.328696,14986.0,780.0,4376.0,-2.0,-6.0,-4.0
2891.0,2821.0,2896.0,3135.0,3039.0,0.814941,0.035889,-0.57843,0.005005,0.0,-1.0,0.0,7510.0,417.0,2184.0,-216.0,-14.0,-505.0,405.0,25.0,-370.0,0.943133,0.052704,0.328285,14892.0,878.0,4370.0,2.0,-17.0,2.0
2887.0,2815.0,2903.0,3135.0,3039.0,0.814575,0.035889,-0.578918,0.005005,-1.0,-1.0,0.0,7553.0,441.0,2209.0,-176.0,9.0,-470.0,384.0,45.0,-319.0,0.943504,0.052673,0.327123,15268.0,916.0,4436.0,-4.0,-16.0,2.0
2894.0,2823.0,2899.0,3151.0,3039.0,0.814453,0.035889,-0.579102,0.005005,-1.0,-1.0,-1.0,7562.0,448.0,2215.0,-168.0,16.0,-461.0,378.0,51.0,-308.0,0.943661,0.052663,0.326712,15118.0,944.0,4470.0,-4.0,-4.0,-2.0
2897.0,2829.0,2879.0,3154.0,3034.0,0.814209,0.036011,-0.579407,0.004944,0.0,-1.0,-1.0,7540.0,453.0,2223.0,-192.0,19.0,-447.0,357.0,54.0,-325.0,0.943872,0.052912,0.325952,15064.0,922.0,4488.0,2.0,-12.0,-5.0
2886.0,2822.0,2895.0,3135.0,3039.0,0.814087,0.036072,-0.57959,0.004883,0.0,-1.0,-1.0,7547.0,465.0,2234.0,-186.0,30.0,-432.0,344.0,64.0,-314.0,0.944025,0.053071,0.325536,15134.0,980.0,4530.0,2.0,-13.0,-4.0
2890.0,2817.0,2895.0,3127.0,3039.0,0.813782,0.036133,-0.580017,0.004883,-1.0,-1.0,0.0,7537.0,480.0,2224.0,-199.0,44.0,-434.0,342.0,78.0,-326.0,0.944367,0.053144,0.324539,15028.0,976.0,4418.0,-2.0,-11.0,6.0
2886.0,2815.0,2883.0,3151.0,3054.0,0.81366,0.036133,-0.5802,0.004883,-1.0,-1.0,0.0,7530.0,475.0,2205.0,-207.0,39.0,-450.0,355.0,74.0,-339.0,0.944524,0.053134,0.324128,15012.0,888.0,4270.0,-6.0,-16.0,7.0
2882.0,2819.0,2895.0,3159.0,3045.0,0.813354,0.036072,-0.580627,0.004883,0.0,-1.0,0.0,7530.0,444.0,2189.0,-210.0,9.0,-458.0,363.0,45.0,-345.0,0.944864,0.053008,0.32314,15088.0,798.0,4340.0,1.0,-16.0,7.0
2885.0,2829.0,2903.0,3117.0,3039.0,0.813171,0.036072,-0.580872,0.004944,0.0,-1.0,0.0,7541.0,432.0,2182.0,-200.0,-1.0,-460.0,369.0,35.0,-337.0,0.945053,0.052922,0.322559,15168.0,808.0,4286.0,8.0,-11.0,5.0
2879.0,2815.0,2895.0,3135.0,3043.0,0.812988,0.036194,-0.581177,0.005005,0.0,-1.0,-1.0,7529.0,432.0,2177.0,-215.0,-2.0,-459.0,363.0,34.0,-351.0,0.945342,0.053033,0.321899,14992.0,952.0,4356.0,9.0,0.0,-1.0
2891.0,2823.0,2907.0,3167.0,3053.0,0.812866,0.036194,-0.581299,0.005005,-1.0,-1.0,-1.0,7535.0,438.0,2175.0,-209.0,3.0,-459.0,365.0,39.0,-345.0,0.945399,0.053023,0.321558,15140.0,880.0,4322.0,-2.0,-2.0,-3.0
2891.0,2821.0,2903.0,3155.0,3055.0,0.812622,0.036194,-0.581604,0.004944,-1.0,0.0,-1.0,7534.0,431.0,2166.0,-212.0,-3.0,-462.0,368.0,34.0,-348.0,0.945606,0.053073,0.320806,14950.0,930.0,4272.0,-3.0,1.0,-1.0
2919.0,2823.0,2886.0,3133.0,3035.0,0.8125,0.036194,-0.581787,0.004944,-1.0,-1.0,0.0,7521.0,435.0,2161.0,-226.0,0.0,-463.0,364.0,37.0,-362.0,0.945762,0.053062,0.320394,14998.0,892.0,4294.0,-2.0,-11.0,1.0
2887.0,2815.0,2897.0,3133.0,3035.0,0.812256,0.036255,-0.582092,0.004944,0.0,-1.0,0.0,7536.0,461.0,2185.0,-213.0,25.0,-433.0,339.0,60.0,-338.0,0.945974,0.053141,0.319638,15130.0,1006.0,4452.0,4.0,-6.0,4.0
2891.0,2818.0,2896.0,3151.0,3027.0,0.812195,0.036255,-0.582275,0.004944,0.0,-1.0,0.0,7534.0,471.0,2188.0,-217.0,35.0,-427.0,332.0,69.0,-339.0,0.946201,0.053135,0.319326,15026.0,1004.0,4366.0,2.0,-2.0,7.0
2887.0,2827.0,2895.0,3151.0,3047.0,0.812012,0.036316,-0.58252,0.005005,0.0,0.0,0.0,7556.0,473.0,2196.0,-196.0,37.0,-415.0,327.0,70.0,-315.0,0.946389,0.053147,0.31874,15200.0,914.0,4424.0,2.0,6.0,9.0
2887.0,2811.0,2901.0,3131.0,3047.0,0.81189,0.036316,-0.582581,0.005066,0.0,0.0,0.0,7548.0,463.0,2184.0,-204.0,28.0,-424.0,334.0,62.0,-326.0,0.94635,0.053066,0.318471,15018.0,842.0,4280.0,4.0,8.0,8.0
2879.0,2823.0,2896.0,3139.0,3047.0,0.811707,0.036316,-0.582886,0.005127,0.0,-1.0,0.0,7541.0,443.0,2170.0,-213.0,8.0,-433.0,340.0,43.0,-338.0,0.946637,0.052979,0.317819,15104.0,792.0,4264.0,4.0,-1.0,5.0
2887.0,2815.0,2909.0,3139.0,3029.0,0.811646,0.036316,-0.583008,0.005127,-1.0,0.0,0.0,7535.0,435.0,2166.0,-220.0,1.0,-435.0,341.0,36.0,-346.0,0.946764,0.052973,0.317578,15034.0,866.0,4352.0,0.0,2.0,4.0
2879.0,2831.0,2899.0,3143.0,3039.0,0.811523,0.036316,-0.58313,0.005127,-1.0,-1.0,0.0,7536.0,437.0,2166.0,-220.0,3.0,-432.0,338.0,38.0,-345.0,0.94682,0.052963,0.317237,15074.0,886.0,4350.0,-6.0,0.0,1.0
2899.0,2815.0,2896.0,3135.0,3057.0,0.81134,0.036194,-0.583435,0.005066,-1.0,0.0,0.0,7535.0,428.0,2152.0,-223.0,-4.0,-441.0,346.0,32.0,-351.0,0.947096,0.05282,0.316592,15070.0,808.0,4310.0,-16.0,4.0,4.0
2881.0,2811.0,2915.0,3175.0,3055.0,0.811279,0.036133,-0.583496,0.005066,-1.0,0.0,0.0,7531.0,416.0,2156.0,-227.0,-15.0,-436.0,340.0,20.0,-353.0,0.947123,0.052716,0.316426,15044.0,788.0,4332.0,-11.0,9.0,4.0
2887.0,2831.0,2882.0,3147.0,3035.0,0.811157,0.036133,-0.583618,0.005005,-1.0,0.0,-1.0,7556.0,416.0,2180.0,-203.0,-16.0,-409.0,323.0,17.0,-322.0,0.947174,0.052777,0.316085,15190.0,784.0,4386.0,-1.0,17.0,-2.0
2875.0,2802.0,2914.0,3147.0,3039.0,0.811157,0.036133,-0.583679,0.005066,0.0,0.0,0.0,7555.0,419.0,2191.0,-205.0,-12.0,-397.0,311.0,20.0,-320.0,0.947277,0.052705,0.316015,15096.0,878.0,4442.0,2.0,19.0,0.0
2887.0,2821.0,2891.0,3135.0,3022.0,0.811096,0.036133,-0.58374,0.005066,-1.0,0.0,0.0,7553.0,437.0,2207.0,-207.0,5.0,-380.0,293.0,36.0,-315.0,0.947305,0.0527,0.315844,15094.0,934.0,4424.0,-6.0,17.0,4.0
2883.0,2815.0,2909.0,3171.0,3025.0,0.811096,0.036072,-0.583801,0.005005,-1.0,0.0,0.0,7539.0,442.0,2207.0,-222.0,10.0,-379.0,287.0,41.0,-329.0,0.947399,0.052672,0.315777,14968.0,870.0,4418.0,-13.0,12.0,5.0
2886.0,2831.0,2915.0,3174.0,3026.0,0.810913,0.03595,-0.583984,0.005005,-1.0,-1.0,0.0,7518.0,424.0,2210.0,-243.0,-5.0,-372.0,275.0,27.0,-347.0,0.947481,0.052459,0.315275,15036.0,838.0,4428.0,-5.0,-6.0,6.0
2887.0,2827.0,2901.0,3143.0,3027.0,0.810852,0.03595,-0.584167,0.005005,-1.0,-1.0,0.0,7524.0,429.0,2212.0,-239.0,0.0,-368.0,272.0,31.0,-342.0,0.947707,0.052452,0.314962,15110.0,904.0,4456.0,-5.0,-8.0,5.0
2881.0,2813.0,2891.0,3135.0,3055.0,0.810669,0.035889,-0.584412,0.004944,-1.0,0.0,0.0,7553.0,434.0,2226.0,-212.0,4.0,-349.0,263.0,33.0,-310.0,0.947884,0.052409,0.314384,15200.0,844.0,4512.0,-15.0,1.0,3.0
2869.0,2791.0,2905.0,3143.0,3031.0,0.810608,0.035828,-0.584473,0.004944,-1.0,0.0,0.0,7551.0,430.0,2234.0,-214.0,1.0,-340.0,254.0,29.0,-309.0,0.947911,0.052305,0.314218,15042.0,856.0,4476.0,-11.0,6.0,4.0
2895.0,2829.0,2914.0,3135.0,3051.0,0.810486,0.035767,-0.584656,0.004883,-1.0,-1.0,0.0,7530.0,429.0,2243.0,-236.0,0.0,-327.0,235.0,28.0,-326.0,0.94806,0.052267,0.31381,15038.0,810.0,4484.0,-6.0,-8.0,4.0
2891.0,2833.0,2885.0,3143.0,3013.0,0.810364,0.035706,-0.584839,0.004883,-1.0,-1.0,0.0,7526.0,433.0,2232.0,-241.0,5.0,-335.0,241.0,34.0,-333.0,0.948213,0.052158,0.313402,15032.0,886.0,4364.0,-6.0,-13.0,7.0
2903.0,2822.0,2907.0,3149.0,3023.0,0.81012,0.035645,-0.585144,0.004822,-1.0,-1.0,0.0,7555.0,425.0,2221.0,-214.0,-1.0,-340.0,254.0,27.0,-309.0,0.948417,0.05211,0.312653,15216.0,800.0,4394.0,-12.0,-8.0,5.0
2879.0,2815.0,2903.0,3153.0,3045.0,0.810059,0.035583,-0.585266,0.004822,-1.0,0.0,0.0,7567.0,418.0,2218.0,-203.0,-8.0,-341.0,259.0,20.0,-299.0,0.948543,0.052005,0.312416,15174.0,830.0,4426.0,-7.0,1.0,4.0
2901.0,2802.0,2879.0,3141.0,3025.0,0.809875,0.035522,-0.58551,0.004883,0.0,-1.0,-1.0,7546.0,408.0,2200.0,-225.0,-16.0,-354.0,265.0,14.0,-324.0,0.948728,0.05182,0.311838,15080.0,860.0,4384.0,1.0,-4.0,-1.0
2895.0,2819.0,2907.0,3153.0,3045.0,0.809814,0.035583,-0.585571,0.004822,0.0,-1.0,-1.0,7545.0,422.0,2209.0,-227.0,-3.0,-344.0,254.0,26.0,-322.0,0.948751,0.051985,0.311663,15090.0,938.0,4482.0,2.0,-2.0,-3.0
2895.0,2830.0,2899.0,3125.0,3027.0,0.809631,0.035583,-0.585815,0.004822,-1.0,-1.0,0.0,7514.0,443.0,2231.0,-259.0,17.0,-317.0,218.0,45.0,-343.0,0.948932,0.05197,0.31108,14998.0,960.0,4594.0,-3.0,-18.0,7.0
2879.0,2829.0,2859.0,3159.0,2995.0,0.809509,0.035583,-0.585999,0.004822,-1.0,-2.0,0.0,7518.0,454.0,2245.0,-256.0,28.0,-299.0,202.0,55.0,-334.0,0.949086,0.051959,0.310668,15098.0,948.0,4590.0,-3.0,-26.0,12.0
2877.0,2832.0,2887.0,3151.0,3071.0,0.809265,0.035583,-0.586304,0.004944,0.0,-1.0,0.0,7563.0,454.0,2271.0,-213.0,29.0,-267.0,185.0,53.0,-283.0,0.949302,0.051796,0.309916,15278.0,872.0,4606.0,8.0,-13.0,12.0
2907.0,2827.0,2909.0,3117.0,3039.0,0.809204,0.035583,-0.586426,0.005005,0.0,-1.0,0.0,7567.0,443.0,2269.0,-210.0,19.0,-267.0,186.0,42.0,-281.0,0.949432,0.051719,0.309675,15168.0,806.0,4580.0,14.0,-15.0,12.0
2895.0,2863.0,2907.0,3147.0,3071.0,0.808899,0.035767,-0.586792,0.005249,1.0,-2.0,0.0,7576.0,437.0,2274.0,-203.0,13.0,-255.0,178.0,36.0,-270.0,0.949686,0.051703,0.308741,15186.0,926.0,4558.0,26.0,-31.0,10.0
2899.0,2796.0,2903.0,3117.0,3025.0,0.808777,0.035828,-0.586975,0.00531,0.0,-2.0,0.0,7571.0,436.0,2278.0,-210.0,12.0,-247.0,168.0,34.0,-275.0,0.949844,0.051719,0.308325,15090.0,826.0,4586.0,19.0,-35.0,10.0
2879.0,2811.0,2870.0,3151.0,3047.0,0.80835,0.035889,-0.587524,0.005615,1.0,-3.0,0.0,7531.0,408.0,2262.0,-253.0,-13.0,-252.0,161.0,11.0,-318.0,0.950253,0.051423,0.306988,14938.0,774.0,4436.0,26.0,-59.0,17.0
2885.0,2823.0,2919.0,3127.0,3031.0,0.808105,0.03595,-0.587952,0.005737,1.0,-4.0,0.0,7540.0,395.0,2254.0,-247.0,-25.0,-253.0,165.0,0.0,-313.0,0.950666,0.051356,0.306088,15214.0,694.0,4456.0,29.0,-74.0,11.0
2893.0,2813.0,2871.0,3135.0,3051.0,0.807556,0.036194,-0.588623,0.005981,1.0,-3.0,-1.0,7576.0,386.0,2227.0,-215.0,-35.0,-266.0,188.0,-10.0,-287.0,0.951125,0.051415,0.304396,15144.0,756.0,4340.0,36.0,-52.0,-1.0
2896.0,2837.0,2899.0,3151.0,3024.0,0.807312,0.036377,-0.588928,0.006042,1.0,-3.0,-1.0,7558.0,394.0,2207.0,-235.0,-28.0,-280.0,195.0,-1.0,-310.0,0.951337,0.051618,0.303629,15010.0,920.0,4260.0,36.0,-46.0,-8.0
2871.0,2823.0,2899.0,3127.0,3024.0,0.806885,0.036743,-0.589539,0.006165,1.0,-3.0,-1.0,7533.0,399.0,2153.0,-264.0,-27.0,-322.0,227.0,3.0,-349.0,0.951832,0.052027,0.302195,15044.0,802.0,4152.0,26.0,-51.0,-8.0
2891.0,2815.0,2903.0,3150.0,3011.0,0.806641,0.036865,-0.589844,0.006165,1.0,-2.0,-1.0,7535.0,409.0,2106.0,-264.0,-18.0,-363.0,265.0,15.0,-361.0,0.952038,0.052202,0.301432,15066.0,898.0,3894.0,27.0,-45.0,-9.0
2895.0,2823.0,2907.0,3135.0,2979.0,0.806091,0.03717,-0.590576,0.006226,1.0,-2.0,-1.0,7577.0,424.0,2015.0,-226.0,-6.0,-439.0,349.0,31.0,-347.0,0.952579,0.052572,0.29966,15190.0,960.0,3812.0,27.0,-32.0,-8.0
2896.0,2826.0,2903.0,3127.0,3043.0,0.805908,0.037354,-0.590881,0.006226,1.0,-2.0,-1.0,7588.0,455.0,1985.0,-217.0,22.0,-464.0,375.0,60.0,-344.0,0.952857,0.05285,0.298991,15258.0,1086.0,3782.0,26.0,-30.0,-16.0
2891.0,2805.0,2917.0,3145.0,3035.0,0.805481,0.037842,-0.591309,0.006165,1.0,-1.0,-1.0,7627.0,508.0,1964.0,-180.0,68.0,-475.0,394.0,106.0,-309.0,0.953042,0.053671,0.29776,15256.0,1178.0,3950.0,32.0,-4.0,-17.0
2891.0,2829.0,2883.0,3135.0,3039.0,0.80542,0.038147,-0.591431,0.006165,1.0,0.0,-1.0,7605.0,535.0,1966.0,-203.0,91.0,-471.0,382.0,130.0,-328.0,0.95317,0.054157,0.297494,15060.0,1230.0,3946.0,38.0,9.0,-18.0
2897.0,2825.0,2898.0,3139.0,3029.0,0.805298,0.038818,-0.591553,0.006226,2.0,0.0,-1.0,7556.0,566.0,2006.0,-252.0,114.0,-427.0,324.0,152.0,-360.0,0.953236,0.055155,0.297102,14996.0,1228.0,4198.0,58.0,11.0,-13.0
2887.0,2830.0,2899.0,3143.0,3023.0,0.805237,0.039185,-0.591614,0.006348,2.0,0.0,-1.0,7538.0,589.0,2034.0,-271.0,133.0,-398.0,290.0,170.0,-369.0,0.953276,0.055595,0.296904,14978.0,1324.0,4236.0,61.0,9.0,-6.0
2887.0,2815.0,2883.0,3135.0,3025.0,0.805115,0.039856,-0.591736,0.006592,2.0,0.0,-1.0,7556.0,561.0,2095.0,-253.0,99.0,-334.0,236.0,131.0,-334.0,0.953356,0.056376,0.296513,15282.0,904.0,4320.0,66.0,1.0,-5.0
2878.0,2805.0,2891.0,3135.0,3047.0,0.805054,0.040222,-0.591797,0.006836,3.0,0.0,-1.0,7593.0,531.0,2116.0,-217.0,66.0,-311.0,227.0,96.0,-295.0,0.953406,0.056671,0.296317,15382.0,878.0,4348.0,88.0,1.0,-5.0
2883.0,2815.0,2897.0,3135.0,3035.0,0.804993,0.04071,-0.591858,0.007141,4.0,0.0,-1.0,7615.0,510.0,2131.0,-195.0,42.0,-294.0,219.0,70.0,-270.0,0.953464,0.05709,0.296111,15342.0,918.0,4316.0,106.0,1.0,-5.0
2879.0,2811.0,2885.0,3135.0,3021.0,0.804749,0.041565,-0.592102,0.007812,4.0,-1.0,0.0,7631.0,463.0,2157.0,-181.0,-9.0,-262.0,196.0,17.0,-250.0,0.953636,0.057647,0.295369,15214.0,758.0,4416.0,98.0,-11.0,4.0
2881.0,2811.0,2897.0,3131.0,3047.0,0.804688,0.041931,-0.592163,0.008118,3.0,-1.0,0.0,7588.0,426.0,2173.0,-224.0,-48.0,-245.0,169.0,-20.0,-288.0,0.953693,0.057869,0.295173,14874.0,598.0,4454.0,87.0,-9.0,4.0
2873.0,2831.0,2902.0,3143.0,3039.0,0.804504,0.04248,-0.592407,0.008789,3.0,-1.0,0.0,7552.0,337.0,2167.0,-262.0,-137.0,-245.0,164.0,-107.0,-330.0,0.953935,0.057938,0.294554,15170.0,496.0,4320.0,83.0,-18.0,0.0
2891.0,2815.0,2881.0,3134.0,3063.0,0.804382,0.042786,-0.592468,0.009094,3.0,-1.0,-1.0,7553.0,320.0,2170.0,-261.0,-155.0,-240.0,160.0,-125.0,-328.0,0.95392,0.058056,0.294264,15038.0,534.0,4384.0,83.0,-4.0,-7.0
2884.0,2811.0,2902.0,3143.0,3027.0,0.804321,0.043457,-0.592529,0.009583,3.0,-1.0,-1.0,7466.0,302.0,2177.0,-349.0,-177.0,-231.0,127.0,-144.0,-411.0,0.954001,0.058551,0.294045,14730.0,650.0,4314.0,80.0,-10.0,-19.0
2885.0,2819.0,2897.0,3149.0,3054.0,0.804138,0.043762,-0.592712,0.009705,3.0,-2.0,-1.0,7464.0,328.0,2184.0,-351.0,-154.0,-220.0,115.0,-122.0,-408.0,0.954095,0.058878,0.293509,14986.0,840.0,4430.0,69.0,-32.0,-18.0
2879.0,2813.0,2883.0,3153.0,3024.0,0.803833,0.044495,-0.593079,0.009888,2.0,-2.0,-2.0,7550.0,393.0,2162.0,-268.0,-96.0,-234.0,150.0,-66.0,-329.0,0.954352,0.059804,0.292523,15434.0,1088.0,4244.0,63.0,-31.0,-34.0
2879.0,2823.0,2887.0,3145.0,3027.0,0.803711,0.044922,-0.593262,0.009888,2.0,-1.0,-2.0,7583.0,449.0,2159.0,-236.0,-46.0,-233.0,155.0,-17.0,-296.0,0.95451,0.060476,0.292072,15294.0,1252.0,4298.0,59.0,-20.0,-43.0
2895.0,2811.0,2894.0,3133.0,3029.0,0.803467,0.045776,-0.593506,0.009766,2.0,-2.0,-2.0,7573.0,565.0,2110.0,-247.0,57.0,-276.0,186.0,89.0,-312.0,0.954619,0.061968,0.29131,15104.0,1500.0,4030.0,50.0,-24.0,-38.0
2887.0,2821.0,2882.0,3123.0,3047.0,0.803284,0.046204,-0.59375,0.009644,1.0,-2.0,-2.0,7572.0,615.0,2080.0,-249.0,100.0,-301.0,206.0,135.0,-318.0,0.954791,0.062777,0.290684,15138.0,1498.0,3992.0,44.0,-33.0,-34.0
2895.0,2829.0,2894.0,3143.0,3051.0,0.802856,0.046936,-0.594238,0.009583,2.0,-2.0,-2.0,7575.0,670.0,2015.0,-248.0,145.0,-355.0,255.0,185.0,-330.0,0.955076,0.063977,0.289348,15192.0,1442.0,3894.0,47.0,-31.0,-25.0
2885.0,2813.0,2882.0,3139.0,3039.0,0.802673,0.047363,-0.594482,0.009583,2.0,-1.0,-1.0,7557.0,692.0,2003.0,-268.0,162.0,-362.0,255.0,203.0,-350.0,0.955258,0.064641,0.288724,14952.0,1550.0,3978.0,57.0,-19.0,-21.0
2885.0,2807.0,2894.0,3135.0,3035.0,0.802429,0.048035,-0.594727,0.009644,2.0,-1.0,0.0,7521.0,741.0,2023.0,-305.0,203.0,-336.0,216.0,244.0,-374.0,0.955378,0.065618,0.287979,15026.0,1644.0,4106.0,46.0,-15.0,1.0
2894.0,2832.0,2895.0,3135.0,3023.0,0.802307,0.048279,-0.594849,0.009766,1.0,-1.0,0.0,7529.0,757.0,2041.0,-298.0,217.0,-315.0,197.0,256.0,-361.0,0.955446,0.065851,0.287616,15128.0,1588.0,4212.0,32.0,-7.0,21.0
2881.0,2823.0,2890.0,3151.0,3037.0,0.802246,0.04834,-0.59491,0.010071,0.0,0.0,2.0,7527.0,725.0,2053.0,-300.0,187.0,-301.0,185.0,225.0,-360.0,0.955502,0.065578,0.287446,14966.0,1282.0,4118.0,9.0,13.0,53.0
2895.0,2823.0,2879.0,3135.0,3023.0,0.802246,0.048218,-0.594971,0.010315,0.0,0.0,2.0,7508.0,680.0,2056.0,-320.0,146.0,-298.0,180.0,185.0,-381.0,0.955621,0.065091,0.28739,14882.0,1050.0,4126.0,8.0,15.0,60.0
2895.0,2815.0,2898.0,3127.0,3047.0,0.802185,0.047791,-0.595032,0.010986,-1.0,-1.0,3.0,7484.0,599.0,2109.0,-345.0,77.0,-244.0,126.0,112.0,-394.0,0.955701,0.063599,0.287275,14956.0,1058.0,4448.0,-1.0,-4.0,77.0
2887.0,2822.0,2915.0,3143.0,3043.0,0.802124,0.047485,-0.595093,0.011292,-1.0,-1.0,3.0,7502.0,560.0,2124.0,-327.0,46.0,-228.0,118.0,78.0,-375.0,0.955749,0.062739,0.28714,15148.0,860.0,4312.0,-20.0,-10.0,78.0
2883.0,2822.0,2911.0,3135.0,3029.0,0.802002,0.046631,-0.595337,0.011719,-3.0,-1.0,2.0,7546.0,485.0,2146.0,-285.0,-13.0,-203.0,111.0,15.0,-331.0,0.956016,0.060843,0.286744,15248.0,728.0,4406.0,-48.0,-14.0,67.0
2883.0,2827.0,2919.0,3149.0,3025.0,0.801941,0.046204,-0.595459,0.01178,-3.0,-1.0,2.0,7559.0,474.0,2146.0,-273.0,-18.0,-201.0,113.0,9.0,-319.0,0.956134,0.060076,0.286542,15196.0,876.0,4210.0,-63.0,-10.0,59.0
2879.0,2811.0,2895.0,3141.0,3023.0,0.80188,0.045227,-0.595642,0.011719,-4.0,-1.0,1.0,7584.0,405.0,2142.0,-250.0,-74.0,-203.0,126.0,-47.0,-301.0,0.956327,0.058573,0.286314,15088.0,608.0,4250.0,-69.0,-3.0,28.0
2879.0,2823.0,2871.0,3127.0,3043.0,0.801819,0.044861,-0.595764,0.011658,-3.0,-1.0,0.0,7575.0,392.0,2137.0,-260.0,-83.0,-206.0,127.0,-55.0,-312.0,0.956436,0.05805,0.286102,15108.0,736.0,4266.0,-58.0,-16.0,19.0
2879.0,2815.0,2911.0,3135.0,3034.0,0.801575,0.04425,-0.59613,0.011414,-3.0,-2.0,0.0,7596.0,405.0,2137.0,-241.0,-64.0,-200.0,125.0,-38.0,-291.0,0.956696,0.057332,0.285323,15244.0,864.0,4240.0,-57.0,-37.0,13.0
2899.0,2827.0,2885.0,3159.0,3051.0,0.801392,0.043945,-0.596375,0.011353,-3.0,-3.0,0.0,7601.0,410.0,2133.0,-237.0,-56.0,-199.0,125.0,-30.0,-286.0,0.956857,0.056894,0.284764,15220.0,890.0,4202.0,-50.0,-48.0,14.0
2863.0,2811.0,2905.0,3121.0,3067.0,0.800964,0.043579,-0.597046,0.011169,-2.0,-3.0,0.0,7633.0,420.0,2134.0,-210.0,-42.0,-186.0,120.0,-19.0,-256.0,0.957398,0.056473,0.283306,15320.0,870.0,4302.0,-30.0,-63.0,8.0
2887.0,2823.0,2896.0,3143.0,3027.0,0.80072,0.043457,-0.597351,0.011108,-1.0,-3.0,0.0,7624.0,431.0,2141.0,-220.0,-30.0,-173.0,104.0,-8.0,-261.0,0.957588,0.056323,0.282559,15154.0,938.0,4324.0,-20.0,-60.0,7.0
2883.0,2831.0,2891.0,3147.0,3054.0,0.800293,0.043274,-0.5979,0.010925,-2.0,-3.0,0.0,7586.0,484.0,2143.0,-261.0,23.0,-160.0,77.0,45.0,-293.0,0.957937,0.056199,0.281231,15144.0,1174.0,4272.0,-28.0,-63.0,5.0
2895.0,2811.0,2903.0,3123.0,3055.0,0.80011,0.043152,-0.598206,0.010803,-2.0,-3.0,0.0,7586.0,492.0,2123.0,-263.0,32.0,-175.0,90.0,55.0,-299.0,0.958193,0.056127,0.280581,15180.0,970.0,4090.0,-42.0,-56.0,3.0
2897.0,2795.0,2895.0,3117.0,3043.0,0.799622,0.042847,-0.598877,0.010559,-2.0,-3.0,0.0,7544.0,447.0,2057.0,-309.0,-10.0,-228.0,131.0,19.0,-360.0,0.958655,0.055875,0.279017,14952.0,738.0,3924.0,-32.0,-65.0,5.0
2895.0,2831.0,2901.0,3149.0,3027.0,0.799377,0.042725,-0.599243,0.010498,-1.0,-4.0,0.0,7524.0,439.0,2027.0,-331.0,-17.0,-251.0,148.0,14.0,-388.0,0.95894,0.055724,0.278197,14946.0,864.0,3866.0,-20.0,-74.0,5.0
2884.0,2829.0,2897.0,3135.0,3043.0,0.798706,0.04248,-0.600098,0.010437,-1.0,-4.0,0.0,7540.0,437.0,1974.0,-320.0,-16.0,-287.0,186.0,18.0,-387.0,0.95949,0.055332,0.276118,15156.0,898.0,3794.0,-19.0,-76.0,16.0
2879.0,2815.0,2903.0,3141.0,3023.0,0.798401,0.042358,-0.600525,0.010437,-2.0,-3.0,1.0,7561.0,451.0,1959.0,-301.0,0.0,-294.0,197.0,33.0,-369.0,0.959803,0.055103,0.275129,15288.0,990.0,3864.0,-24.0,-64.0,24.0
2891.0,2811.0,2894.0,3137.0,3035.0,0.798035,0.041931,-0.601013,0.010376,-2.0,-2.0,1.0,7599.0,448.0,1950.0,-266.0,1.0,-294.0,207.0,33.0,-335.0,0.960129,0.054453,0.273992,15304.0,828.0,3904.0,-39.0,-26.0,26.0
2895.0,2829.0,2896.0,3143.0,3029.0,0.797913,0.041687,-0.601196,0.010376,-2.0,-1.0,1.0,7597.0,422.0,1948.0,-269.0,-20.0,-293.0,207.0,12.0,-339.0,0.960269,0.054049,0.273597,15164.0,694.0,3918.0,-43.0,-18.0,26.0
2893.0,2819.0,2897.0,3143.0,3031.0,0.797729,0.041199,-0.601501,0.010315,-2.0,-1.0,0.0,7611.0,382.0,1957.0,-257.0,-54.0,-279.0,200.0,-23.0,-325.0,0.960521,0.053322,0.272977,15324.0,660.0,3914.0,-36.0,-20.0,15.0
2891.0,2815.0,2901.0,3127.0,3039.0,0.797607,0.040955,-0.601685,0.010315,-2.0,-1.0,0.0,7629.0,372.0,1962.0,-240.0,-61.0,-270.0,196.0,-31.0,-307.0,0.960661,0.052919,0.272582,15376.0,712.0,3964.0,-33.0,-18.0,12.0
2881.0,2811.0,2901.0,3143.0,3039.0,0.797424,0.040588,-0.601929,0.010132,-2.0,-1.0,0.0,7649.0,370.0,1972.0,-221.0,-60.0,-256.0,188.0,-32.0,-285.0,0.960808,0.052535,0.272023,15316.0,712.0,3932.0,-37.0,-9.0,1.0
2882.0,2819.0,2895.0,3139.0,3051.0,0.797363,0.040405,-0.602051,0.01001,-2.0,0.0,-1.0,7646.0,357.0,1970.0,-225.0,-72.0,-256.0,188.0,-44.0,-289.0,0.960915,0.052383,0.271791,15278.0,612.0,3930.0,-37.0,1.0,-6.0
2885.0,2829.0,2898.0,3151.0,3038.0,0.797363,0.040222,-0.602051,0.009766,-2.0,0.0,-1.0,7626.0,355.0,1956.0,-245.0,-74.0,-270.0,196.0,-45.0,-312.0,0.960892,0.052385,0.271801,15200.0,676.0,3876.0,-31.0,19.0,-14.0
2881.0,2819.0,2891.0,3135.0,3051.0,0.797424,0.0401,-0.602051,0.009644,-2.0,1.0,-1.0,7604.0,358.0,1949.0,-268.0,-70.0,-278.0,197.0,-39.0,-336.0,0.960953,0.052342,0.271905,15014.0,778.0,3872.0,-30.0,23.0,-10.0
2891.0,2815.0,2879.0,3141.0,3035.0,0.797424,0.039795,-0.602051,0.009399,-2.0,0.0,-1.0,7551.0,359.0,1949.0,-320.0,-68.0,-278.0,183.0,-36.0,-386.0,0.960928,0.052149,0.271925,14984.0,630.0,3832.0,-37.0,9.0,-8.0
2890.0,2815.0,2897.0,3135.0,3039.0,0.797363,0.039673,-0.602112,0.009277,-2.0,-1.0,-1.0,7546.0,341.0,1953.0,-326.0,-85.0,-273.0,177.0,-53.0,-391.0,0.96094,0.052095,0.271762,15074.0,606.0,3970.0,-30.0,0.0,-11.0
2895.0,2819.0,2905.0,3142.0,3037.0,0.797302,0.039551,-0.602234,0.009033,-1.0,0.0,-2.0,7590.0,345.0,1970.0,-282.0,-82.0,-254.0,171.0,-53.0,-344.0,0.961039,0.052188,0.271523,15356.0,748.0,4022.0,-17.0,5.0,-25.0
2879.0,2827.0,2903.0,3123.0,3025.0,0.797302,0.039612,-0.602234,0.00885,-1.0,0.0,-2.0,7613.0,359.0,1969.0,-259.0,-71.0,-255.0,177.0,-43.0,-321.0,0.961026,0.052506,0.271514,15356.0,800.0,3926.0,-16.0,18.0,-30.0
2893.0,2809.0,2911.0,3127.0,3031.0,0.797363,0.039673,-0.602112,0.008484,-1.0,1.0,-2.0,7609.0,403.0,1971.0,-262.0,-31.0,-255.0,174.0,-3.0,-322.0,0.960877,0.053051,0.271748,15200.0,960.0,3990.0,-17.0,23.0,-29.0
2887.0,2823.0,2896.0,3135.0,3047.0,0.797363,0.039673,-0.602112,0.008301,-1.0,1.0,-2.0,7616.0,425.0,1976.0,-255.0,-11.0,-250.0,170.0,16.0,-313.0,0.960862,0.053271,0.271745,15312.0,980.0,3998.0,-18.0,25.0,-27.0
2885.0,2823.0,2899.0,3147.0,3039.0,0.797546,0.039795,-0.601868,0.007935,-1.0,1.0,-2.0,7625.0,457.0,1978.0,-244.0,15.0,-252.0,173.0,41.0,-302.0,0.960666,0.053925,0.272315,15162.0,1012.0,3950.0,-15.0,45.0,-28.0
2889.0,2823.0,2901.0,3131.0,3039.0,0.797668,0.039856,-0.601746,0.007751,-1.0,2.0,-2.0,7605.0,478.0,1982.0,-264.0,33.0,-251.0,166.0,60.0,-320.0,0.960605,0.054255,0.272649,15082.0,1112.0,3992.0,-11.0,47.0,-25.0
2894.0,2819.0,2891.0,3141.0,3039.0,0.797852,0.039978,-0.60144,0.007507,-1.0,1.0,-1.0,7570.0,519.0,2016.0,-296.0,70.0,-222.0,126.0,96.0,-341.0,0.960321,0.054763,0.273295,15034.0,1150.0,4134.0,-10.0,34.0,-14.0
2893.0,2826.0,2897.0,3143.0,3047.0,0.797913,0.040039,-0.601379,0.007385,-1.0,1.0,-1.0,7560.0,532.0,2027.0,-306.0,81.0,-213.0,114.0,107.0,-347.0,0.960288,0.055013,0.273459,15064.0,1116.0,4092.0,-7.0,24.0,-8.0
2887.0,2823.0,2907.0,3142.0,3039.0,0.797974,0.040161,-0.601318,0.007263,-1.0,0.0,0.0,7566.0,562.0,2048.0,-300.0,108.0,-193.0,95.0,132.0,-334.0,0.960256,0.05536,0.273618,15220.0,1176.0,4198.0,-5.0,16.0,0.0
2893.0,2815.0,2899.0,3119.0,3043.0,0.798035,0.040161,-0.601196,0.007202,-1.0,0.0,0.0,7567.0,567.0,2058.0,-298.0,112.0,-185.0,88.0,136.0,-330.0,0.960129,0.05544,0.273861,15088.0,1132.0,4140.0,0.0,22.0,3.0
2881.0,2815.0,2886.0,3143.0,3044.0,0.798096,0.040283,-0.601135,0.007263,0.0,0.0,0.0,7576.0,557.0,2087.0,-289.0,101.0,-157.0,64.0,122.0,-314.0,0.960112,0.055567,0.274023,15262.0,1106.0,4240.0,12.0,13.0,7.0
2887.0,2821.0,2898.0,3135.0,3047.0,0.798096,0.040405,-0.601074,0.007263,0.0,0.0,0.0,7585.0,566.0,2098.0,-279.0,109.0,-147.0,57.0,129.0,-302.0,0.960016,0.055763,0.274087,15222.0,1222.0,4298.0,14.0,14.0,8.0
2887.0,2819.0,2899.0,3143.0,3039.0,0.798218,0.040405,-0.600952,0.007263,-1.0,0.0,0.0,7599.0,566.0,2129.0,-265.0,109.0,-119.0,33.0,127.0,-280.0,0.959968,0.055775,0.274428,15184.0,1002.0,4334.0,-17.0,11.0,11.0
2887.0,2815.0,2934.0,3131.0,3015.0,0.798218,0.040283,-0.600952,0.007263,-1.0,0.0,0.0,7596.0,535.0,2124.0,-268.0,79.0,-124.0,39.0,97.0,-286.0,0.959967,0.05558,0.274438,15184.0,834.0,4230.0,-15.0,5.0,11.0
2887.0,2805.0,2895.0,3135.0,3027.0,0.798157,0.040283,-0.601013,0.007324,0.0,-1.0,0.0,7596.0,480.0,2129.0,-268.0,25.0,-117.0,36.0,43.0,-287.0,0.959996,0.055501,0.274268,15188.0,860.0,4258.0,14.0,-3.0,2.0
2883.0,2822.0,2896.0,3151.0,3039.0,0.798157,0.040344,-0.601074,0.007385,0.0,-1.0,0.0,7596.0,469.0,2111.0,-269.0,14.0,-135.0,54.0,33.0,-294.0,0.960099,0.055524,0.274191,15182.0,888.0,4122.0,20.0,-7.0,5.0
2891.0,2819.0,2897.0,3142.0,3045.0,0.798035,0.040466,-0.601196,0.007507,0.0,-1.0,0.0,7582.0,463.0,2071.0,-283.0,7.0,-172.0,86.0,30.0,-318.0,0.960159,0.05556,0.273841,15106.0,882.0,4022.0,9.0,-7.0,7.0
2886.0,2811.0,2882.0,3133.0,3039.0,0.797974,0.040466,-0.601318,0.007568,0.0,-1.0,0.0,7571.0,452.0,2054.0,-295.0,-2.0,-187.0,97.0,22.0,-334.0,0.960285,0.05548,0.273598,15076.0,842.0,4044.0,9.0,-10.0,9.0
2887.0,2813.0,2887.0,3131.0,3038.0,0.797791,0.040527,-0.601501,0.007751,0.0,-1.0,0.0,7569.0,441.0,2038.0,-298.0,-12.0,-199.0,109.0,13.0,-341.0,0.960373,0.05534,0.273083,15244.0,856.0,4126.0,12.0,-12.0,6.0
2889.0,2892.0,2897.0,3143.0,3039.0,0.797729,0.040527,-0.601562,0.007812,0.0,0.0,0.0,7578.0,448.0,2025.0,-289.0,-4.0,-210.0,121.0,22.0,-335.0,0.960402,0.05526,0.272913,15162.0,978.0,3940.0,9.0,1.0,3.0
2879.0,2823.0,2895.0,3133.0,3039.0,0.797729,0.040588,-0.601624,0.007751,-1.0,0.0,0.0,7563.0,459.0,2023.0,-305.0,4.0,-212.0,118.0,30.0,-350.0,0.960495,0.05543,0.272834,15028.0,964.0,4070.0,-3.0,1.0,0.0
2885.0,2815.0,2896.0,3131.0,3038.0,0.797607,0.040527,-0.601746,0.007629,-1.0,-1.0,0.0,7563.0,476.0,2049.0,-305.0,21.0,-183.0,90.0,45.0,-341.0,0.960532,0.055468,0.272496,15210.0,978.0,4174.0,-20.0,-10.0,0.0
2883.0,2821.0,2895.0,3143.0,3047.0,0.797607,0.040405,-0.601807,0.007568,-1.0,-1.0,-1.0,7580.0,468.0,2060.0,-289.0,14.0,-171.0,83.0,37.0,-323.0,0.960622,0.055346,0.272431,15250.0,886.0,4180.0,-20.0,-7.0,-2.0
2887.0,2823.0,2896.0,3151.0,3039.0,0.797546,0.040344,-0.601868,0.007385,-1.0,-1.0,-1.0,7611.0,461.0,2072.0,-258.0,6.0,-158.0,80.0,27.0,-290.0,0.960631,0.055463,0.272262,15306.0,882.0,4146.0,-16.0,-1.0,-8.0
2883.0,2815.0,2896.0,3131.0,3035.0,0.797546,0.040283,-0.601868,0.007324,-1.0,-1.0,-1.0,7616.0,453.0,2079.0,-253.0,-1.0,-151.0,75.0,19.0,-284.0,0.960625,0.055439,0.272266,15226.0,872.0,4192.0,-10.0,0.0,-7.0
2883.0,2815.0,2894.0,3135.0,3031.0,0.797424,0.040344,-0.60199,0.007263,0.0,-1.0,-1.0,7563.0,454.0,2075.0,-306.0,-1.0,-152.0,61.0,21.0,-335.0,0.960669,0.055598,0.271919,14908.0,936.0,4076.0,7.0,-16.0,-7.0
2887.0,2815.0,2897.0,3143.0,3031.0,0.797302,0.040405,-0.602173,0.007263,0.0,-2.0,-1.0,7555.0,462.0,2070.0,-315.0,5.0,-154.0,60.0,27.0,-344.0,0.960814,0.055683,0.271499,15124.0,982.0,4134.0,13.0,-39.0,-2.0
2889.0,2821.0,2899.0,3150.0,3039.0,0.796997,0.040649,-0.602539,0.007263,0.0,-2.0,-1.0,7591.0,510.0,2061.0,-281.0,50.0,-155.0,68.0,71.0,-309.0,0.961034,0.056042,0.270551,15334.0,1148.0,4092.0,7.0,-31.0,-4.0
2891.0,2814.0,2890.0,3127.0,3023.0,0.796875,0.04071,-0.602661,0.007263,-1.0,-2.0,0.0,7595.0,515.0,2034.0,-278.0,55.0,-179.0,92.0,78.0,-312.0,0.961083,0.056128,0.270205,15182.0,1026.0,3904.0,-5.0,-27.0,4.0
2885.0,2821.0,2895.0,3131.0,3031.0,0.796631,0.040649,-0.603027,0.007202,-1.0,-1.0,0.0,7599.0,489.0,1999.0,-276.0,29.0,-207.0,121.0,54.0,-319.0,0.961366,0.056079,0.269378,15320.0,926.0,3972.0,-1.0,-19.0,3.0
2891.0,2819.0,2896.0,3143.0,3039.0,0.79657,0.040649,-0.603088,0.007263,0.0,0.0,0.0,7607.0,476.0,1981.0,-268.0,17.0,-224.0,141.0,43.0,-317.0,0.961394,0.056,0.269208,15210.0,888.0,3834.0,6.0,4.0,0.0
2887.0,2818.0,2889.0,3143.0,3039.0,0.79657,0.040649,-0.603088,0.007202,-1.0,0.0,-1.0,7579.0,459.0,1974.0,-296.0,0.0,-231.0,141.0,28.0,-346.0,0.96139,0.056073,0.269207,15142.0,836.0,3968.0,-10.0,12.0,-5.0
2885.0,2811.0,2891.0,3133.0,3035.0,0.79657,0.040649,-0.603088,0.007141,-1.0,0.0,-1.0,7568.0,440.0,1981.0,-307.0,-19.0,-224.0,132.0,9.0,-356.0,0.961385,0.056147,0.269207,15048.0,758.0,4010.0,-11.0,13.0,-1.0
2887.0,2817.0,2887.0,3131.0,3035.0,0.79657,0.040588,-0.603149,0.007202,0.0,-1.0,0.0,7554.0,423.0,2008.0,-322.0,-35.0,-196.0,102.0,-8.0,-364.0,0.961486,0.055975,0.269139,15148.0,814.0,4140.0,3.0,-2.0,3.0
2887.0,2819.0,2895.0,3143.0,3039.0,0.796509,0.040588,-0.603149,0.007263,0.0,-1.0,0.0,7550.0,437.0,2026.0,-325.0,-20.0,-177.0,82.0,5.0,-361.0,0.961417,0.055896,0.269042,15042.0,990.0,4112.0,5.0,-7.0,5.0
2889.0,2821.0,2901.0,3147.0,3039.0,0.796387,0.040527,-0.603394,0.007202,-1.0,-2.0,0.0,7598.0,481.0,2072.0,-279.0,23.0,-128.0,45.0,42.0,-301.0,0.961653,0.055859,0.268557,15486.0,1018.0,4316.0,-15.0,-23.0,8.0
2887.0,2815.0,2894.0,3131.0,3031.0,0.796326,0.040466,-0.603394,0.007141,-1.0,-1.0,0.0,7633.0,487.0,2084.0,-244.0,29.0,-115.0,42.0,46.0,-263.0,0.961574,0.055831,0.268464,15420.0,1024.0,4222.0,-14.0,-3.0,4.0
2883.0,2819.0,2896.0,3131.0,3031.0,0.796387,0.040466,-0.603394,0.00708,-1.0,-1.0,-1.0,7606.0,479.0,2096.0,-271.0,20.0,-104.0,25.0,37.0,-287.0,0.961642,0.05591,0.268561,15076.0,924.0,4220.0,-1.0,0.0,-3.0
2887.0,2821.0,2899.0,3142.0,3038.0,0.796387,0.040527,-0.603394,0.007019,0.0,-1.0,0.0,7595.0,479.0,2097.0,-282.0,19.0,-103.0,21.0,37.0,-297.0,0.961638,0.05608,0.268555,15142.0,992.0,4182.0,4.0,-7.0,0.0
2887.0,2819.0,2899.0,3150.0,3039.0,0.796204,0.040527,-0.603638,0.00708,0.0,-2.0,0.0,7560.0,485.0,2069.0,-319.0,26.0,-126.0,32.0,47.0,-339.0,0.961811,0.055988,0.267969,15072.0,926.0,4058.0,2.0,-29.0,10.0
2883.0,2819.0,2897.0,3135.0,3037.0,0.796082,0.040527,-0.60376,0.007141,0.0,-2.0,0.0,7561.0,472.0,2049.0,-318.0,14.0,-143.0,50.0,36.0,-343.0,0.961863,0.055903,0.267629,15140.0,870.0,3996.0,5.0,-33.0,16.0
2886.0,2815.0,2896.0,3135.0,3039.0,0.795837,0.040527,-0.604126,0.007263,0.0,-1.0,0.0,7582.0,460.0,2026.0,-300.0,3.0,-159.0,71.0,25.0,-330.0,0.962161,0.055731,0.266799,15216.0,850.0,3926.0,3.0,-22.0,9.0
2887.0,2821.0,2901.0,3147.0,3027.0,0.795715,0.040466,-0.604248,0.007324,0.0,-1.0,0.0,7594.0,453.0,2009.0,-288.0,-2.0,-173.0,88.0,21.0,-323.0,0.962212,0.055548,0.266463,15248.0,892.0,3894.0,3.0,-15.0,7.0
2891.0,2821.0,2897.0,3149.0,3043.0,0.795654,0.040466,-0.60437,0.007263,-1.0,0.0,-1.0,7597.0,444.0,1991.0,-286.0,-11.0,-189.0,105.0,13.0,-326.0,0.962327,0.055615,0.266218,15116.0,816.0,3896.0,-9.0,5.0,-1.0
2887.0,2819.0,2896.0,3131.0,3027.0,0.795654,0.040405,-0.60437,0.007263,-1.0,-1.0,0.0,7576.0,431.0,1988.0,-307.0,-23.0,-192.0,103.0,2.0,-347.0,0.962326,0.055518,0.266223,15002.0,788.0,3968.0,-10.0,-1.0,2.0
2886.0,2815.0,2896.0,3133.0,3031.0,0.795532,0.040344,-0.604553,0.007263,0.0,-1.0,-1.0,7576.0,420.0,1988.0,-308.0,-33.0,-189.0,100.0,-7.0,-348.0,0.962469,0.055408,0.265812,15162.0,824.0,3966.0,1.0,-10.0,-2.0
2890.0,2826.0,2899.0,3149.0,3029.0,0.795471,0.040344,-0.604614,0.007263,0.0,-1.0,0.0,7563.0,432.0,1988.0,-321.0,-21.0,-188.0,95.0,4.0,-360.0,0.962493,0.055403,0.265641,15026.0,958.0,3978.0,2.0,-13.0,1.0
2896.0,2822.0,2896.0,3150.0,3043.0,0.795227,0.040344,-0.604858,0.007263,-1.0,-2.0,0.0,7584.0,456.0,2004.0,-301.0,2.0,-166.0,78.0,25.0,-333.0,0.962586,0.055379,0.264957,15288.0,944.0,4098.0,0.0,-23.0,7.0
2887.0,2807.0,2896.0,3133.0,3038.0,0.795166,0.040405,-0.60498,0.007263,0.0,-1.0,0.0,7603.0,470.0,2022.0,-283.0,15.0,-146.0,63.0,36.0,-310.0,0.962707,0.05547,0.264708,15300.0,1050.0,4134.0,4.0,-11.0,5.0
2887.0,2815.0,2891.0,3135.0,3039.0,0.795166,0.040466,-0.604919,0.007202,-1.0,0.0,-1.0,7620.0,500.0,2021.0,-265.0,44.0,-148.0,68.0,64.0,-291.0,0.962606,0.055641,0.264776,15238.0,1088.0,4062.0,-1.0,15.0,-2.0
2887.0,2823.0,2901.0,3143.0,3038.0,0.795227,0.040466,-0.604919,0.007202,-1.0,0.0,0.0,7596.0,504.0,2013.0,-290.0,48.0,-156.0,69.0,70.0,-317.0,0.96268,0.055646,0.264873,15002.0,1038.0,3950.0,-9.0,13.0,1.0
2890.0,2823.0,2899.0,3151.0,3046.0,0.795166,0.040344,-0.605042,0.007141,-1.0,-1.0,0.0,7562.0,480.0,2001.0,-325.0,25.0,-166.0,71.0,49.0,-355.0,0.962793,0.055519,0.264637,15094.0,822.0,4002.0,-13.0,-15.0,8.0
2887.0,2819.0,2898.0,3135.0,3039.0,0.795044,0.040283,-0.605103,0.007141,-1.0,-1.0,0.0,7565.0,455.0,1994.0,-321.0,1.0,-171.0,78.0,25.0,-354.0,0.962742,0.055412,0.264374,15146.0,794.0,3970.0,-4.0,-18.0,7.0
2885.0,2818.0,2898.0,3131.0,3035.0,0.794922,0.040283,-0.605347,0.007202,0.0,-1.0,0.0,7593.0,446.0,1995.0,-295.0,-7.0,-166.0,81.0,16.0,-328.0,0.962987,0.055324,0.263885,15262.0,864.0,3976.0,4.0,-8.0,2.0
2890.0,2821.0,2896.0,3149.0,3039.0,0.794861,0.040283,-0.605347,0.007202,0.0,-1.0,0.0,7588.0,449.0,1996.0,-300.0,-4.0,-164.0,77.0,19.0,-332.0,0.962913,0.055319,0.263788,15130.0,916.0,3988.0,2.0,-3.0,5.0
2885.0,2823.0,2898.0,3151.0,3047.0,0.794861,0.040283,-0.605408,0.007263,0.0,0.0,0.0,7620.0,447.0,2004.0,-269.0,-5.0,-156.0,78.0,16.0,-300.0,0.963015,0.055245,0.263715,15408.0,876.0,3998.0,2.0,7.0,6.0
2887.0,2827.0,2896.0,3135.0,3043.0,0.794861,0.040283,-0.605408,0.007324,0.0,1.0,0.0,7629.0,448.0,2002.0,-260.0,-3.0,-158.0,82.0,18.0,-292.0,0.96302,0.055171,0.263716,15242.0,898.0,3922.0,3.0,25.0,5.0
2887.0,2826.0,2899.0,3151.0,3039.0,0.794922,0.040283,-0.605286,0.007324,0.0,1.0,0.0,7613.0,445.0,1998.0,-275.0,-7.0,-164.0,84.0,15.0,-308.0,0.9629,0.055178,0.263961,15118.0,874.0,3986.0,5.0,29.0,4.0
2893.0,2819.0,2895.0,3151.0,3031.0,0.795044,0.040283,-0.605164,0.007446,0.0,0.0,0.0,7596.0,446.0,1997.0,-291.0,-4.0,-168.0,83.0,19.0,-324.0,0.962863,0.055041,0.264305,15186.0,922.0,4042.0,6.0,19.0,5.0
2887.0,2815.0,2894.0,3135.0,3039.0,0.795044,0.040344,-0.605164,0.007446,0.0,0.0,0.0,7585.0,446.0,1992.0,-302.0,-5.0,-173.0,85.0,18.0,-336.0,0.962864,0.055138,0.2643,15094.0,878.0,3950.0,10.0,20.0,5.0
2887.0,2821.0,2899.0,3131.0,3034.0,0.795044,0.040405,-0.605164,0.007507,-1.0,-1.0,0.0,7541.0,481.0,2001.0,-346.0,29.0,-164.0,63.0,53.0,-374.0,0.96287,0.055162,0.264296,15074.0,1064.0,4078.0,-5.0,-13.0,2.0
2886.0,2818.0,2907.0,3151.0,3025.0,0.794983,0.040344,-0.605286,0.007446,-1.0,-1.0,0.0,7573.0,488.0,2020.0,-315.0,36.0,-143.0,51.0,57.0,-339.0,0.962984,0.055132,0.264055,15364.0,1014.0,4176.0,-15.0,-16.0,4.0
2887.0,2821.0,2911.0,3149.0,3051.0,0.794983,0.040222,-0.605286,0.007263,-2.0,0.0,-1.0,7634.0,477.0,2047.0,-254.0,25.0,-116.0,42.0,42.0,-273.0,0.962968,0.055159,0.264062,15360.0,866.0,4124.0,-23.0,14.0,-3.0
2887.0,2819.0,2897.0,3135.0,3039.0,0.795044,0.040161,-0.605225,0.007202,-1.0,0.0,-1.0,7629.0,458.0,2040.0,-259.0,6.0,-124.0,49.0,24.0,-281.0,0.962939,0.055142,0.264237,15200.0,828.0,4016.0,-16.0,18.0,-7.0
2883.0,2815.0,2897.0,3135.0,3027.0,0.795105,0.040161,-0.605103,0.00708,-1.0,0.0,-1.0,7585.0,455.0,2046.0,-302.0,2.0,-120.0,34.0,21.0,-322.0,0.962809,0.055296,0.26448,14990.0,968.0,4126.0,0.0,4.0,-8.0
2887.0,2815.0,2897.0,3143.0,3031.0,0.795044,0.040222,-0.605164,0.00708,-1.0,-1.0,-1.0,7564.0,474.0,2052.0,-323.0,20.0,-113.0,21.0,40.0,-339.0,0.962833,0.055388,0.264304,15026.0,1062.0,4126.0,-3.0,-12.0,-5.0
2893.0,2823.0,2901.0,3139.0,3053.0,0.794922,0.040161,-0.605347,0.006958,-1.0,-2.0,0.0,7565.0,487.0,2046.0,-323.0,32.0,-115.0,22.0,52.0,-339.0,0.962965,0.055426,0.263892,15206.0,982.0,4030.0,-12.0,-25.0,4.0
2885.0,2815.0,2896.0,3135.0,3039.0,0.7948,0.040161,-0.605469,0.006897,-1.0,-1.0,0.0,7585.0,483.0,2038.0,-303.0,28.0,-120.0,32.0,47.0,-321.0,0.963007,0.055488,0.263549,15298.0,952.0,4066.0,-10.0,-21.0,2.0
2886.0,2818.0,2896.0,3127.0,3035.0,0.794739,0.0401,-0.605591,0.006836,-1.0,-1.0,0.0,7594.0,473.0,2023.0,-295.0,18.0,-134.0,49.0,38.0,-318.0,0.963121,0.055459,0.263308,15228.0,982.0,3998.0,-4.0,-6.0,1.0
2879.0,2815.0,2898.0,3141.0,3031.0,0.794678,0.0401,-0.605652,0.006836,-1.0,0.0,-1.0,7604.0,472.0,2023.0,-286.0,17.0,-132.0,49.0,37.0,-309.0,0.963144,0.055453,0.263137,15228.0,932.0,4006.0,-3.0,5.0,-2.0
2887.0,2823.0,2896.0,3151.0,3043.0,0.794678,0.040039,-0.605652,0.006775,-1.0,0.0,0.0,7570.0,461.0,1994.0,-320.0,6.0,-161.0,69.0,29.0,-350.0,0.963139,0.05543,0.263141,15018.0,892.0,3914.0,-8.0,2.0,4.0
2887.0,2823.0,2894.0,3127.0,3039.0,0.794617,0.039978,-0.605713,0.006775,-1.0,-1.0,0.0,7555.0,447.0,1998.0,-335.0,-6.0,-156.0,61.0,17.0,-364.0,0.963161,0.055327,0.262975,15026.0,820.0,4030.0,-9.0,-12.0,6.0
2882.0,2818.0,2897.0,3135.0,3039.0,0.794434,0.039917,-0.605957,0.006836,0.0,-2.0,0.0,7572.0,427.0,2007.0,-319.0,-24.0,-142.0,53.0,-1.0,-345.0,0.963331,0.055138,0.262394,15276.0,856.0,4034.0,5.0,-26.0,6.0
2887.0,2823.0,2901.0,3148.0,3039.0,0.794373,0.039917,-0.606079,0.006897,0.0,-1.0,0.0,7596.0,437.0,2015.0,-296.0,-14.0,-132.0,49.0,6.0,-320.0,0.963456,0.055058,0.26215,15312.0,958.0,4104.0,2.0,-15.0,5.0
2880.0,2827.0,2895.0,3143.0,3031.0,0.794373,0.039917,-0.606079,0.006775,-1.0,-1.0,-1.0,7594.0,461.0,2025.0,-298.0,8.0,-122.0,37.0,27.0,-318.0,0.963446,0.055206,0.262148,15170.0,866.0,4130.0,-22.0,-3.0,-6.0
2887.0,2815.0,2899.0,3135.0,3039.0,0.794373,0.039795,-0.606079,0.006714,-1.0,0.0,-1.0,7593.0,450.0,2028.0,-299.0,-1.0,-119.0,35.0,18.0,-319.0,0.96344,0.055086,0.262157,15192.0,874.0,4036.0,-15.0,2.0,-2.0
2887.0,2822.0,2895.0,3135.0,3039.0,0.794373,0.039795,-0.606079,0.006531,-1.0,-1.0,-1.0,7590.0,460.0,2043.0,-302.0,6.0,-104.0,19.0,24.0,-317.0,0.963425,0.055308,0.262155,15116.0,872.0,4112.0,-14.0,-2.0,-9.0
2891.0,2821.0,2896.0,3150.0,3035.0,0.794312,0.039734,-0.60614,0.00647,-1.0,-1.0,-1.0,7585.0,451.0,2039.0,-307.0,-1.0,-107.0,21.0,18.0,-323.0,0.963442,0.055279,0.261988,15124.0,868.0,4048.0,-7.0,-10.0,-2.0
2882.0,2823.0,2891.0,3143.0,3023.0,0.794189,0.039734,-0.606323,0.00647,0.0,-2.0,0.0,7583.0,445.0,2020.0,-310.0,-7.0,-122.0,35.0,13.0,-331.0,0.963585,0.055267,0.261572,15202.0,876.0,3950.0,1.0,-24.0,4.0
2894.0,2817.0,2897.0,3135.0,3035.0,0.794067,0.039734,-0.606445,0.00647,0.0,-1.0,0.0,7599.0,453.0,2010.0,-295.0,0.0,-129.0,46.0,20.0,-317.0,0.963631,0.055256,0.26123,15328.0,984.0,3982.0,5.0,-22.0,3.0
2887.0,2821.0,2891.0,3130.0,3039.0,0.794006,0.039795,-0.606506,0.006409,-1.0,0.0,-1.0,7610.0,463.0,2000.0,-284.0,8.0,-138.0,57.0,28.0,-309.0,0.96365,0.055421,0.261054,15044.0,902.0,3890.0,-4.0,10.0,-4.0
2882.0,2815.0,2906.0,3131.0,3043.0,0.794006,0.039795,-0.606567,0.006409,-1.0,-1.0,-1.0,7576.0,455.0,1999.0,-319.0,0.0,-138.0,48.0,21.0,-343.0,0.963747,0.05542,0.26098,14984.0,858.0,4038.0,-5.0,-5.0,-2.0
2895.0,2819.0,2901.0,3155.0,3027.0,0.793884,0.039795,-0.606689,0.006409,-1.0,-1.0,0.0,7573.0,459.0,1996.0,-322.0,5.0,-139.0,48.0,27.0,-346.0,0.963793,0.055409,0.260638,15212.0,956.0,3980.0,-1.0,-14.0,3.0
2893.0,2815.0,2886.0,3135.0,3047.0,0.793823,0.039795,-0.60675,0.006348,-1.0,-1.0,0.0,7581.0,469.0,1993.0,-314.0,14.0,-140.0,51.0,35.0,-338.0,0.963811,0.055477,0.260466,15216.0,972.0,4024.0,-4.0,-12.0,0.0
2883.0,2822.0,2899.0,3134.0,3043.0,0.793762,0.039734,-0.606873,0.006287,-1.0,-1.0,-1.0,7599.0,464.0,1988.0,-297.0,9.0,-143.0,58.0,30.0,-322.0,0.963925,0.055448,0.260225,15286.0,954.0,3980.0,-9.0,-5.0,-1.0
2883.0,2811.0,2911.0,3149.0,3046.0,0.793762,0.039734,-0.606934,0.006226,-1.0,0.0,-1.0,7621.0,465.0,1992.0,-276.0,10.0,-139.0,60.0,30.0,-301.0,0.964017,0.055521,0.26015,15358.0,934.0,4012.0,-7.0,6.0,-1.0
2879.0,2809.0,2901.0,3131.0,3039.0,0.793823,0.039734,-0.606812,0.006226,-1.0,0.0,0.0,7622.0,460.0,1994.0,-274.0,5.0,-139.0,61.0,25.0,-300.0,0.963897,0.055528,0.260395,15214.0,872.0,4016.0,-4.0,20.0,4.0
2895.0,2821.0,2897.0,3143.0,3023.0,0.793884,0.039673,-0.60675,0.006226,-1.0,0.0,0.0,7603.0,456.0,1994.0,-293.0,1.0,-140.0,57.0,22.0,-318.0,0.963873,0.055437,0.260571,15046.0,914.0,3960.0,-1.0,20.0,3.0
2887.0,2827.0,2891.0,3151.0,3057.0,0.793884,0.039673,-0.606689,0.006226,0.0,0.0,0.0,7581.0,452.0,1999.0,-314.0,-2.0,-136.0,48.0,19.0,-338.0,0.963776,0.055437,0.260645,15076.0,880.0,4048.0,3.0,8.0,3.0
2885.0,2821.0,2907.0,3151.0,3039.0,0.793884,0.039734,-0.60675,0.006287,0.0,-1.0,0.0,7562.0,447.0,2009.0,-334.0,-7.0,-125.0,32.0,14.0,-354.0,0.963879,0.055459,0.260567,15080.0,902.0,4044.0,3.0,-8.0,0.0
2889.0,2819.0,2890.0,3141.0,3027.0,0.793823,0.039734,-0.606812,0.006287,0.0,-1.0,0.0,7552.0,445.0,2015.0,-344.0,-9.0,-118.0,23.0,12.0,-362.0,0.963902,0.055454,0.260396,15050.0,906.0,4090.0,2.0,-16.0,2.0
2890.0,2817.0,2896.0,3135.0,3039.0,0.793701,0.039734,-0.606995,0.006287,0.0,-1.0,0.0,7593.0,457.0,2035.0,-304.0,2.0,-94.0,10.0,20.0,-317.0,0.964044,0.055442,0.25998,15390.0,958.0,4130.0,2.0,-17.0,5.0
2891.0,2810.0,2879.0,3153.0,3036.0,0.79364,0.039734,-0.606995,0.006287,0.0,0.0,0.0,7621.0,463.0,2035.0,-275.0,8.0,-93.0,16.0,25.0,-288.0,0.96397,0.055437,0.259883,15382.0,952.0,4076.0,3.0,1.0,2.0
2891.0,2815.0,2907.0,3135.0,3035.0,0.793701,0.039795,-0.606995,0.006287,0.0,0.0,0.0,7624.0,473.0,2033.0,-273.0,18.0,-96.0,19.0,35.0,-287.0,0.964045,0.055539,0.259975,15254.0,1006.0,4082.0,3.0,8.0,0.0
2880.0,2827.0,2897.0,3125.0,3027.0,0.793762,0.039856,-0.606934,0.006287,-1.0,0.0,-1.0,7608.0,500.0,2026.0,-289.0,44.0,-105.0,22.0,62.0,-303.0,0.964023,0.055641,0.260141,15162.0,1130.0,4058.0,0.0,10.0,-1.0
2878.0,2811.0,2883.0,3143.0,3039.0,0.793762,0.039856,-0.606873,0.006226,-1.0,0.0,-1.0,7594.0,508.0,2008.0,-302.0,51.0,-123.0,35.0,71.0,-320.0,0.963921,0.055716,0.260214,15062.0,1056.0,3898.0,-10.0,9.0,-2.0
2893.0,2813.0,2896.0,3153.0,3021.0,0.793701,0.039795,-0.606934,0.006104,-1.0,-1.0,0.0,7559.0,487.0,1976.0,-337.0,30.0,-154.0,57.0,53.0,-363.0,0.963934,0.055762,0.260047,15100.0,898.0,3936.0,-17.0,-8.0,3.0
2896.0,2823.0,2901.0,3147.0,3027.0,0.793701,0.039734,-0.606995,0.006042,-1.0,-1.0,0.0,7567.0,475.0,1973.0,-330.0,18.0,-156.0,62.0,41.0,-357.0,0.964025,0.055738,0.259977,15160.0,890.0,3890.0,-14.0,-4.0,5.0
2895.0,2819.0,2890.0,3141.0,3035.0,0.79364,0.039551,-0.607056,0.006042,-1.0,0.0,0.0,7600.0,462.0,1991.0,-297.0,7.0,-137.0,53.0,27.0,-321.0,0.964045,0.055442,0.25982,15350.0,900.0,4086.0,-7.0,7.0,5.0
2887.0,2811.0,2899.0,3135.0,3031.0,0.793701,0.039551,-0.606995,0.006042,-1.0,0.0,-1.0,7617.0,456.0,1997.0,-280.0,1.0,-132.0,53.0,21.0,-304.0,0.964023,0.055447,0.259991,15326.0,880.0,4058.0,-5.0,22.0,-1.0
2896.0,2827.0,2902.0,3139.0,3056.0,0.793823,0.039551,-0.606812,0.006042,0.0,0.0,0.0,7595.0,456.0,2019.0,-301.0,1.0,-114.0,30.0,20.0,-319.0,0.96388,0.055459,0.260407,15164.0,962.0,4114.0,3.0,15.0,2.0
2897.0,2823.0,2891.0,3135.0,3045.0,0.793884,0.039551,-0.60675,0.006042,-1.0,0.0,-1.0,7609.0,463.0,2036.0,-286.0,8.0,-98.0,18.0,25.0,-300.0,0.963857,0.055465,0.260578,15346.0,940.0,4234.0,-1.0,11.0,-4.0
2886.0,2822.0,2885.0,3139.0,3047.0,0.793884,0.039612,-0.606689,0.006042,-1.0,0.0,-1.0,7602.0,472.0,2043.0,-293.0,16.0,-92.0,10.0,33.0,-305.0,0.963761,0.055563,0.260648,15114.0,1012.0,4128.0,-5.0,14.0,-5.0
2879.0,2813.0,2905.0,3151.0,3031.0,0.793945,0.039551,-0.606689,0.00592,-1.0,-1.0,0.0,7573.0,468.0,2071.0,-322.0,12.0,-65.0,-23.0,28.0,-326.0,0.963825,0.055619,0.260748,15140.0,954.0,4204.0,-9.0,-12.0,2.0
2886.0,2815.0,2900.0,3142.0,3037.0,0.793884,0.03949,-0.60675,0.005859,-1.0,-1.0,0.0,7583.0,469.0,2087.0,-312.0,13.0,-47.0,-37.0,28.0,-312.0,0.963842,0.05559,0.260581,15246.0,930.0,4234.0,-10.0,-18.0,0.0
2895.0,2823.0,2911.0,3131.0,3039.0,0.793823,0.039429,-0.606812,0.005859,-1.0,-1.0,0.0,7606.0,444.0,2076.0,-289.0,-10.0,-57.0,-20.0,5.0,-293.0,0.963864,0.055488,0.260415,15280.0,816.0,4140.0,-3.0,-11.0,0.0
2881.0,2811.0,2895.0,3155.0,3023.0,0.793823,0.039429,-0.606873,0.005859,0.0,-1.0,0.0,7614.0,443.0,2069.0,-282.0,-11.0,-63.0,-12.0,4.0,-288.0,0.963961,0.055487,0.260341,15264.0,904.0,4098.0,5.0,-7.0,0.0
2885.0,2826.0,2896.0,3150.0,3038.0,0.793762,0.03949,-0.606873,0.005798,-1.0,-1.0,-1.0,7616.0,436.0,2046.0,-280.0,-19.0,-85.0,9.0,-2.0,-293.0,0.963883,0.055653,0.260238,15206.0,804.0,4012.0,-1.0,0.0,-9.0
2895.0,2831.0,2896.0,3131.0,3034.0,0.793762,0.03949,-0.606934,0.005737,-1.0,-1.0,-1.0,7598.0,421.0,2025.0,-298.0,-35.0,-106.0,25.0,-15.0,-316.0,0.963975,0.055727,0.260164,15080.0,778.0,3932.0,-1.0,-5.0,-9.0
2883.0,2815.0,2891.0,3125.0,3031.0,0.79364,0.039612,-0.607056,0.005676,-1.0,-1.0,-1.0,7575.0,439.0,1996.0,-322.0,-19.0,-132.0,43.0,2.0,-345.0,0.964017,0.055983,0.259811,15120.0,944.0,3982.0,-4.0,-10.0,-13.0
2887.0,2827.0,2897.0,3139.0,3021.0,0.793579,0.039612,-0.607117,0.005615,-1.0,-1.0,-1.0,7569.0,444.0,1989.0,-328.0,-15.0,-137.0,46.0,7.0,-352.0,0.964035,0.056052,0.25964,15112.0,900.0,3932.0,-8.0,-13.0,-5.0
2874.0,2819.0,2885.0,3127.0,3047.0,0.793518,0.039612,-0.607239,0.005493,-1.0,-1.0,-1.0,7587.0,465.0,1984.0,-311.0,4.0,-140.0,53.0,25.0,-335.0,0.964145,0.056194,0.259393,15184.0,1040.0,3952.0,-2.0,-1.0,-4.0
2895.0,2823.0,2887.0,3143.0,3035.0,0.793457,0.039612,-0.607239,0.005432,-1.0,-1.0,-1.0,7583.0,482.0,1979.0,-314.0,21.0,-145.0,56.0,43.0,-339.0,0.964066,0.056263,0.259296,15176.0,1034.0,3974.0,-6.0,-2.0,-7.0
2891.0,2821.0,2895.0,3131.0,3039.0,0.463257,0.02948,0.120911,-1.21228,29916.0,-20741.0,28347.0,14073.0,31201.0,14303.0,15576.0,-32158.0,632.0,9451.0,22330.0,6745.0,-0.183501,-0.265842,1.668742,15396.0,1044.0,4008.0,-12.0,5.0,-5.0
2882.0,2815.0,2895.0,3151.0,3026.0,0.793518,0.039612,-0.607239,0.005188,-1.0,0.0,-1.0,7633.0,497.0,1984.0,-265.0,33.0,-140.0,63.0,53.0,-289.0,0.964121,0.056565,0.25939,15330.0,998.0,3946.0,-19.0,20.0,-12.0
2879.0,2815.0,2893.0,3139.0,3031.0,0.793579,0.039551,-0.607117,0.005005,-1.0,0.0,-1.0,7579.0,481.0,1980.0,-317.0,16.0,-146.0,56.0,38.0,-342.0,0.963986,0.056696,0.259638,14940.0,926.0,3968.0,-14.0,12.0,-3.0
2895.0,2823.0,2901.0,3135.0,3039.0,0.793579,0.03949,-0.607117,0.004944,0.0,-1.0,0.0,7557.0,470.0,1986.0,-339.0,5.0,-140.0,45.0,28.0,-362.0,0.963981,0.056673,0.259642,15008.0,886.0,3974.0,1.0,-3.0,3.0
2889.0,2819.0,2877.0,3127.0,3047.0,0.793518,0.039612,-0.607239,0.005005,0.0,-1.0,0.0,7571.0,500.0,2014.0,-326.0,34.0,-110.0,18.0,54.0,-340.0,0.964106,0.056787,0.259388,15184.0,1086.0,4080.0,9.0,-9.0,1.0
2891.0,2815.0,2896.0,3135.0,3035.0,0.793518,0.039673,-0.607239,0.005005,0.0,-1.0,0.0,7585.0,508.0,2022.0,-312.0,42.0,-102.0,14.0,61.0,-324.0,0.964107,0.056884,0.259383,15252.0,1084.0,4094.0,6.0,-3.0,4.0
2885.0,2829.0,2902.0,3131.0,3031.0,0.793518,0.039734,-0.607239,0.005005,0.0,0.0,0.0,7590.0,529.0,2027.0,-307.0,62.0,-97.0,9.0,80.0,-317.0,0.964108,0.056981,0.259378,15188.0,1204.0,4056.0,2.0,5.0,3.0
2891.0,2827.0,2896.0,3135.0,3038.0,0.793518,0.039734,-0.607178,0.005005,-1.0,0.0,0.0,7573.0,513.0,2016.0,-324.0,46.0,-109.0,17.0,66.0,-337.0,0.964011,0.056981,0.259452,15054.0,924.0,3978.0,0.0,6.0,10.0
2891.0,2815.0,2892.0,3135.0,3027.0,0.793518,0.039734,-0.607178,0.005066,0.0,0.0,0.0,7558.0,499.0,2003.0,-339.0,32.0,-122.0,26.0,53.0,-356.0,0.964016,0.056907,0.259453,15034.0,926.0,3918.0,11.0,4.0,13.0
2895.0,2815.0,2897.0,3135.0,3031.0,0.793457,0.039795,-0.607239,0.005249,0.0,-1.0,0.0,7581.0,492.0,1995.0,-316.0,26.0,-129.0,39.0,47.0,-336.0,0.964054,0.056776,0.259279,15334.0,996.0,3954.0,8.0,-1.0,14.0
2891.0,2828.0,2911.0,3139.0,3039.0,0.793457,0.039734,-0.607239,0.00531,-1.0,0.0,0.0,7595.0,490.0,1994.0,-302.0,26.0,-130.0,44.0,46.0,-323.0,0.964058,0.056605,0.259285,15224.0,940.0,3970.0,0.0,12.0,11.0
2883.0,2819.0,2893.0,3143.0,3056.0,-1.21228,-1.195435,1.2547,0.445984,32012.0,-2863.0,20025.0,20027.0,10215.0,12086.0,3841.0,-22696.0,23020.0,18827.0,-23233.0,16752.0,1.975806,4.017555,-1.33481,15168.0,814.0,4016.0,-1.0,7.0,7.0
2886.0,2813.0,2891.0,3135.0,3023.0,0.793518,0.039673,-0.607178,0.005371,0.0,0.0,0.0,7591.0,451.0,2008.0,-306.0,-11.0,-117.0,32.0,9.0,-325.0,0.964039,0.05644,0.259461,15226.0,902.0,4072.0,2.0,8.0,3.0
2882.0,2815.0,2887.0,3143.0,3034.0,0.793579,0.039673,-0.607117,0.005432,0.0,0.0,0.0,7596.0,446.0,2023.0,-301.0,-15.0,-103.0,20.0,4.0,-317.0,0.964021,0.056371,0.259633,15224.0,846.0,4082.0,4.0,5.0,5.0
2883.0,2819.0,2902.0,3139.0,3027.0,0.793579,0.039673,-0.607117,0.005493,0.0,0.0,0.0,7589.0,454.0,2024.0,-308.0,-7.0,-102.0,17.0,12.0,-323.0,0.964026,0.056297,0.259633,15118.0,956.0,4102.0,6.0,2.0,6.0
2882.0,2822.0,2901.0,3135.0,3027.0,0.793579,0.039673,-0.607117,0.005554,0.0,0.0,0.0,7575.0,453.0,2035.0,-322.0,-7.0,-91.0,3.0,12.0,-334.0,0.964031,0.056223,0.259634,15014.0,918.0,4034.0,10.0,5.0,4.0
2893.0,2813.0,2887.0,3131.0,3047.0,0.793518,0.039734,-0.607178,0.005615,0.0,-1.0,0.0,7556.0,459.0,2031.0,-341.0,-1.0,-94.0,1.0,18.0,-353.0,0.964059,0.05624,0.259459,15150.0,968.0,4034.0,11.0,-15.0,11.0
2881.0,2815.0,2895.0,3143.0,3024.0,0.793518,0.039795,-0.607239,0.005737,0.0,-1.0,0.0,7579.0,475.0,2027.0,-319.0,14.0,-97.0,8.0,33.0,-331.0,0.964167,0.056188,0.259381,15276.0,1042.0,3938.0,14.0,-3.0,8.0
2893.0,2821.0,2896.0,3135.0,3035.0,0.793518,0.039795,-0.607239,0.005737,0.0,0.0,0.0,7596.0,490.0,2021.0,-302.0,29.0,-103.0,18.0,47.0,-316.0,0.964167,0.056188,0.259381,15322.0,1052.0,4062.0,10.0,6.0,9.0
2881.0,2811.0,2907.0,3143.0,3025.0,0.793579,0.039856,-0.607117,0.005798,0.0,0.0,0.0,7615.0,503.0,2014.0,-282.0,42.0,-112.0,31.0,60.0,-298.0,0.964052,0.056217,0.259622,15240.0,914.0,3976.0,2.0,20.0,11.0
2887.0,2819.0,2895.0,3133.0,3051.0,0.79364,0.039856,-0.607056,0.00592,0.0,0.0,0.0,7599.0,498.0,1997.0,-298.0,38.0,-131.0,45.0,58.0,-319.0,0.964039,0.056075,0.259795,15096.0,988.0,3894.0,5.0,15.0,15.0
2879.0,2826.0,2895.0,3135.0,3039.0,0.79364,0.039856,-0.607056,0.005981,0.0,-1.0,0.0,7579.0,474.0,2005.0,-318.0,15.0,-123.0,33.0,35.0,-337.0,0.964044,0.056,0.259795,15130.0,858.0,4048.0,3.0,0.0,9.0
2919.0,2817.0,2896.0,3135.0,3031.0,0.79364,0.039795,-0.607056,0.006042,0.0,0.0,0.0,7582.0,463.0,2019.0,-315.0,5.0,-109.0,21.0,24.0,-331.0,0.964048,0.055829,0.259801,15174.0,880.0,4096.0,5.0,5.0,7.0
2883.0,2821.0,2899.0,3131.0,3043.0,0.79364,0.039856,-0.607056,0.006104,0.0,0.0,0.0,7574.0,461.0,2031.0,-323.0,3.0,-97.0,8.0,22.0,-336.0,0.964054,0.055852,0.259797,15080.0,890.0,4136.0,2.0,4.0,3.0
2883.0,2823.0,2896.0,3141.0,3015.0,0.79364,0.039856,-0.607056,0.006165,0.0,-1.0,0.0,7576.0,474.0,2067.0,-321.0,17.0,-61.0,-26.0,33.0,-324.0,0.964059,0.055778,0.259798,15240.0,1014.0,4246.0,4.0,-12.0,9.0
2879.0,2815.0,2895.0,3143.0,3027.0,0.79364,0.039856,-0.607056,0.006165,0.0,-1.0,0.0,7605.0,484.0,2086.0,-292.0,27.0,-42.0,-37.0,41.0,-290.0,0.964059,0.055778,0.259798,15390.0,1006.0,4314.0,2.0,-7.0,8.0
2887.0,2813.0,2887.0,3135.0,3039.0,0.793701,0.039856,-0.606995,0.006226,0.0,0.0,0.0,7602.0,465.0,2093.0,-295.0,8.0,-36.0,-43.0,21.0,-293.0,0.964041,0.05571,0.259969,15072.0,886.0,4168.0,8.0,8.0,5.0
2895.0,2827.0,2907.0,3143.0,3029.0,0.793701,0.039856,-0.606995,0.006287,0.0,-1.0,0.0,7586.0,457.0,2088.0,-311.0,1.0,-41.0,-42.0,15.0,-310.0,0.964046,0.055636,0.25997,15094.0,864.0,4188.0,9.0,-5.0,7.0
2887.0,2815.0,2887.0,3147.0,3025.0,0.79364,0.039917,-0.606995,0.006348,0.0,-1.0,0.0,7579.0,450.0,2077.0,-317.0,-5.0,-51.0,-33.0,10.0,-319.0,0.963977,0.055653,0.259869,15138.0,866.0,4110.0,8.0,-13.0,8.0
2887.0,2811.0,2887.0,3127.0,3051.0,0.793518,0.039795,-0.607178,0.00647,-1.0,-1.0,0.0,7578.0,421.0,2046.0,-320.0,-32.0,-79.0,-6.0,-14.0,-330.0,0.964128,0.055299,0.259464,15130.0,704.0,4018.0,-4.0,-22.0,9.0
2891.0,2821.0,2896.0,3143.0,3038.0,0.793457,0.039734,-0.6073,0.00647,-1.0,-2.0,0.0,7583.0,406.0,2042.0,-316.0,-46.0,-81.0,-2.0,-28.0,-328.0,0.964247,0.055196,0.259224,15220.0,718.0,4076.0,-8.0,-23.0,4.0
2887.0,2826.0,2906.0,3147.0,3037.0,0.793335,0.039673,-0.607483,0.00647,0.0,-1.0,-1.0,7598.0,372.0,2006.0,-302.0,-79.0,-114.0,35.0,-59.0,-325.0,0.964388,0.055087,0.258813,15262.0,722.0,3942.0,1.0,-11.0,-10.0
2879.0,2818.0,2881.0,3119.0,3038.0,0.793274,0.039673,-0.607544,0.006409,0.0,-1.0,-1.0,7600.0,375.0,1994.0,-300.0,-76.0,-124.0,45.0,-55.0,-325.0,0.964406,0.055156,0.258641,15198.0,806.0,3948.0,1.0,-5.0,-12.0
2882.0,2803.0,2885.0,3143.0,3019.0,0.793213,0.039734,-0.607605,0.006287,-1.0,-1.0,-1.0,7600.0,401.0,1982.0,-300.0,-52.0,-135.0,54.0,-30.0,-327.0,0.96442,0.055395,0.258464,15220.0,858.0,3972.0,-9.0,-3.0,-15.0
2883.0,2811.0,2901.0,3138.0,3046.0,0.793213,0.039734,-0.607605,0.006165,-1.0,0.0,-1.0,7602.0,428.0,1986.0,-298.0,-27.0,-131.0,49.0,-6.0,-322.0,0.96441,0.055544,0.258462,15196.0,1034.0,3978.0,-7.0,3.0,-13.0
2883.0,2827.0,2901.0,3147.0,3039.0,0.793213,0.039856,-0.607605,0.005981,-1.0,0.0,-1.0,7600.0,479.0,1994.0,-300.0,20.0,-123.0,38.0,40.0,-319.0,0.964397,0.05596,0.25845,15132.0,1058.0,3994.0,-8.0,5.0,-9.0
2895.0,2802.0,2911.0,3147.0,3035.0,0.793213,0.039856,-0.607605,0.00592,-1.0,-1.0,-1.0,7584.0,499.0,1998.0,-316.0,39.0,-119.0,29.0,59.0,-333.0,0.964392,0.056034,0.258449,15064.0,1100.0,4030.0,-5.0,-3.0,-4.0
2877.0,2809.0,2896.0,3122.0,3023.0,0.793152,0.039917,-0.607666,0.005859,0.0,-1.0,0.0,7585.0,520.0,2001.0,-315.0,59.0,-114.0,24.0,79.0,-329.0,0.964411,0.056199,0.258273,15184.0,1096.0,3990.0,2.0,-2.0,3.0
2881.0,2823.0,2896.0,3135.0,3021.0,0.793152,0.039978,-0.607666,0.005859,0.0,0.0,0.0,7579.0,528.0,1995.0,-321.0,66.0,-120.0,27.0,86.0,-336.0,0.964411,0.056296,0.258268,15114.0,1066.0,3944.0,2.0,5.0,7.0
2885.0,2807.0,2894.0,3143.0,3031.0,0.793152,0.039978,-0.607666,0.005859,-1.0,0.0,0.0,7575.0,525.0,1987.0,-325.0,63.0,-128.0,34.0,84.0,-342.0,0.964411,0.056296,0.258268,15128.0,1010.0,3912.0,-2.0,6.0,9.0
2879.0,2810.0,2899.0,3143.0,3038.0,0.793213,0.039978,-0.607605,0.00592,0.0,0.0,0.0,7598.0,502.0,1986.0,-302.0,41.0,-131.0,44.0,61.0,-322.0,0.964394,0.056228,0.25844,15228.0,934.0,3936.0,7.0,22.0,10.0
2887.0,2819.0,2896.0,3135.0,3039.0,0.793274,0.039978,-0.607483,0.006042,0.0,1.0,0.0,7596.0,493.0,1977.0,-303.0,33.0,-142.0,55.0,54.0,-327.0,0.964284,0.056086,0.258686,15170.0,974.0,3906.0,16.0,28.0,12.0
-184.0,2535.0,-277.0,-66.0,-142.0,40.0,-72.0,-307.0,0.944966,-0.014358,0.326899,14920.0,-518.0,5138.0,36.0,24.0,11.0,,,,,,,,,,,,,
2863.0,2807.0,2903.0,3133.0,3047.0,0.814514,-0.016602,-0.579773,-0.010681,1.0,-1.0,0.0,7401.0,-225.0,2542.0,-338.0,-104.0,-137.0,14.0,-109.0,-362.0,0.944821,-0.014659,0.327135,14724.0,-520.0,5136.0,35.0,-3.0,12.0
2865.0,2809.0,2899.0,3133.0,3031.0,0.814514,-0.016541,-0.579773,-0.010498,1.0,-1.0,0.0,7415.0,-228.0,2572.0,-324.0,-106.0,-107.0,-8.0,-110.0,-339.0,0.944814,-0.014772,0.327133,14956.0,-484.0,5324.0,31.0,-10.0,4.0
2864.0,2815.0,2887.0,3141.0,3024.0,0.814575,-0.016418,-0.579773,-0.010376,0.0,0.0,-1.0,7440.0,-231.0,2613.0,-300.0,-110.0,-67.0,-38.0,-113.0,-303.0,0.944878,-0.014717,0.327234,14852.0,-410.0,5342.0,19.0,6.0,-8.0
2867.0,2815.0,2903.0,3143.0,3039.0,0.814575,-0.016357,-0.579712,-0.010315,0.0,-1.0,-1.0,7424.0,-220.0,2625.0,-315.0,-99.0,-56.0,-53.0,-101.0,-314.0,0.944775,-0.014689,0.327306,14758.0,-362.0,5288.0,11.0,-4.0,-12.0
2863.0,2815.0,2911.0,3135.0,3039.0,0.814514,-0.016296,-0.579773,-0.010315,0.0,-1.0,-1.0,7425.0,-197.0,2623.0,-314.0,-77.0,-56.0,-52.0,-79.0,-313.0,0.944803,-0.014587,0.327137,14864.0,-290.0,5260.0,15.0,-11.0,-14.0
2863.0,2812.0,2897.0,3123.0,3051.0,0.814514,-0.016174,-0.579773,-0.010376,0.0,-1.0,-1.0,7419.0,-177.0,2625.0,-320.0,-59.0,-54.0,-55.0,-61.0,-319.0,0.944802,-0.014317,0.327143,14800.0,-210.0,5252.0,14.0,-9.0,-15.0
2869.0,2810.0,2870.0,3141.0,3043.0,0.814514,-0.015991,-0.579834,-0.010437,0.0,-1.0,-1.0,7385.0,-139.0,2600.0,-355.0,-24.0,-79.0,-42.0,-27.0,-360.0,0.9449,-0.013947,0.327079,14632.0,-232.0,5100.0,4.0,-11.0,-10.0
2863.0,2814.0,2903.0,3135.0,3035.0,0.814453,-0.01593,-0.579895,-0.010437,0.0,-2.0,-1.0,7392.0,-145.0,2603.0,-348.0,-31.0,-75.0,-44.0,-34.0,-352.0,0.944927,-0.013844,0.326911,14868.0,-326.0,5236.0,11.0,-23.0,-7.0
2864.0,2807.0,2897.0,3149.0,3039.0,0.814331,-0.015747,-0.580078,-0.010376,0.0,-2.0,-1.0,7412.0,-117.0,2612.0,-330.0,-5.0,-62.0,-49.0,-7.0,-332.0,0.945078,-0.013609,0.326504,14846.0,-142.0,5360.0,12.0,-25.0,-11.0
2865.0,2809.0,2896.0,3135.0,3038.0,0.81427,-0.015686,-0.5802,-0.010437,0.0,-2.0,-1.0,7417.0,-88.0,2618.0,-326.0,22.0,-54.0,-54.0,19.0,-326.0,0.945207,-0.013434,0.326266,14918.0,28.0,5284.0,1.0,-31.0,-7.0
2863.0,2803.0,2896.0,3135.0,3031.0,0.814087,-0.015625,-0.580383,-0.010559,-1.0,-2.0,-1.0,7435.0,-72.0,2601.0,-308.0,35.0,-67.0,-35.0,32.0,-313.0,0.945295,-0.013184,0.32576,14874.0,-120.0,5116.0,-1.0,-28.0,-6.0
2864.0,2813.0,2906.0,3141.0,3035.0,0.813965,-0.015625,-0.580566,-0.01062,-1.0,-2.0,-1.0,7460.0,-50.0,2585.0,-285.0,57.0,-80.0,-15.0,53.0,-296.0,0.945453,-0.013105,0.32535,15148.0,32.0,5168.0,-4.0,-38.0,-4.0
2864.0,2811.0,2901.0,3139.0,3035.0,0.813843,-0.015625,-0.58075,-0.010742,-1.0,0.0,-1.0,7493.0,-45.0,2547.0,-253.0,61.0,-114.0,27.0,56.0,-277.0,0.945613,-0.012956,0.324941,14776.0,-132.0,4892.0,-7.0,7.0,-1.0
2861.0,2803.0,2897.0,3131.0,3039.0,0.813843,-0.015625,-0.580811,-0.010742,0.0,-1.0,0.0,7434.0,-52.0,2533.0,-313.0,54.0,-128.0,21.0,48.0,-338.0,0.945713,-0.012954,0.32487,14530.0,-148.0,5000.0,3.0,-11.0,2.0
2866.0,2810.0,2895.0,3135.0,3038.0,0.81366,-0.015442,-0.581055,-0.010681,0.0,-2.0,0.0,7424.0,-10.0,2526.0,-324.0,94.0,-130.0,21.0,88.0,-349.0,0.945891,-0.012716,0.324293,14962.0,154.0,5022.0,11.0,-31.0,10.0
2865.0,2813.0,2899.0,3139.0,3035.0,0.813538,-0.015442,-0.581177,-0.01062,0.0,-1.0,0.0,7447.0,-5.0,2520.0,-302.0,99.0,-133.0,31.0,93.0,-330.0,0.945946,-0.012781,0.323951,15004.0,-40.0,5032.0,2.0,-21.0,17.0
2863.0,2809.0,2896.0,3135.0,3039.0,0.813416,-0.015442,-0.58136,-0.010376,1.0,-1.0,1.0,7429.0,-29.0,2507.0,-321.0,77.0,-143.0,33.0,71.0,-350.0,0.946095,-0.013057,0.323535,14816.0,-88.0,5100.0,23.0,-16.0,28.0
2864.0,2814.0,2897.0,3135.0,3031.0,0.813416,-0.015381,-0.581421,-0.010132,1.0,-1.0,1.0,7440.0,-28.0,2508.0,-311.0,80.0,-141.0,35.0,74.0,-340.0,0.946185,-0.01324,0.323461,14976.0,-20.0,5030.0,32.0,-14.0,29.0
2865.0,2811.0,2894.0,3139.0,3039.0,0.813354,-0.015198,-0.581482,-0.009827,0.0,-1.0,1.0,7464.0,6.0,2517.0,-287.0,114.0,-131.0,34.0,108.0,-315.0,0.946201,-0.013294,0.32329,14962.0,76.0,5002.0,12.0,0.0,27.0
2864.0,2813.0,2895.0,3131.0,3039.0,0.813354,-0.01532,-0.581482,-0.009766,-1.0,-1.0,1.0,7462.0,-7.0,2521.0,-289.0,104.0,-127.0,30.0,98.0,-315.0,0.946201,-0.013564,0.323285,14906.0,-134.0,5092.0,-8.0,-2.0,34.0
2867.0,2818.0,2903.0,3135.0,3039.0,0.813293,-0.015625,-0.581543,-0.00946,-1.0,-1.0,1.0,7442.0,-71.0,2515.0,-309.0,47.0,-131.0,25.0,41.0,-335.0,0.946226,-0.014412,0.323099,14760.0,-284.0,4958.0,-4.0,-8.0,37.0
2863.0,2807.0,2895.0,3131.0,3038.0,0.813232,-0.015747,-0.581604,-0.009338,-1.0,-1.0,1.0,7433.0,-102.0,2516.0,-318.0,18.0,-129.0,19.0,12.0,-342.0,0.946253,-0.01475,0.322923,14864.0,-392.0,5100.0,-4.0,-22.0,38.0
2864.0,2811.0,2896.0,3133.0,3039.0,0.813171,-0.016052,-0.581726,-0.009033,-1.0,-1.0,1.0,7453.0,-132.0,2540.0,-299.0,-4.0,-103.0,0.0,-8.0,-316.0,0.946376,-0.015597,0.322666,14944.0,-314.0,5122.0,-7.0,-6.0,30.0
2866.0,2815.0,2901.0,3135.0,3039.0,0.813171,-0.016174,-0.581726,-0.008911,-1.0,0.0,1.0,7449.0,-138.0,2542.0,-303.0,-7.0,-101.0,-2.0,-12.0,-319.0,0.946374,-0.015937,0.32266,14838.0,-344.0,5104.0,-16.0,1.0,30.0
2864.0,2815.0,2899.0,3135.0,3011.0,0.813171,-0.016541,-0.581665,-0.008728,-1.0,0.0,0.0,7434.0,-185.0,2552.0,-317.0,-47.0,-91.0,-17.0,-51.0,-328.0,0.946275,-0.016747,0.322716,14844.0,-480.0,5142.0,-6.0,1.0,21.0
2863.0,2802.0,2895.0,3135.0,3041.0,0.813232,-0.016602,-0.581665,-0.008606,0.0,-1.0,0.0,7445.0,-198.0,2566.0,-307.0,-58.0,-78.0,-27.0,-62.0,-314.0,0.946343,-0.01699,0.322811,15020.0,-470.0,5216.0,1.0,-1.0,15.0
2866.0,2809.0,2897.0,3131.0,3031.0,0.813354,-0.016602,-0.581482,-0.008484,0.0,0.0,0.0,7450.0,-176.0,2611.0,-301.0,-35.0,-36.0,-64.0,-37.0,-295.0,0.946184,-0.017139,0.323221,14754.0,-188.0,5302.0,12.0,14.0,2.0
2864.0,2811.0,2896.0,3135.0,3043.0,0.813354,-0.016602,-0.581421,-0.008484,-1.0,-1.0,0.0,7425.0,-161.0,2615.0,-325.0,-20.0,-33.0,-74.0,-22.0,-317.0,0.946084,-0.01714,0.323292,14748.0,-288.0,5212.0,-1.0,-9.0,7.0
2863.0,2814.0,2899.0,3135.0,3024.0,0.813171,-0.016785,-0.581665,-0.008423,-1.0,-2.0,0.0,7431.0,-175.0,2600.0,-320.0,-31.0,-43.0,-63.0,-34.0,-316.0,0.94627,-0.017499,0.322703,14948.0,-492.0,5128.0,-14.0,-42.0,8.0
2867.0,2815.0,2891.0,3138.0,3038.0,0.813049,-0.016907,-0.581848,-0.008362,-1.0,-2.0,0.0,7459.0,-192.0,2582.0,-294.0,-46.0,-58.0,-41.0,-49.0,-296.0,0.946425,-0.017761,0.322286,15088.0,-462.0,5030.0,-8.0,-39.0,2.0
2863.0,2803.0,2895.0,3127.0,3043.0,0.812866,-0.016907,-0.582153,-0.008484,-1.0,-1.0,-1.0,7480.0,-206.0,2540.0,-275.0,-61.0,-94.0,-1.0,-66.0,-289.0,0.946712,-0.017608,0.321635,14868.0,-466.0,4946.0,-3.0,-21.0,-18.0
2865.0,2785.0,2896.0,3133.0,3046.0,0.812805,-0.016846,-0.582275,-0.008545,0.0,-2.0,-2.0,7454.0,-204.0,2527.0,-302.0,-61.0,-105.0,0.0,-66.0,-318.0,0.946841,-0.017434,0.321397,14740.0,-356.0,5004.0,8.0,-24.0,-24.0
2870.0,2807.0,2894.0,3142.0,3039.0,0.812622,-0.016602,-0.58252,-0.008728,-1.0,-2.0,-2.0,7456.0,-120.0,2534.0,-302.0,17.0,-94.0,-7.0,11.0,-316.0,0.947026,-0.016813,0.320826,15008.0,88.0,5110.0,-1.0,-25.0,-30.0
2867.0,2801.0,2901.0,3133.0,3047.0,0.812561,-0.016541,-0.582581,-0.008911,-1.0,-1.0,-1.0,7458.0,-87.0,2537.0,-300.0,48.0,-89.0,-10.0,43.0,-313.0,0.947059,-0.016497,0.320661,14908.0,0.0,5086.0,-21.0,-18.0,-19.0
2871.0,2811.0,2896.0,3131.0,3031.0,0.812439,-0.016602,-0.582764,-0.009277,-1.0,-2.0,-1.0,7446.0,-103.0,2526.0,-313.0,29.0,-97.0,-7.0,23.0,-328.0,0.947228,-0.016163,0.320254,14802.0,-360.0,4944.0,-18.0,-23.0,-18.0
2867.0,2811.0,2909.0,3135.0,3039.0,0.812317,-0.016602,-0.582886,-0.009338,-1.0,-2.0,-1.0,7441.0,-111.0,2521.0,-319.0,20.0,-99.0,-7.0,14.0,-334.0,0.947286,-0.016085,0.319915,14874.0,-222.0,5040.0,-1.0,-28.0,-19.0
2867.0,2807.0,2899.0,3141.0,3037.0,0.812195,-0.016479,-0.583069,-0.009583,-1.0,-1.0,-1.0,7476.0,-83.0,2519.0,-285.0,44.0,-98.0,3.0,39.0,-302.0,0.947447,-0.015595,0.319511,15094.0,-128.0,5044.0,-11.0,-16.0,-17.0
2866.0,2807.0,2896.0,3143.0,3039.0,0.812195,-0.016418,-0.583069,-0.009705,-1.0,0.0,-1.0,7489.0,-85.0,2519.0,-272.0,40.0,-98.0,7.0,35.0,-289.0,0.94745,-0.015353,0.319516,15014.0,-194.0,4970.0,-10.0,7.0,-16.0
2863.0,2800.0,2891.0,3131.0,3047.0,0.812317,-0.016357,-0.582886,-0.009888,-1.0,0.0,-1.0,7456.0,-78.0,2515.0,-304.0,45.0,-105.0,3.0,40.0,-322.0,0.947299,-0.015048,0.319933,14758.0,-80.0,5018.0,-4.0,22.0,-16.0
2865.0,2815.0,2897.0,3126.0,3047.0,0.812378,-0.016296,-0.582825,-0.01001,-1.0,0.0,-1.0,7438.0,-65.0,2517.0,-322.0,56.0,-105.0,-1.0,51.0,-339.0,0.947274,-0.01481,0.320108,14810.0,-76.0,5070.0,-8.0,14.0,-9.0
2868.0,2807.0,2899.0,3135.0,3043.0,0.8125,-0.016418,-0.582642,-0.010071,-1.0,0.0,0.0,7437.0,-51.0,2519.0,-321.0,71.0,-106.0,0.0,65.0,-339.0,0.947123,-0.014945,0.320517,14848.0,-78.0,5016.0,-15.0,22.0,10.0
2863.0,2794.0,2897.0,3131.0,3031.0,0.812561,-0.016479,-0.582581,-0.010071,-1.0,0.0,0.0,7450.0,-58.0,2523.0,-308.0,65.0,-104.0,1.0,60.0,-326.0,0.947096,-0.015047,0.320685,15034.0,-154.0,5086.0,-9.0,20.0,18.0
2867.0,2806.0,2902.0,3127.0,3026.0,0.812683,-0.016541,-0.582336,-0.009888,0.0,1.0,0.0,7457.0,-63.0,2534.0,-299.0,62.0,-96.0,-3.0,57.0,-314.0,0.946837,-0.015368,0.321162,14908.0,-114.0,5110.0,7.0,25.0,22.0
2867.0,2811.0,2903.0,3129.0,3043.0,0.812805,-0.016541,-0.582275,-0.009827,0.0,0.0,1.0,7467.0,-58.0,2547.0,-289.0,68.0,-86.0,-9.0,63.0,-302.0,0.946878,-0.015445,0.321431,14986.0,-64.0,5208.0,10.0,22.0,24.0
2866.0,2813.0,2901.0,3139.0,3039.0,0.812866,-0.016663,-0.582092,-0.009644,-1.0,0.0,1.0,7457.0,-53.0,2538.0,-297.0,76.0,-97.0,-1.0,71.0,-313.0,0.946648,-0.015862,0.321735,14854.0,-146.0,4966.0,-6.0,6.0,27.0
2867.0,2805.0,2899.0,3135.0,3039.0,0.812866,-0.016724,-0.582153,-0.009521,-1.0,-1.0,1.0,7461.0,-60.0,2539.0,-294.0,71.0,-96.0,-1.0,66.0,-310.0,0.946744,-0.016102,0.32166,14942.0,-158.0,5022.0,-6.0,-5.0,28.0
2864.0,2807.0,2895.0,3133.0,3035.0,0.812805,-0.016907,-0.582214,-0.009399,-1.0,-1.0,0.0,7459.0,-75.0,2505.0,-296.0,60.0,-128.0,27.0,53.0,-322.0,0.946772,-0.016539,0.321481,14884.0,-220.0,4876.0,-2.0,-8.0,22.0
2864.0,2814.0,2903.0,3135.0,3035.0,0.812744,-0.016968,-0.582275,-0.009277,-1.0,-1.0,1.0,7463.0,-98.0,2492.0,-293.0,39.0,-140.0,39.0,32.0,-323.0,0.946797,-0.016777,0.321307,14984.0,-336.0,4994.0,0.0,-10.0,23.0
2864.0,2815.0,2896.0,3135.0,3039.0,0.812744,-0.017029,-0.582336,-0.008972,0.0,0.0,0.0,7457.0,-133.0,2483.0,-299.0,8.0,-148.0,44.0,0.0,-330.0,0.946887,-0.01723,0.321228,14808.0,-274.0,4980.0,19.0,10.0,22.0
2863.0,2803.0,2899.0,3139.0,3039.0,0.812744,-0.017029,-0.582275,-0.00885,0.0,0.0,1.0,7454.0,-115.0,2483.0,-302.0,27.0,-149.0,44.0,19.0,-334.0,0.946783,-0.017374,0.321297,14950.0,-124.0,5012.0,11.0,7.0,28.0
2864.0,2801.0,2899.0,3139.0,3031.0,0.812866,-0.017212,-0.582153,-0.008606,-1.0,0.0,1.0,7459.0,-131.0,2499.0,-296.0,16.0,-135.0,32.0,9.0,-323.0,0.946722,-0.017962,0.321627,14856.0,-364.0,5024.0,0.0,21.0,29.0
2870.0,2813.0,2903.0,3133.0,3029.0,0.812866,-0.017273,-0.582092,-0.008484,0.0,0.0,1.0,7428.0,-150.0,2505.0,-326.0,0.0,-130.0,17.0,-6.0,-350.0,0.946619,-0.018204,0.321694,14662.0,-410.0,5058.0,7.0,13.0,26.0
2865.0,2814.0,2903.0,3150.0,3045.0,0.812866,-0.017334,-0.582092,-0.008179,0.0,-1.0,0.0,7411.0,-167.0,2542.0,-343.0,-14.0,-93.0,-22.0,-19.0,-354.0,0.94661,-0.018659,0.321686,14778.0,-316.0,5150.0,13.0,-16.0,17.0
2867.0,2810.0,2900.0,3127.0,3027.0,0.812805,-0.017395,-0.582153,-0.008118,-1.0,-2.0,0.0,7410.0,-173.0,2549.0,-344.0,-18.0,-84.0,-31.0,-23.0,-352.0,0.946637,-0.018826,0.321513,14838.0,-406.0,5136.0,-1.0,-27.0,14.0
2866.0,2811.0,2896.0,3135.0,3045.0,0.812622,-0.017517,-0.582458,-0.007935,0.0,-2.0,-1.0,7446.0,-255.0,2544.0,-311.0,-97.0,-84.0,-23.0,-102.0,-319.0,0.946915,-0.019226,0.320853,15070.0,-802.0,5128.0,11.0,-26.0,-2.0
2871.0,2811.0,2901.0,3138.0,3039.0,0.812622,-0.017456,-0.58252,-0.007874,1.0,-1.0,-1.0,7461.0,-270.0,2546.0,-296.0,-112.0,-81.0,-22.0,-117.0,-304.0,0.947011,-0.019197,0.320783,14982.0,-542.0,5074.0,32.0,-12.0,-19.0
2864.0,2814.0,2903.0,3133.0,3039.0,0.812561,-0.01709,-0.58252,-0.007935,-1.0,-1.0,-1.0,7460.0,-161.0,2565.0,-297.0,-9.0,-62.0,-37.0,-13.0,-300.0,0.946937,-0.018529,0.320697,15004.0,40.0,5230.0,0.0,-8.0,-21.0
2864.0,2802.0,2891.0,3131.0,3031.0,0.812561,-0.01709,-0.58252,-0.008118,-2.0,-1.0,-1.0,7471.0,-123.0,2567.0,-286.0,27.0,-60.0,-34.0,22.0,-290.0,0.946943,-0.018316,0.3207,15008.0,-88.0,5112.0,-29.0,-3.0,-12.0
2865.0,2803.0,2891.0,3135.0,3039.0,0.812561,-0.017273,-0.582581,-0.008301,-1.0,-1.0,-1.0,7449.0,-148.0,2559.0,-309.0,2.0,-67.0,-35.0,-2.0,-314.0,0.947051,-0.018399,0.320626,14794.0,-374.0,5140.0,-5.0,-9.0,-3.0
2865.0,2815.0,2899.0,3135.0,3039.0,0.8125,-0.017212,-0.582581,-0.008301,0.0,-1.0,-1.0,7436.0,-142.0,2563.0,-321.0,7.0,-62.0,-44.0,2.0,-323.0,0.946979,-0.018298,0.320529,14798.0,-216.0,5152.0,17.0,-18.0,-5.0
2866.0,2815.0,2901.0,3143.0,3043.0,0.812378,-0.016907,-0.582825,-0.008179,1.0,-2.0,-1.0,7442.0,-111.0,2576.0,-317.0,35.0,-45.0,-57.0,31.0,-315.0,0.947224,-0.017936,0.320054,14976.0,-114.0,5234.0,29.0,-35.0,-7.0
2864.0,2810.0,2898.0,3135.0,3038.0,0.812317,-0.016663,-0.582947,-0.008179,1.0,-2.0,-1.0,7470.0,-108.0,2585.0,-290.0,35.0,-34.0,-59.0,31.0,-286.0,0.947348,-0.017535,0.319821,15136.0,-216.0,5222.0,32.0,-32.0,-13.0
2863.0,2803.0,2895.0,3131.0,3035.0,0.812195,-0.016235,-0.583069,-0.008057,1.0,-1.0,-1.0,7499.0,-106.0,2579.0,-262.0,33.0,-38.0,-46.0,30.0,-260.0,0.947393,-0.016977,0.319493,14996.0,-184.0,5124.0,45.0,-12.0,-18.0
2874.0,2815.0,2899.0,3143.0,3039.0,0.812195,-0.01593,-0.58313,-0.007996,2.0,-1.0,-2.0,7480.0,-124.0,2564.0,-281.0,11.0,-52.0,-40.0,7.0,-283.0,0.947485,-0.016552,0.31943,14838.0,-338.0,5028.0,59.0,-17.0,-23.0
2865.0,2818.0,2903.0,3135.0,3039.0,0.812012,-0.015137,-0.583374,-0.007751,2.0,-2.0,-1.0,7454.0,-61.0,2559.0,-309.0,66.0,-53.0,-46.0,62.0,-310.0,0.947648,-0.015538,0.318869,14866.0,58.0,5038.0,64.0,-35.0,-15.0
2869.0,2807.0,2896.0,3135.0,3025.0,0.811951,-0.014771,-0.583496,-0.00769,2.0,-2.0,-1.0,7465.0,-52.0,2561.0,-299.0,70.0,-49.0,-46.0,66.0,-300.0,0.947767,-0.015011,0.318637,14966.0,-76.0,5152.0,57.0,-36.0,-9.0
2865.0,2805.0,2893.0,3133.0,3035.0,0.811707,-0.014282,-0.583862,-0.007324,1.0,-3.0,0.0,7422.0,-23.0,2534.0,-344.0,96.0,-69.0,-41.0,92.0,-349.0,0.948059,-0.014633,0.317822,14796.0,108.0,5000.0,45.0,-56.0,14.0
2864.0,2815.0,2903.0,3139.0,3043.0,0.811523,-0.01416,-0.584106,-0.007202,1.0,-3.0,0.0,7435.0,-6.0,2519.0,-332.0,113.0,-79.0,-27.0,108.0,-341.0,0.948236,-0.014569,0.317241,14976.0,38.0,4958.0,25.0,-61.0,18.0
2865.0,2810.0,2903.0,3141.0,3043.0,0.811218,-0.014099,-0.584534,-0.007019,0.0,-2.0,0.0,7488.0,-41.0,2505.0,-282.0,79.0,-85.0,-6.0,74.0,-295.0,0.948567,-0.014669,0.316246,15078.0,-258.0,4960.0,12.0,-33.0,19.0
2865.0,2803.0,2895.0,3135.0,3035.0,0.811096,-0.014099,-0.584656,-0.006836,0.0,-1.0,0.0,7491.0,-65.0,2487.0,-280.0,56.0,-100.0,7.0,51.0,-298.0,0.948617,-0.014878,0.315903,15004.0,-232.0,4868.0,19.0,-22.0,14.0
2863.0,2806.0,2883.0,3131.0,3037.0,0.811035,-0.013977,-0.584839,-0.006592,0.0,-1.0,0.0,7461.0,-100.0,2467.0,-311.0,22.0,-118.0,14.0,16.0,-332.0,0.948834,-0.014961,0.31559,14758.0,-346.0,4866.0,21.0,-17.0,16.0
2869.0,2815.0,2898.0,3139.0,3037.0,0.810913,-0.013977,-0.5849,-0.006409,1.0,-2.0,0.0,7445.0,-113.0,2469.0,-327.0,11.0,-114.0,5.0,5.0,-346.0,0.948785,-0.015171,0.315318,14824.0,-288.0,4970.0,27.0,-28.0,19.0
2864.0,2815.0,2897.0,3135.0,3039.0,0.81073,-0.013916,-0.585205,-0.006165,0.0,-2.0,0.0,7445.0,-110.0,2466.0,-329.0,15.0,-111.0,2.0,9.0,-347.0,0.949058,-0.015349,0.314662,14866.0,-200.0,4912.0,13.0,-34.0,18.0
2863.0,2805.0,2895.0,3133.0,3035.0,0.810608,-0.013916,-0.585388,-0.006104,-1.0,-2.0,0.0,7441.0,-116.0,2458.0,-334.0,10.0,-116.0,5.0,4.0,-353.0,0.94921,-0.015415,0.314249,14904.0,-300.0,4868.0,-2.0,-44.0,21.0
2863.0,2809.0,2895.0,3133.0,3039.0,0.810364,-0.014099,-0.585693,-0.00592,0.0,-1.0,0.0,7495.0,-182.0,2458.0,-282.0,-51.0,-110.0,14.0,-56.0,-301.0,0.949416,-0.015916,0.313489,15052.0,-546.0,4902.0,8.0,-21.0,5.0
2864.0,2810.0,2897.0,3139.0,3039.0,0.810303,-0.014038,-0.585754,-0.005798,0.0,-1.0,-1.0,7490.0,-203.0,2445.0,-287.0,-72.0,-121.0,22.0,-77.0,-309.0,0.94944,-0.015957,0.313319,14962.0,-542.0,4800.0,20.0,-12.0,-4.0
2865.0,2813.0,2901.0,3135.0,3039.0,0.810303,-0.013855,-0.585876,-0.005737,1.0,0.0,-1.0,7496.0,-194.0,2444.0,-283.0,-65.0,-121.0,24.0,-70.0,-305.0,0.949634,-0.015731,0.31318,14920.0,-208.0,4890.0,26.0,8.0,-19.0
2865.0,2810.0,2896.0,3137.0,3035.0,0.810303,-0.013672,-0.585815,-0.005798,0.0,0.0,-2.0,7483.0,-165.0,2449.0,-295.0,-39.0,-117.0,17.0,-44.0,-316.0,0.949534,-0.015363,0.313258,14866.0,-204.0,4946.0,6.0,10.0,-26.0
2863.0,2807.0,2897.0,3135.0,3031.0,0.810364,-0.013672,-0.585754,-0.00592,-1.0,-1.0,-1.0,7432.0,-176.0,2469.0,-346.0,-51.0,-98.0,-16.0,-56.0,-358.0,0.94951,-0.015223,0.313429,14718.0,-354.0,5010.0,-1.0,-7.0,-9.0
2863.0,2807.0,2899.0,3138.0,3039.0,0.810303,-0.013672,-0.585815,-0.00592,0.0,-2.0,-1.0,7434.0,-169.0,2488.0,-344.0,-44.0,-78.0,-34.0,-48.0,-350.0,0.949538,-0.01522,0.313259,14944.0,-266.0,5082.0,3.0,-25.0,-9.0
2865.0,2811.0,2899.0,3135.0,3039.0,0.810181,-0.01355,-0.585999,-0.006042,-1.0,-2.0,-1.0,7459.0,-138.0,2527.0,-320.0,-16.0,-35.0,-67.0,-18.0,-314.0,0.949693,-0.014874,0.312851,14976.0,-190.0,5122.0,-5.0,-30.0,-10.0
2863.0,2810.0,2896.0,3135.0,3037.0,0.81012,-0.01355,-0.58606,-0.006104,-1.0,-2.0,-1.0,7485.0,-137.0,2542.0,-295.0,-15.0,-19.0,-74.0,-17.0,-285.0,0.949722,-0.0148,0.312682,15130.0,-280.0,5146.0,-11.0,-31.0,-11.0
2865.0,2815.0,2896.0,3139.0,3034.0,0.809998,-0.01355,-0.586243,-0.006287,-1.0,-2.0,-1.0,7507.0,-136.0,2537.0,-274.0,-16.0,-21.0,-66.0,-18.0,-266.0,0.949881,-0.01458,0.312272,15012.0,-252.0,5052.0,-8.0,-24.0,-18.0
2865.0,2813.0,2899.0,3139.0,3043.0,0.809937,-0.01355,-0.586365,-0.006409,-1.0,-2.0,-2.0,7497.0,-132.0,2538.0,-285.0,-13.0,-18.0,-72.0,-15.0,-276.0,0.95001,-0.014433,0.312031,14940.0,-250.0,5092.0,-11.0,-30.0,-23.0
2869.0,2813.0,2898.0,3135.0,3037.0,0.809692,-0.013428,-0.586609,-0.006653,0.0,-2.0,-2.0,7463.0,-123.0,2505.0,-320.0,-8.0,-45.0,-57.0,-10.0,-317.0,0.950124,-0.013939,0.311356,14800.0,-114.0,4850.0,1.0,-40.0,-25.0
2851.0,2805.0,2897.0,3135.0,3035.0,0.80957,-0.013367,-0.586792,-0.006775,-1.0,-3.0,-2.0,7460.0,-101.0,2481.0,-324.0,11.0,-66.0,-37.0,7.0,-328.0,0.95028,-0.013692,0.310946,14962.0,-96.0,4834.0,-3.0,-48.0,-33.0
2863.0,2807.0,2897.0,3134.0,3031.0,0.809265,-0.013123,-0.587219,-0.00708,-1.0,-2.0,-2.0,7476.0,-83.0,2445.0,-311.0,22.0,-94.0,-6.0,17.0,-325.0,0.950618,-0.012924,0.309962,14976.0,-116.0,4818.0,-2.0,-40.0,-30.0
2864.0,2813.0,2899.0,3142.0,3039.0,0.809143,-0.013062,-0.587402,-0.007263,-1.0,-2.0,-2.0,7474.0,-77.0,2423.0,-314.0,26.0,-112.0,9.0,21.0,-333.0,0.950775,-0.012604,0.309553,14920.0,-138.0,4722.0,0.0,-35.0,-29.0
2865.0,2814.0,2897.0,3135.0,3039.0,0.80896,-0.012817,-0.587708,-0.007507,-1.0,-2.0,-2.0,7479.0,-46.0,2424.0,-312.0,51.0,-106.0,5.0,46.0,-330.0,0.951056,-0.011913,0.308908,15006.0,34.0,4924.0,0.0,-31.0,-26.0
2865.0,2807.0,2896.0,3131.0,3039.0,0.808838,-0.012695,-0.58783,-0.007629,-1.0,-2.0,-2.0,7479.0,-39.0,2423.0,-312.0,55.0,-104.0,4.0,51.0,-329.0,0.951111,-0.011567,0.308572,14976.0,-56.0,4862.0,-6.0,-27.0,-23.0
2864.0,2811.0,2898.0,3135.0,3039.0,0.808716,-0.012573,-0.588013,-0.007812,0.0,-1.0,-1.0,7491.0,-42.0,2420.0,-301.0,49.0,-104.0,7.0,45.0,-318.0,0.951267,-0.011149,0.308165,14990.0,-44.0,4834.0,3.0,-17.0,-19.0
2867.0,2815.0,2903.0,3139.0,3039.0,0.808655,-0.012512,-0.588074,-0.007935,-1.0,-1.0,-1.0,7486.0,-27.0,2412.0,-307.0,62.0,-111.0,12.0,58.0,-326.0,0.951296,-0.010904,0.307998,14968.0,68.0,4776.0,0.0,-20.0,-12.0
2865.0,2815.0,2899.0,3139.0,3039.0,0.808472,-0.012451,-0.588318,-0.008057,-1.0,-1.0,-1.0,7507.0,-41.0,2381.0,-287.0,46.0,-137.0,43.0,41.0,-315.0,0.951477,-0.010653,0.307418,15028.0,-202.0,4654.0,-8.0,-14.0,-4.0
2865.0,2811.0,2896.0,3135.0,3039.0,0.808411,-0.012451,-0.58844,-0.008118,0.0,-1.0,-1.0,7498.0,-51.0,2367.0,-297.0,35.0,-149.0,51.0,30.0,-328.0,0.951604,-0.010578,0.307177,14936.0,-138.0,4702.0,1.0,-13.0,-10.0
2865.0,2811.0,2896.0,3138.0,3035.0,0.80835,-0.01239,-0.588562,-0.008179,0.0,-1.0,-1.0,7471.0,-59.0,2377.0,-325.0,26.0,-137.0,31.0,21.0,-351.0,0.95173,-0.010404,0.306937,14846.0,-122.0,4814.0,4.0,-14.0,-5.0
2867.0,2813.0,2899.0,3137.0,3039.0,0.808289,-0.012329,-0.588623,-0.008179,0.0,-1.0,-1.0,7462.0,-57.0,2391.0,-334.0,27.0,-122.0,14.0,22.0,-355.0,0.951756,-0.010303,0.306768,14900.0,-78.0,4870.0,10.0,-19.0,-5.0
2871.0,2815.0,2901.0,3143.0,3039.0,0.808167,-0.012146,-0.588745,-0.008118,0.0,-2.0,-1.0,7445.0,-55.0,2417.0,-352.0,27.0,-93.0,-18.0,23.0,-363.0,0.951805,-0.010073,0.306431,14840.0,-124.0,4912.0,11.0,-23.0,-3.0
2865.0,2807.0,2896.0,3135.0,3031.0,0.808105,-0.012085,-0.588867,-0.008118,0.0,-2.0,-1.0,7461.0,-62.0,2426.0,-337.0,19.0,-82.0,-24.0,16.0,-346.0,0.95193,-0.009971,0.30619,15056.0,-186.0,4894.0,3.0,-36.0,-4.0
2864.0,2807.0,2901.0,3133.0,3037.0,0.807922,-0.012024,-0.589111,-0.008179,0.0,-1.0,-1.0,7555.0,-78.0,2441.0,-244.0,2.0,-62.0,-15.0,0.0,-251.0,0.952109,-0.009792,0.305609,15394.0,-164.0,4932.0,6.0,-11.0,-20.0
2866.0,2815.0,2901.0,3138.0,3039.0,0.807922,-0.011902,-0.589111,-0.008301,0.0,0.0,-2.0,7552.0,-85.0,2437.0,-247.0,-7.0,-66.0,-12.0,-9.0,-255.0,0.95211,-0.009451,0.305614,14982.0,-224.0,4820.0,9.0,5.0,-26.0
2867.0,2811.0,2899.0,3142.0,3039.0,0.807861,-0.011658,-0.589172,-0.008362,0.0,-2.0,-1.0,7501.0,-63.0,2445.0,-298.0,10.0,-57.0,-36.0,8.0,-301.0,0.952134,-0.008983,0.30545,14896.0,6.0,5010.0,16.0,-23.0,-21.0
2864.0,2811.0,2898.0,3135.0,3039.0,0.8078,-0.011536,-0.589294,-0.008484,0.0,-2.0,-1.0,7485.0,-43.0,2458.0,-315.0,27.0,-42.0,-55.0,25.0,-313.0,0.95226,-0.008638,0.305212,14920.0,4.0,5032.0,7.0,-31.0,-16.0
2865.0,2812.0,2898.0,3134.0,3039.0,0.807617,-0.011475,-0.589478,-0.008606,-1.0,-2.0,0.0,7465.0,-16.0,2466.0,-336.0,52.0,-30.0,-72.0,51.0,-329.0,0.952342,-0.008388,0.304704,14844.0,2.0,4904.0,-16.0,-41.0,1.0
2867.0,2815.0,2899.0,3143.0,3038.0,0.807495,-0.011536,-0.589661,-0.008667,-1.0,-3.0,0.0,7454.0,-27.0,2462.0,-348.0,41.0,-30.0,-76.0,40.0,-340.0,0.952496,-0.008409,0.304291,14858.0,-126.0,4854.0,-14.0,-49.0,2.0
2867.0,2815.0,2902.0,3135.0,3039.0,0.807129,-0.011536,-0.590149,-0.008667,0.0,-3.0,-1.0,7498.0,-62.0,2420.0,-307.0,6.0,-63.0,-32.0,4.0,-311.0,0.952852,-0.008392,0.303123,15200.0,-250.0,4698.0,11.0,-49.0,-10.0
2867.0,2809.0,2897.0,3135.0,3031.0,0.807007,-0.011414,-0.590332,-0.008606,0.0,-2.0,-1.0,7526.0,-48.0,2417.0,-280.0,19.0,-62.0,-25.0,17.0,-285.0,0.953,-0.008261,0.302712,15230.0,78.0,4860.0,22.0,-34.0,-15.0
2863.0,2807.0,2898.0,3135.0,3039.0,0.806885,-0.01123,-0.590515,-0.008789,-1.0,-1.0,-1.0,7529.0,0.0,2400.0,-279.0,63.0,-76.0,-10.0,61.0,-289.0,0.953153,-0.007743,0.302306,14974.0,100.0,4790.0,-10.0,-17.0,-14.0
2867.0,2814.0,2899.0,3143.0,3039.0,0.806824,-0.01123,-0.590637,-0.008972,-1.0,-2.0,-1.0,7524.0,0.0,2393.0,-285.0,61.0,-81.0,-7.0,58.0,-296.0,0.953282,-0.007523,0.302067,15002.0,-50.0,4726.0,-21.0,-25.0,-13.0
2867.0,2815.0,2901.0,3141.0,3043.0,0.80658,-0.011353,-0.590881,-0.009155,-1.0,-2.0,-1.0,7503.0,-23.0,2363.0,-307.0,38.0,-105.0,8.0,35.0,-324.0,0.953394,-0.007494,0.301385,14962.0,-124.0,4578.0,-19.0,-35.0,-6.0
2864.0,2809.0,2896.0,3135.0,3039.0,0.806458,-0.011414,-0.591064,-0.009216,-1.0,-2.0,-1.0,7513.0,-40.0,2349.0,-298.0,21.0,-116.0,21.0,17.0,-319.0,0.953547,-0.007514,0.300971,15090.0,-174.0,4604.0,-15.0,-29.0,-8.0
2866.0,2814.0,2897.0,3133.0,3037.0,0.806335,-0.011414,-0.591248,-0.009277,-1.0,-1.0,-1.0,7492.0,-57.0,2320.0,-320.0,3.0,-142.0,39.0,0.0,-347.0,0.9537,-0.007436,0.300559,14842.0,-188.0,4512.0,0.0,-15.0,-4.0
2867.0,2815.0,2897.0,3143.0,3039.0,0.806274,-0.011414,-0.59137,-0.009277,0.0,-1.0,-1.0,7470.0,-68.0,2306.0,-343.0,-7.0,-154.0,43.0,-11.0,-373.0,0.953824,-0.007432,0.300316,14816.0,-186.0,4548.0,13.0,-21.0,-3.0
2865.0,2815.0,2902.0,3135.0,3043.0,0.806091,-0.01123,-0.591614,-0.009216,0.0,-1.0,-1.0,7496.0,-36.0,2315.0,-319.0,22.0,-140.0,38.0,18.0,-346.0,0.953996,-0.007201,0.299735,15238.0,98.0,4700.0,3.0,-21.0,-7.0
2865.0,2807.0,2897.0,3135.0,3035.0,0.80603,-0.01123,-0.591675,-0.009338,-1.0,-1.0,-1.0,7518.0,-11.0,2322.0,-297.0,46.0,-132.0,38.0,42.0,-323.0,0.954025,-0.007054,0.299567,15112.0,104.0,4698.0,-15.0,-2.0,-6.0
2867.0,2814.0,2901.0,3135.0,3038.0,0.80603,-0.011414,-0.591675,-0.009521,-2.0,0.0,0.0,7515.0,-18.0,2339.0,-300.0,40.0,-115.0,20.0,37.0,-320.0,0.954033,-0.007132,0.299566,15068.0,-160.0,4800.0,-27.0,1.0,1.0
2867.0,2815.0,2899.0,3139.0,3039.0,0.806091,-0.011475,-0.591614,-0.009583,-1.0,0.0,0.0,7519.0,-35.0,2346.0,-296.0,23.0,-109.0,15.0,20.0,-315.0,0.954009,-0.007161,0.299736,15042.0,-144.0,4710.0,-9.0,4.0,1.0
2870.0,2815.0,2903.0,3119.0,3043.0,0.806091,-0.011414,-0.591614,-0.009583,0.0,-1.0,-1.0,7521.0,-16.0,2369.0,-294.0,41.0,-86.0,-4.0,38.0,-306.0,0.954008,-0.007062,0.299738,15098.0,70.0,4818.0,4.0,-2.0,-3.0
2864.0,2811.0,2899.0,3135.0,3039.0,0.806091,-0.011353,-0.591614,-0.009644,-1.0,-1.0,-1.0,7526.0,-4.0,2390.0,-289.0,52.0,-65.0,-23.0,50.0,-295.0,0.954008,-0.006892,0.29974,15054.0,8.0,4904.0,-4.0,-1.0,-3.0
2867.0,2815.0,2896.0,3131.0,3039.0,0.806091,-0.011353,-0.591614,-0.009705,0.0,-1.0,0.0,7499.0,-13.0,2396.0,-316.0,42.0,-59.0,-37.0,40.0,-319.0,0.95401,-0.00682,0.299742,14968.0,-70.0,4892.0,3.0,-18.0,0.0
2869.0,2815.0,2903.0,3140.0,3043.0,0.80603,-0.011292,-0.591736,-0.009644,0.0,-2.0,0.0,7503.0,-6.0,2395.0,-313.0,49.0,-58.0,-37.0,47.0,-316.0,0.954132,-0.00679,0.299499,15034.0,66.0,4816.0,8.0,-24.0,2.0
2865.0,2815.0,2899.0,3143.0,3035.0,0.805908,-0.011169,-0.591797,-0.009644,0.0,-1.0,0.0,7501.0,-3.0,2395.0,-314.0,50.0,-56.0,-39.0,49.0,-316.0,0.954083,-0.006589,0.299233,14898.0,-32.0,4720.0,6.0,-12.0,1.0
2866.0,2811.0,2899.0,3135.0,3035.0,0.805908,-0.011169,-0.591858,-0.009644,0.0,-1.0,0.0,7491.0,-2.0,2377.0,-325.0,51.0,-73.0,-26.0,49.0,-332.0,0.954182,-0.006588,0.29916,14968.0,6.0,4616.0,7.0,-22.0,0.0
2865.0,2813.0,2896.0,3135.0,3038.0,0.805725,-0.011047,-0.592041,-0.009644,0.0,-1.0,-1.0,7516.0,-5.0,2358.0,-301.0,47.0,-88.0,-4.0,45.0,-313.0,0.954258,-0.006384,0.298651,15026.0,56.0,4646.0,10.0,-11.0,-1.0
2866.0,2814.0,2899.0,3143.0,3038.0,0.805725,-0.010986,-0.592163,-0.009644,-1.0,-1.0,0.0,7495.0,-3.0,2338.0,-323.0,48.0,-107.0,7.0,45.0,-340.0,0.954453,-0.006283,0.298508,14862.0,-46.0,4542.0,-1.0,-17.0,6.0
2867.0,2811.0,2901.0,3135.0,3039.0,0.805542,-0.011047,-0.592407,-0.00946,0.0,-1.0,0.0,7500.0,-44.0,2313.0,-320.0,9.0,-127.0,26.0,6.0,-343.0,0.954627,-0.006589,0.297919,15060.0,-132.0,4632.0,15.0,-20.0,13.0
2865.0,2807.0,2896.0,3135.0,3039.0,0.805481,-0.011047,-0.592468,-0.009399,0.0,-1.0,0.0,7501.0,-27.0,2309.0,-319.0,27.0,-130.0,29.0,23.0,-343.0,0.954651,-0.006659,0.297747,15006.0,74.0,4614.0,16.0,-11.0,7.0
2865.0,2815.0,2897.0,3135.0,3039.0,0.80542,-0.011047,-0.592529,-0.009338,-1.0,-1.0,0.0,7498.0,-13.0,2316.0,-322.0,42.0,-121.0,20.0,39.0,-343.0,0.954676,-0.006729,0.297575,14950.0,-50.0,4654.0,-8.0,-4.0,13.0
2869.0,2815.0,2897.0,3139.0,3071.0,0.805359,-0.011108,-0.59259,-0.009338,-1.0,-1.0,0.0,7503.0,-29.0,2315.0,-317.0,26.0,-121.0,21.0,23.0,-338.0,0.954703,-0.006825,0.297403,15076.0,-174.0,4620.0,-8.0,-10.0,10.0
2869.0,2809.0,2907.0,3142.0,3045.0,0.805359,-0.011169,-0.592651,-0.009216,0.0,-1.0,0.0,7517.0,-54.0,2319.0,-304.0,3.0,-116.0,20.0,0.0,-324.0,0.9548,-0.007067,0.297328,15042.0,-146.0,4614.0,6.0,0.0,12.0
2871.0,2807.0,2896.0,3131.0,3039.0,0.805359,-0.011169,-0.592651,-0.009094,0.0,0.0,0.0,7523.0,-60.0,2325.0,-298.0,0.0,-110.0,16.0,-2.0,-317.0,0.954797,-0.007211,0.297325,15094.0,-130.0,4700.0,10.0,2.0,8.0
2873.0,2815.0,2899.0,3139.0,3035.0,0.805359,-0.011108,-0.59259,-0.009033,0.0,0.0,0.0,7519.0,-60.0,2336.0,-301.0,-1.0,-100.0,5.0,-3.0,-317.0,0.954696,-0.007187,0.297398,14980.0,-118.0,4768.0,17.0,6.0,1.0
2869.0,2815.0,2903.0,3135.0,3038.0,0.805359,-0.010925,-0.59259,-0.008911,0.0,-1.0,0.0,7502.0,-37.0,2364.0,-318.0,20.0,-72.0,-25.0,18.0,-325.0,0.954691,-0.007036,0.2974,15046.0,46.0,4872.0,22.0,-14.0,1.0
2866.0,2814.0,2899.0,3134.0,3035.0,0.805359,-0.010803,-0.592651,-0.00885,0.0,-1.0,0.0,7514.0,-35.0,2373.0,-307.0,21.0,-62.0,-31.0,19.0,-311.0,0.954785,-0.006911,0.297329,15102.0,-80.0,4766.0,21.0,-15.0,1.0
2864.0,2811.0,2896.0,3135.0,3039.0,0.805237,-0.010559,-0.592773,-0.008667,1.0,-1.0,0.0,7544.0,-17.0,2396.0,-277.0,38.0,-36.0,-46.0,37.0,-275.0,0.954829,-0.00673,0.29699,15242.0,120.0,4916.0,31.0,-16.0,1.0
2867.0,2814.0,2901.0,3139.0,3045.0,0.805237,-0.010376,-0.592773,-0.008606,0.0,-1.0,-1.0,7545.0,-13.0,2389.0,-276.0,40.0,-43.0,-39.0,39.0,-276.0,0.954825,-0.006507,0.296992,15034.0,-102.0,4672.0,22.0,-8.0,-1.0
2865.0,2805.0,2899.0,3139.0,3039.0,0.805115,-0.010071,-0.592957,-0.008301,3.0,-2.0,-1.0,7495.0,-105.0,2372.0,-328.0,-52.0,-57.0,-44.0,-52.0,-329.0,0.954963,-0.006372,0.29658,14884.0,-300.0,4742.0,81.0,-33.0,-14.0
2866.0,2810.0,2899.0,3135.0,3035.0,0.804993,-0.009644,-0.59314,-0.008057,3.0,-2.0,-1.0,7496.0,-62.0,2379.0,-328.0,-13.0,-47.0,-52.0,-13.0,-327.0,0.955102,-0.005969,0.296171,15028.0,256.0,4820.0,91.0,-42.0,-16.0
2864.0,2813.0,2901.0,3135.0,3043.0,0.80481,-0.009033,-0.593384,-0.007996,0.0,-2.0,-1.0,7514.0,39.0,2379.0,-311.0,80.0,-42.0,-49.0,79.0,-309.0,0.955266,-0.005051,0.295596,15000.0,184.0,4680.0,11.0,-36.0,-4.0
2870.0,2815.0,2905.0,3135.0,3051.0,0.804688,-0.009033,-0.593567,-0.007996,-1.0,-2.0,0.0,7519.0,37.0,2365.0,-307.0,78.0,-53.0,-38.0,77.0,-309.0,0.955416,-0.005046,0.295183,15100.0,28.0,4670.0,-7.0,-41.0,6.0
2867.0,2813.0,2890.0,3147.0,3039.0,0.804504,-0.008972,-0.593811,-0.007996,0.0,-1.0,0.0,7555.0,-9.0,2335.0,-273.0,31.0,-78.0,-5.0,29.0,-284.0,0.955591,-0.004941,0.294599,15164.0,-100.0,4540.0,13.0,-15.0,0.0
2864.0,2803.0,2895.0,3135.0,3037.0,0.804443,-0.008911,-0.593872,-0.007935,0.0,-1.0,-1.0,7540.0,-19.0,2305.0,-288.0,21.0,-106.0,16.0,19.0,-306.0,0.955614,-0.004913,0.294429,14968.0,-94.0,4418.0,19.0,-9.0,-4.0
2865.0,2809.0,2893.0,3127.0,3027.0,0.459229,-0.001099,0.139404,-1.21228,31937.0,-28231.0,17685.0,16531.0,22887.0,25478.0,17558.0,25664.0,11870.0,7676.0,10176.0,8815.0,-0.125373,-0.339003,1.66108,15042.0,-80.0,4438.0,8.0,-14.0,1.0
2866.0,2811.0,2903.0,3147.0,3035.0,0.80426,-0.008789,-0.594116,-0.007812,0.0,-1.0,0.0,7518.0,-43.0,2253.0,-311.0,-3.0,-154.0,55.0,-5.0,-342.0,0.955785,-0.004854,0.293844,15014.0,-228.0,4454.0,6.0,-8.0,0.0
2874.0,2807.0,2903.0,3141.0,3035.0,0.804138,-0.008667,-0.594299,-0.00769,0.0,-1.0,-1.0,7525.0,-61.0,2247.0,-305.0,-21.0,-156.0,59.0,-23.0,-337.0,0.955931,-0.004798,0.293431,15110.0,-78.0,4506.0,18.0,-6.0,-8.0
2869.0,2815.0,2902.0,3131.0,3043.0,0.804138,-0.008606,-0.594299,-0.00769,0.0,-1.0,-1.0,7519.0,-46.0,2255.0,-311.0,-7.0,-148.0,50.0,-9.0,-340.0,0.95593,-0.0047,0.293432,15004.0,18.0,4538.0,7.0,-3.0,-5.0
2847.0,2815.0,2907.0,3143.0,3031.0,0.804077,-0.008667,-0.594421,-0.007751,-1.0,-1.0,0.0,7494.0,-29.0,2263.0,-338.0,9.0,-138.0,32.0,6.0,-363.0,0.956056,-0.004723,0.293188,14996.0,-48.0,4570.0,-12.0,-15.0,2.0
2869.0,2819.0,2901.0,3139.0,3050.0,0.804016,-0.008728,-0.594482,-0.007751,-1.0,-1.0,0.0,7512.0,-26.0,2273.0,-320.0,13.0,-127.0,27.0,10.0,-343.0,0.956082,-0.004819,0.293016,15146.0,-12.0,4628.0,-9.0,-14.0,0.0
2867.0,2806.0,2901.0,3139.0,3031.0,0.804016,-0.008728,-0.594482,-0.007874,-1.0,0.0,0.0,7532.0,-3.0,2306.0,-300.0,35.0,-94.0,2.0,33.0,-314.0,0.956084,-0.004674,0.293018,15036.0,-26.0,4756.0,-16.0,3.0,0.0
2864.0,2815.0,2903.0,3139.0,3043.0,0.804016,-0.008789,-0.594421,-0.007935,-1.0,0.0,0.0,7531.0,-23.0,2314.0,-300.0,15.0,-87.0,-4.0,13.0,-312.0,0.955988,-0.0047,0.293091,15070.0,-182.0,4676.0,-7.0,1.0,2.0
2871.0,2815.0,2898.0,3135.0,3045.0,0.804077,-0.008728,-0.594421,-0.007874,0.0,-1.0,-1.0,7523.0,-22.0,2338.0,-309.0,16.0,-63.0,-30.0,15.0,-313.0,0.956059,-0.004676,0.293189,15048.0,58.0,4796.0,9.0,-4.0,-3.0
2851.0,2807.0,2899.0,3139.0,3046.0,0.804077,-0.008667,-0.594421,-0.007874,0.0,-1.0,-1.0,7521.0,-15.0,2341.0,-311.0,22.0,-60.0,-33.0,21.0,-315.0,0.956058,-0.004577,0.29319,15010.0,-18.0,4678.0,3.0,-8.0,-2.0
2867.0,2807.0,2897.0,3139.0,3035.0,0.803955,-0.008667,-0.594604,-0.007812,0.0,-2.0,0.0,7497.0,-8.0,2343.0,-336.0,30.0,-55.0,-45.0,29.0,-337.0,0.956206,-0.004645,0.292775,14976.0,-10.0,4736.0,1.0,-35.0,5.0
2864.0,2805.0,2895.0,3135.0,3039.0,0.803833,-0.008667,-0.594727,-0.007812,0.0,-2.0,0.0,7507.0,-19.0,2356.0,-326.0,19.0,-39.0,-57.0,18.0,-323.0,0.956257,-0.004641,0.292434,15076.0,-100.0,4796.0,1.0,-42.0,6.0
2867.0,2807.0,2897.0,3135.0,3039.0,0.803589,-0.008667,-0.595032,-0.00769,0.0,-2.0,0.0,7534.0,-25.0,2343.0,-301.0,14.0,-46.0,-43.0,13.0,-301.0,0.956455,-0.004777,0.291676,15160.0,-30.0,4676.0,14.0,-38.0,6.0
2864.0,2811.0,2896.0,3135.0,3038.0,0.803528,-0.008606,-0.595154,-0.007629,0.0,-2.0,0.0,7537.0,-25.0,2319.0,-299.0,13.0,-68.0,-21.0,12.0,-305.0,0.956577,-0.004749,0.291433,15080.0,-44.0,4494.0,15.0,-30.0,4.0
2867.0,2811.0,2896.0,3139.0,3029.0,0.803345,-0.008484,-0.595459,-0.007568,-1.0,-2.0,0.0,7538.0,6.0,2297.0,-300.0,43.0,-85.0,-4.0,41.0,-311.0,0.956846,-0.004618,0.290777,15020.0,140.0,4536.0,0.0,-23.0,0.0
2867.0,2813.0,2907.0,3123.0,3047.0,0.803223,-0.008484,-0.59552,-0.00769,-1.0,-2.0,-1.0,7536.0,8.0,2291.0,-302.0,44.0,-88.0,-2.0,42.0,-314.0,0.956801,-0.004469,0.29051,15076.0,-32.0,4552.0,-14.0,-25.0,-6.0
2867.0,2815.0,2899.0,3135.0,3039.0,0.803101,-0.008545,-0.595764,-0.00769,0.0,-2.0,-1.0,7513.0,-39.0,2277.0,-327.0,-1.0,-98.0,-1.0,-2.0,-341.0,0.957049,-0.004561,0.290022,14906.0,-176.0,4502.0,10.0,-24.0,-2.0
2861.0,2807.0,2895.0,3131.0,3015.0,0.802979,-0.008484,-0.595886,-0.007629,0.0,-2.0,0.0,7511.0,-26.0,2280.0,-329.0,11.0,-93.0,-6.0,9.0,-341.0,0.957097,-0.004532,0.28968,15060.0,40.0,4590.0,19.0,-37.0,0.0
2865.0,2807.0,2895.0,3139.0,3025.0,0.802795,-0.00824,-0.59613,-0.007568,0.0,-1.0,-1.0,7557.0,7.0,2278.0,-284.0,41.0,-90.0,4.0,39.0,-298.0,0.957266,-0.004206,0.289098,15282.0,138.0,4556.0,17.0,-16.0,-2.0
2865.0,2811.0,2903.0,3142.0,3037.0,0.802734,-0.008179,-0.596191,-0.007568,0.0,-1.0,-1.0,7557.0,25.0,2271.0,-285.0,58.0,-95.0,9.0,56.0,-300.0,0.95729,-0.004106,0.288929,15108.0,150.0,4534.0,11.0,-6.0,-4.0
2867.0,2811.0,2903.0,3135.0,3047.0,0.802734,-0.008057,-0.596252,-0.007629,0.0,-1.0,-1.0,7548.0,29.0,2272.0,-294.0,60.0,-94.0,6.0,58.0,-308.0,0.957388,-0.003837,0.288859,14942.0,30.0,4490.0,4.0,-4.0,-1.0
2871.0,2811.0,2899.0,3139.0,3039.0,0.802673,-0.007996,-0.596313,-0.007568,0.0,-2.0,0.0,7512.0,27.0,2279.0,-331.0,58.0,-85.0,-12.0,56.0,-341.0,0.957411,-0.003809,0.288688,14836.0,48.0,4630.0,9.0,-24.0,9.0
