flex_1,flex_2,flex_3,flex_4,flex_5,Qw,Qx,Qy,Qz,GYRx,GYRy,GYRz,ACCx,ACCy,ACCz,ACCx_real,ACCy_real,ACCz_real,ACCx_world,ACCy_world,ACCz_world,GRAx,GRAy,GRAz,ACCx_raw,ACCy_raw,ACCz_raw,GYRx_raw,GYRy_raw,GYRz_raw
2875.0,2765.0,2831.0,3135.0,3035.0,1.0,0.0,0.0,0.0,0.0,0.0,0.0,0.0,0.0,0.0,0.0,0.0,0.0,0.0,0.0,0.0,0.0,0.0,0.0,0.0,0.0,0.0,0.0,0.0,0.0
2871.0,2771.0,2847.0,3121.0,3047.0,0.87146,0.043762,-0.488464,0.003662,0.0,-1.0,0.0,7660.0,648.0,1222.0,683.0,52.0,-3029.0,2932.0,268.0,-986.0,0.851675,0.072696,0.518943,15160.0,1340.0,2572.0,11.0,-1.0,4.0
2885.0,2777.0,2851.0,3135.0,3039.0,0.870056,0.043945,-0.491028,0.003784,0.0,-1.0,0.0,7733.0,661.0,1309.0,730.0,65.0,-2901.0,2852.0,270.0,-862.0,0.854776,0.072754,0.513972,15780.0,1404.0,2884.0,3.0,-16.0,14.0
2883.0,2775.0,2835.0,3151.0,3045.0,0.869324,0.044067,-0.492188,0.003845,-1.0,-1.0,0.0,7777.0,675.0,1340.0,763.0,78.0,-2850.0,2827.0,278.0,-799.0,0.856079,0.072833,0.511548,15816.0,1430.0,2836.0,-2.0,0.0,13.0
2883.0,2775.0,2826.0,3135.0,3055.0,0.868164,0.044189,-0.494324,0.003906,-1.0,1.0,0.0,7782.0,676.0,1348.0,747.0,79.0,-2808.0,2787.0,277.0,-777.0,0.858653,0.072865,0.507415,15464.0,1332.0,2642.0,-2.0,28.0,7.0
2879.0,2751.0,2833.0,3134.0,3027.0,0.867554,0.044312,-0.495361,0.003906,-1.0,1.0,0.0,7747.0,669.0,1317.0,703.0,70.0,-2822.0,2778.0,271.0,-816.0,0.859851,0.073015,0.505318,15214.0,1302.0,2410.0,-1.0,23.0,10.0
2895.0,2771.0,2815.0,3135.0,3039.0,0.866211,0.044434,-0.497681,0.004028,0.0,-1.0,0.0,7672.0,632.0,1261.0,605.0,34.0,-2840.0,2751.0,241.0,-897.0,0.862551,0.072968,0.500677,15294.0,1100.0,2446.0,13.0,-17.0,5.0
2893.0,2751.0,2837.0,3131.0,3056.0,0.865479,0.044617,-0.498901,0.00415,1.0,-1.0,0.0,7694.0,630.0,1262.0,616.0,31.0,-2819.0,2741.0,237.0,-869.0,0.863947,0.073088,0.498177,15552.0,1326.0,2542.0,33.0,-19.0,6.0
2883.0,2780.0,2834.0,3134.0,3061.0,0.864075,0.045105,-0.501282,0.004272,0.0,-1.0,0.0,7725.0,691.0,1272.0,625.0,87.0,-2769.0,2703.0,290.0,-817.0,0.866675,0.073665,0.493326,15536.0,1494.0,2574.0,7.0,-6.0,4.0
2883.0,2768.0,2851.0,3151.0,3035.0,0.863464,0.045166,-0.50238,0.004272,-1.0,0.0,0.0,7757.0,695.0,1283.0,646.0,91.0,-2740.0,2691.0,291.0,-778.0,0.867961,0.073706,0.491163,15742.0,1374.0,2604.0,-8.0,3.0,7.0
2887.0,2763.0,2823.0,3147.0,3046.0,0.862305,0.045288,-0.504395,0.004272,-1.0,1.0,0.0,7768.0,662.0,1278.0,638.0,57.0,-2712.0,2668.0,255.0,-761.0,0.87027,0.073794,0.487123,15432.0,1218.0,2518.0,-9.0,37.0,3.0
2879.0,2763.0,2805.0,3155.0,3043.0,0.861694,0.045288,-0.50531,0.004272,-1.0,1.0,0.0,7747.0,641.0,1275.0,609.0,36.0,-2699.0,2645.0,234.0,-776.0,0.871233,0.073731,0.485146,15406.0,1156.0,2596.0,-5.0,31.0,3.0
2864.0,2751.0,2829.0,3107.0,3056.0,0.860657,0.04541,-0.507141,0.004395,0.0,1.0,0.0,7740.0,637.0,1293.0,585.0,33.0,-2651.0,2595.0,229.0,-763.0,0.873348,0.073708,0.481495,15346.0,1312.0,2618.0,1.0,39.0,9.0
2879.0,2783.0,2849.0,3149.0,3071.0,0.860107,0.045471,-0.508057,0.004395,-1.0,1.0,0.0,7705.0,633.0,1291.0,542.0,28.0,-2638.0,2565.0,225.0,-789.0,0.874366,0.073755,0.479615,15230.0,1222.0,2596.0,-3.0,25.0,10.0
2865.0,2764.0,2835.0,3135.0,3045.0,0.858887,0.045593,-0.510071,0.004517,0.0,-1.0,0.0,7678.0,649.0,1331.0,496.0,45.0,-2563.0,2480.0,238.0,-780.0,0.876598,0.073711,0.475456,15424.0,1446.0,2868.0,2.0,-16.0,7.0
2877.0,2769.0,2834.0,3135.0,3051.0,0.858215,0.045715,-0.511169,0.004517,-1.0,-1.0,0.0,7712.0,658.0,1352.0,521.0,53.0,-2524.0,2459.0,242.0,-733.0,0.8778,0.07385,0.47317,15664.0,1354.0,2794.0,-6.0,-22.0,3.0
2865.0,2759.0,2831.0,3138.0,3023.0,0.856934,0.045715,-0.513306,0.004517,-1.0,-1.0,0.0,7753.0,645.0,1355.0,542.0,41.0,-2485.0,2439.0,225.0,-684.0,0.880151,0.073713,0.468783,15596.0,1244.0,2694.0,-5.0,-7.0,10.0
2879.0,2759.0,2827.0,3131.0,3039.0,0.856323,0.045776,-0.514343,0.004578,-1.0,0.0,0.0,7783.0,639.0,1343.0,563.0,35.0,-2479.0,2445.0,218.0,-658.0,0.881307,0.07369,0.466666,15774.0,1234.0,2586.0,-1.0,6.0,6.0
2867.0,2753.0,2833.0,3143.0,3031.0,0.855286,0.046021,-0.516113,0.004639,0.0,2.0,-1.0,7804.0,616.0,1290.0,568.0,10.0,-2503.0,2473.0,196.0,-656.0,0.883276,0.073933,0.463044,15676.0,1154.0,2416.0,15.0,49.0,-3.0
2874.0,2755.0,2829.0,3127.0,3047.0,0.854797,0.046204,-0.516785,0.0047,1.0,3.0,-1.0,7765.0,628.0,1254.0,523.0,20.0,-2526.0,2473.0,210.0,-701.0,0.883927,0.074132,0.461499,15140.0,1380.0,2268.0,23.0,75.0,-7.0
2887.0,2768.0,2832.0,3135.0,3039.0,0.853821,0.04657,-0.518372,0.004639,0.0,0.0,-1.0,7667.0,641.0,1223.0,411.0,28.0,-2530.0,2426.0,224.0,-793.0,0.885625,0.074715,0.458154,15296.0,1272.0,2544.0,6.0,22.0,-10.0
2879.0,2757.0,2830.0,3127.0,3043.0,0.853333,0.046692,-0.519287,0.004639,0.0,0.0,-1.0,7677.0,665.0,1256.0,413.0,51.0,-2482.0,2385.0,243.0,-762.0,0.886682,0.07487,0.456359,15408.0,1540.0,2704.0,6.0,19.0,-2.0
2882.0,2756.0,2833.0,3135.0,3043.0,0.852234,0.046875,-0.520996,0.004639,-1.0,0.0,0.0,7707.0,680.0,1337.0,428.0,65.0,-2371.0,2296.0,248.0,-688.0,0.888456,0.075063,0.45269,15516.0,1406.0,2938.0,-5.0,5.0,7.0
2869.0,2751.0,2831.0,3143.0,3051.0,0.851685,0.046936,-0.521912,0.004639,-1.0,0.0,0.0,7728.0,688.0,1375.0,441.0,72.0,-2317.0,2255.0,250.0,-646.0,0.889444,0.075107,0.450793,15610.0,1468.0,2982.0,-4.0,3.0,15.0
2891.0,2769.0,2829.0,3123.0,3055.0,0.850647,0.046997,-0.523621,0.004761,0.0,0.0,0.0,7766.0,671.0,1405.0,464.0,56.0,-2258.0,2216.0,228.0,-592.0,0.89128,0.07497,0.447236,15606.0,1236.0,2816.0,2.0,13.0,13.0
2882.0,2775.0,2847.0,3139.0,3029.0,0.850098,0.047058,-0.524475,0.004822,0.0,0.0,0.0,7759.0,668.0,1384.0,450.0,54.0,-2264.0,2217.0,227.0,-602.0,0.892164,0.07495,0.445401,15448.0,1358.0,2644.0,10.0,17.0,13.0
2881.0,2761.0,2847.0,3137.0,3031.0,0.848999,0.04718,-0.526184,0.004944,0.0,-1.0,0.0,7685.0,640.0,1326.0,361.0,26.0,-2292.0,2206.0,206.0,-687.0,0.893926,0.074909,0.441728,15246.0,1070.0,2500.0,1.0,-5.0,9.0
2879.0,2735.0,2831.0,3127.0,3055.0,0.84845,0.047302,-0.527161,0.005066,0.0,-1.0,0.0,7685.0,627.0,1320.0,353.0,13.0,-2282.0,2196.0,193.0,-686.0,0.895018,0.074926,0.439757,15372.0,1244.0,2590.0,18.0,-5.0,10.0
2869.0,2754.0,2823.0,3143.0,3027.0,0.84729,0.047546,-0.528992,0.005127,0.0,-1.0,0.0,7691.0,661.0,1313.0,343.0,45.0,-2257.0,2170.0,224.0,-672.0,0.896906,0.075147,0.435834,15448.0,1328.0,2576.0,1.0,-7.0,6.0
2889.0,2758.0,2826.0,3127.0,3043.0,0.84668,0.047607,-0.529907,0.005188,-1.0,-1.0,0.0,7718.0,643.0,1316.0,363.0,27.0,-2237.0,2163.0,204.0,-642.0,0.897817,0.075118,0.433825,15614.0,1170.0,2668.0,-2.0,-8.0,10.0
2886.0,2769.0,2829.0,3127.0,3071.0,0.845642,0.047668,-0.531616,0.005249,-1.0,0.0,0.0,7765.0,652.0,1339.0,395.0,37.0,-2185.0,2132.0,208.0,-581.0,0.899615,0.07504,0.43025,15594.0,1350.0,2748.0,-1.0,15.0,0.0
2874.0,2761.0,2832.0,3139.0,3051.0,0.845154,0.047791,-0.532349,0.005188,-1.0,1.0,-1.0,7769.0,648.0,1343.0,393.0,31.0,-2168.0,2118.0,201.0,-573.0,0.900329,0.075257,0.428633,15558.0,1244.0,2684.0,0.0,24.0,-6.0
2879.0,2767.0,2847.0,3111.0,3051.0,0.844238,0.048035,-0.533813,0.005188,0.0,0.0,-1.0,7745.0,656.0,1352.0,357.0,36.0,-2133.0,2072.0,205.0,-582.0,0.90183,0.075567,0.425501,15412.0,1348.0,2776.0,8.0,22.0,-4.0
2875.0,2769.0,2835.0,3147.0,3045.0,0.84375,0.048157,-0.534546,0.005249,0.0,0.0,-1.0,7734.0,656.0,1357.0,340.0,36.0,-2115.0,2050.0,205.0,-586.0,0.902552,0.075653,0.423883,15344.0,1320.0,2744.0,10.0,18.0,-2.0
2887.0,2762.0,2831.0,3143.0,3039.0,0.842651,0.048462,-0.536194,0.00531,0.0,-2.0,0.0,7664.0,657.0,1360.0,257.0,34.0,-2082.0,1987.0,204.0,-639.0,0.904164,0.075979,0.420237,15238.0,1322.0,2810.0,18.0,-26.0,1.0
2879.0,2758.0,2843.0,3122.0,3031.0,0.842041,0.048584,-0.53717,0.00531,0.0,-2.0,0.0,7682.0,664.0,1386.0,266.0,40.0,-2039.0,1953.0,206.0,-608.0,0.905155,0.076115,0.418149,15488.0,1376.0,2926.0,17.0,-41.0,5.0
2886.0,2769.0,2846.0,3135.0,3031.0,0.840759,0.048828,-0.539124,0.00531,-1.0,-3.0,0.0,7700.0,680.0,1382.0,269.0,54.0,-2008.0,1928.0,218.0,-582.0,0.907065,0.07638,0.413866,15564.0,1252.0,2718.0,-5.0,-58.0,1.0
2886.0,2770.0,2828.0,3137.0,3037.0,0.840088,0.048889,-0.540161,0.00531,-1.0,-3.0,-1.0,7741.0,648.0,1390.0,301.0,22.0,-1981.0,1920.0,182.0,-540.0,0.908085,0.076406,0.411612,15740.0,1094.0,2796.0,-2.0,-48.0,-3.0
2885.0,2767.0,2830.0,3131.0,3055.0,0.838928,0.049194,-0.541931,0.005371,1.0,-1.0,-1.0,7802.0,627.0,1364.0,348.0,-1.0,-1976.0,1939.0,158.0,-489.0,0.909811,0.07672,0.40772,15692.0,1282.0,2580.0,27.0,0.0,-11.0
2863.0,2737.0,2819.0,3107.0,3035.0,0.83844,0.049377,-0.542664,0.005371,0.0,0.0,-1.0,7790.0,636.0,1335.0,331.0,5.0,-1991.0,1946.0,166.0,-506.0,0.910512,0.076971,0.406089,15448.0,1306.0,2498.0,16.0,20.0,-11.0
2891.0,2768.0,2846.0,3155.0,3019.0,0.837524,0.049561,-0.544128,0.005371,0.0,0.0,-1.0,7675.0,613.0,1243.0,204.0,-19.0,-2057.0,1958.0,154.0,-644.0,0.911974,0.077171,0.402944,15020.0,1152.0,2276.0,7.0,5.0,-6.0
2875.0,2757.0,2832.0,3133.0,3023.0,0.836914,0.049683,-0.544983,0.005371,0.0,-1.0,-1.0,7672.0,615.0,1236.0,194.0,-18.0,-2048.0,1946.0,155.0,-645.0,0.912741,0.077306,0.400979,15474.0,1210.0,2574.0,10.0,-15.0,-2.0
2893.0,2755.0,2839.0,3151.0,3043.0,0.835938,0.049927,-0.54657,0.005432,0.0,-1.0,-1.0,7707.0,638.0,1282.0,216.0,2.0,-1975.0,1890.0,168.0,-587.0,0.914339,0.077533,0.39759,15514.0,1326.0,2802.0,11.0,-2.0,-2.0
2891.0,2765.0,2839.0,3139.0,3057.0,0.835449,0.050049,-0.547241,0.005432,0.0,-1.0,0.0,7715.0,666.0,1314.0,219.0,29.0,-1930.0,1849.0,191.0,-561.0,0.914928,0.077681,0.396027,15434.0,1536.0,2772.0,12.0,-5.0,7.0
2885.0,2759.0,2855.0,3110.0,3063.0,0.834412,0.050171,-0.548767,0.005493,-1.0,-1.0,0.0,7772.0,701.0,1378.0,265.0,64.0,-1838.0,1783.0,216.0,-473.0,0.916346,0.077697,0.39261,15764.0,1484.0,2890.0,-7.0,-7.0,17.0
2887.0,2771.0,2843.0,3143.0,3039.0,0.833984,0.050171,-0.5495,0.005493,-1.0,0.0,0.0,7776.0,724.0,1373.0,263.0,87.0,-1830.0,1774.0,238.0,-467.0,0.917099,0.077647,0.391093,15550.0,1574.0,2650.0,-17.0,5.0,17.0
2883.0,2766.0,2832.0,3139.0,3031.0,0.833069,0.049988,-0.550842,0.005493,-1.0,0.0,0.0,7743.0,671.0,1298.0,220.0,38.0,-1881.0,1809.0,195.0,-525.0,0.918328,0.077235,0.388108,15328.0,1122.0,2286.0,-21.0,15.0,17.0
2870.0,2771.0,2827.0,3147.0,3025.0,0.832581,0.049927,-0.551575,0.005554,-1.0,0.0,0.0,7722.0,657.0,1266.0,193.0,26.0,-1900.0,1817.0,186.0,-554.0,0.919015,0.077009,0.386494,15352.0,1280.0,2376.0,-8.0,16.0,17.0
2875.0,2767.0,2823.0,3153.0,3051.0,0.831726,0.049866,-0.552856,0.005676,-1.0,1.0,0.0,7730.0,635.0,1234.0,191.0,6.0,-1908.0,1827.0,167.0,-555.0,0.920216,0.076673,0.383664,15542.0,1226.0,2456.0,-8.0,32.0,17.0
2885.0,2753.0,2839.0,3151.0,3047.0,0.831421,0.049866,-0.553406,0.005737,-1.0,2.0,0.0,7735.0,629.0,1234.0,191.0,1.0,-1899.0,1820.0,161.0,-550.0,0.920798,0.076569,0.382549,15486.0,1174.0,2474.0,-6.0,47.0,16.0
2877.0,2759.0,2827.0,3135.0,3027.0,0.83075,0.049927,-0.554382,0.00592,0.0,2.0,0.0,7726.0,615.0,1270.0,175.0,-10.0,-1845.0,1766.0,147.0,-541.0,0.921697,0.076389,0.380347,15492.0,1268.0,2754.0,20.0,49.0,7.0
2870.0,2763.0,2847.0,3125.0,3007.0,0.830444,0.05011,-0.55481,0.006042,1.0,2.0,0.0,7739.0,628.0,1301.0,185.0,1.0,-1806.0,1734.0,154.0,-514.0,0.922082,0.076522,0.37935,15574.0,1324.0,2814.0,27.0,47.0,3.0
2874.0,2765.0,2829.0,3119.0,3045.0,0.829834,0.050476,-0.555664,0.006226,1.0,1.0,0.0,7735.0,661.0,1371.0,175.0,31.0,-1720.0,1649.0,178.0,-485.0,0.922846,0.076855,0.377353,15312.0,1458.0,2892.0,30.0,42.0,7.0
2883.0,2755.0,2832.0,3143.0,3039.0,0.829468,0.050659,-0.556213,0.006348,0.0,0.0,0.0,7706.0,674.0,1390.0,141.0,43.0,-1691.0,1610.0,190.0,-502.0,0.923365,0.076979,0.376117,15244.0,1394.0,2876.0,20.0,17.0,10.0
2886.0,2771.0,2843.0,3135.0,3039.0,0.828613,0.050781,-0.557495,0.006592,0.0,-1.0,0.0,7719.0,664.0,1404.0,144.0,34.0,-1653.0,1578.0,178.0,-481.0,0.924565,0.076806,0.373264,15528.0,1322.0,2774.0,16.0,-11.0,22.0
2871.0,2765.0,2821.0,3123.0,3047.0,0.828125,0.050842,-0.558167,0.006653,0.0,-1.0,0.0,7722.0,649.0,1392.0,143.0,20.0,-1652.0,1578.0,164.0,-480.0,0.92514,0.076781,0.3717,15474.0,1174.0,2700.0,12.0,-12.0,14.0
2887.0,2763.0,2834.0,3135.0,3039.0,0.827271,0.051025,-0.559448,0.006836,0.0,0.0,0.0,7747.0,628.0,1359.0,158.0,0.0,-1662.0,1596.0,145.0,-466.0,0.926328,0.076775,0.368837,15448.0,1272.0,2520.0,16.0,16.0,0.0
2881.0,2768.0,2843.0,3139.0,3055.0,0.826843,0.051147,-0.560059,0.006836,0.0,0.0,-1.0,7725.0,612.0,1323.0,132.0,-18.0,-1687.0,1611.0,131.0,-498.0,0.926861,0.076925,0.367435,15326.0,1098.0,2438.0,8.0,19.0,-6.0
2884.0,2769.0,2835.0,3141.0,3047.0,0.82605,0.051331,-0.561157,0.006958,0.0,1.0,0.0,7709.0,598.0,1301.0,108.0,-32.0,-1688.0,1605.0,119.0,-518.0,0.927802,0.076994,0.364874,15304.0,1288.0,2540.0,19.0,24.0,2.0
2875.0,2759.0,2830.0,3130.0,3023.0,0.825684,0.051453,-0.561707,0.007019,0.0,0.0,0.0,7693.0,611.0,1311.0,88.0,-20.0,-1667.0,1578.0,130.0,-526.0,0.928306,0.077082,0.363641,15338.0,1302.0,2726.0,12.0,17.0,2.0
2886.0,2763.0,2839.0,3139.0,3039.0,0.824951,0.051636,-0.562805,0.00708,0.0,0.0,0.0,7714.0,657.0,1363.0,101.0,24.0,-1595.0,1515.0,167.0,-480.0,0.929305,0.077225,0.361179,15490.0,1444.0,2824.0,5.0,8.0,4.0
2879.0,2767.0,2846.0,3152.0,3047.0,0.824524,0.051697,-0.563354,0.00708,-1.0,0.0,0.0,7724.0,655.0,1368.0,107.0,21.0,-1579.0,1503.0,163.0,-467.0,0.929731,0.077273,0.359849,15526.0,1220.0,2726.0,-1.0,2.0,6.0
2880.0,2767.0,2831.0,3135.0,3057.0,0.823792,0.05188,-0.564453,0.007202,0.0,0.0,0.0,7741.0,673.0,1382.0,116.0,39.0,-1545.0,1474.0,177.0,-441.0,0.930731,0.077346,0.357385,15390.0,1472.0,2732.0,19.0,13.0,6.0
2885.0,2759.0,2831.0,3127.0,3043.0,0.823425,0.052002,-0.565002,0.007263,0.0,0.0,0.0,7713.0,679.0,1373.0,84.0,44.0,-1544.0,1462.0,184.0,-468.0,0.93123,0.077432,0.35615,15256.0,1372.0,2720.0,13.0,6.0,3.0
2879.0,2759.0,2832.0,3135.0,3035.0,0.822571,0.052246,-0.566162,0.007385,0.0,-1.0,0.0,7698.0,677.0,1357.0,61.0,41.0,-1538.0,1450.0,182.0,-483.0,0.932189,0.07759,0.353408,15448.0,1394.0,2664.0,13.0,-5.0,13.0
2896.0,2767.0,2832.0,3111.0,3045.0,0.822144,0.052307,-0.566772,0.007446,0.0,-1.0,0.0,7702.0,686.0,1356.0,61.0,50.0,-1527.0,1440.0,191.0,-476.0,0.932716,0.077567,0.352008,15440.0,1408.0,2700.0,7.0,-2.0,15.0
2879.0,2765.0,2832.0,3143.0,3047.0,0.821411,0.052368,-0.567871,0.007568,-1.0,0.0,0.0,7717.0,691.0,1368.0,68.0,56.0,-1495.0,1413.0,193.0,-454.0,0.933704,0.077436,0.349554,15422.0,1386.0,2754.0,-2.0,12.0,20.0
2879.0,2763.0,2832.0,3137.0,3031.0,0.821045,0.052368,-0.568359,0.007629,-1.0,0.0,0.0,7721.0,700.0,1373.0,68.0,66.0,-1481.0,1400.0,202.0,-447.0,0.934096,0.077321,0.348398,15490.0,1448.0,2788.0,-6.0,11.0,21.0
2879.0,2757.0,2832.0,3135.0,3039.0,0.820374,0.052185,-0.569336,0.00769,-2.0,0.0,1.0,7745.0,677.0,1376.0,85.0,47.0,-1460.0,1389.0,180.0,-422.0,0.934939,0.076866,0.346205,15498.0,1206.0,2680.0,-25.0,16.0,23.0
2877.0,2763.0,2846.0,3143.0,3035.0,0.820068,0.052063,-0.569824,0.00769,-1.0,0.0,0.0,7739.0,652.0,1368.0,76.0,24.0,-1459.0,1387.0,157.0,-430.0,0.93539,0.076626,0.345161,15448.0,1170.0,2670.0,-16.0,16.0,22.0
2875.0,2766.0,2839.0,3135.0,3035.0,0.819336,0.052002,-0.570862,0.007874,-1.0,0.0,0.0,7712.0,610.0,1346.0,42.0,-14.0,-1462.0,1382.0,121.0,-462.0,0.936274,0.076225,0.342786,15352.0,1048.0,2642.0,0.0,9.0,11.0
2877.0,2763.0,2831.0,3139.0,3047.0,0.819031,0.052002,-0.57135,0.007935,0.0,0.0,0.0,7707.0,583.0,1345.0,33.0,-40.0,-1454.0,1373.0,95.0,-469.0,0.936732,0.076116,0.341729,15420.0,1016.0,2720.0,16.0,6.0,6.0
2879.0,2759.0,2832.0,3127.0,3035.0,0.818298,0.052246,-0.572327,0.008179,0.0,0.0,0.0,7693.0,599.0,1358.0,12.0,-24.0,-1422.0,1336.0,110.0,-473.0,0.937523,0.076144,0.339392,15310.0,1298.0,2732.0,19.0,3.0,11.0
2885.0,2767.0,2832.0,3141.0,3045.0,0.817932,0.052307,-0.572876,0.00824,0.0,-1.0,0.0,7708.0,605.0,1369.0,23.0,-18.0,-1401.0,1320.0,114.0,-453.0,0.938009,0.076127,0.338158,15562.0,1230.0,2814.0,4.0,-7.0,17.0
2879.0,2766.0,2839.0,3139.0,3047.0,0.817261,0.052246,-0.573792,0.008423,-1.0,1.0,0.0,7780.0,605.0,1380.0,89.0,-15.0,-1372.0,1317.0,111.0,-378.0,0.938755,0.075731,0.33602,15738.0,1168.0,2730.0,-1.0,29.0,14.0
2878.0,2763.0,2835.0,3135.0,3024.0,0.817017,0.052246,-0.574158,0.008484,-1.0,2.0,0.0,7784.0,600.0,1358.0,91.0,-19.0,-1387.0,1332.0,108.0,-380.0,0.939079,0.07563,0.335201,15554.0,1188.0,2580.0,0.0,49.0,7.0
2879.0,2765.0,2832.0,3133.0,3035.0,0.816589,0.052307,-0.574768,0.008484,-1.0,2.0,-1.0,7722.0,602.0,1322.0,24.0,-17.0,-1412.0,1333.0,116.0,-450.0,0.939587,0.075674,0.333796,15304.0,1188.0,2610.0,-10.0,51.0,-4.0
2879.0,2767.0,2839.0,3139.0,3043.0,0.816406,0.052246,-0.575073,0.008423,-1.0,1.0,-1.0,7690.0,607.0,1331.0,-9.0,-12.0,-1398.0,1309.0,121.0,-475.0,0.939867,0.075621,0.333151,15158.0,1246.0,2750.0,-21.0,43.0,-2.0
2879.0,2767.0,2841.0,3147.0,3047.0,0.815796,0.052185,-0.575928,0.008301,-1.0,-1.0,-1.0,7657.0,584.0,1383.0,-47.0,-35.0,-1329.0,1234.0,93.0,-486.0,0.940545,0.075583,0.331176,15426.0,1106.0,3048.0,-12.0,-10.0,-2.0
2891.0,2770.0,2843.0,3143.0,3050.0,0.81543,0.052185,-0.576416,0.008301,0.0,-1.0,-1.0,7693.0,595.0,1416.0,-15.0,-23.0,-1287.0,1205.0,99.0,-440.0,0.94092,0.075537,0.330016,15624.0,1328.0,3018.0,8.0,-14.0,-1.0
2887.0,2771.0,2843.0,3142.0,3045.0,0.814758,0.052368,-0.577393,0.008301,-1.0,-1.0,-1.0,7770.0,648.0,1481.0,55.0,27.0,-1204.0,1148.0,138.0,-340.0,0.94174,0.075749,0.327775,15756.0,1468.0,3076.0,-1.0,-4.0,-4.0
2891.0,2771.0,2846.0,3151.0,3053.0,0.814453,0.052429,-0.577759,0.00824,-1.0,0.0,-1.0,7797.0,660.0,1483.0,80.0,38.0,-1194.0,1146.0,147.0,-312.0,0.941979,0.075881,0.326848,15716.0,1370.0,2952.0,-11.0,14.0,-1.0
2879.0,2765.0,2835.0,3141.0,3047.0,0.814026,0.052368,-0.578369,0.008118,-2.0,2.0,0.0,7775.0,659.0,1422.0,54.0,37.0,-1244.0,1185.0,151.0,-351.0,0.942465,0.075868,0.325451,15316.0,1238.0,2530.0,-25.0,49.0,6.0
2882.0,2762.0,2832.0,3127.0,3039.0,0.813843,0.052246,-0.578674,0.008118,-2.0,2.0,0.0,7714.0,634.0,1368.0,-8.0,14.0,-1292.0,1212.0,136.0,-426.0,0.942748,0.075645,0.324812,14994.0,1112.0,2374.0,-25.0,50.0,7.0
2881.0,2762.0,2832.0,3135.0,3035.0,0.813232,0.052246,-0.579529,0.008118,0.0,-1.0,-1.0,7611.0,577.0,1318.0,-117.0,-42.0,-1326.0,1213.0,88.0,-541.0,0.943431,0.075568,0.32283,15296.0,1072.0,2784.0,13.0,-11.0,-4.0
2883.0,2759.0,2839.0,3149.0,3043.0,0.812866,0.052368,-0.580017,0.008179,1.0,-1.0,-1.0,7645.0,587.0,1349.0,-86.0,-32.0,-1286.0,1185.0,93.0,-497.0,0.943809,0.075649,0.321656,15508.0,1272.0,2864.0,27.0,-13.0,-5.0
2879.0,2763.0,2839.0,3147.0,3050.0,0.812134,0.052673,-0.580994,0.00824,0.0,-1.0,0.0,7710.0,635.0,1402.0,-27.0,12.0,-1213.0,1133.0,128.0,-411.0,0.944557,0.075981,0.319301,15502.0,1400.0,2932.0,8.0,-11.0,3.0
2879.0,2763.0,2831.0,3139.0,3043.0,0.811829,0.052734,-0.581482,0.00824,-1.0,-1.0,0.0,7746.0,665.0,1444.0,4.0,42.0,-1162.0,1094.0,152.0,-362.0,0.944996,0.07604,0.318231,15752.0,1532.0,3154.0,-4.0,-15.0,2.0
2877.0,2759.0,2837.0,3135.0,3046.0,0.811218,0.052612,-0.582275,0.008118,-2.0,0.0,0.0,7763.0,687.0,1475.0,16.0,65.0,-1116.0,1053.0,169.0,-332.0,0.945559,0.075907,0.316328,15430.0,1416.0,2932.0,-32.0,2.0,17.0
2883.0,2768.0,2833.0,3139.0,3035.0,0.810913,0.052429,-0.582703,0.008057,-2.0,-1.0,1.0,7736.0,681.0,1464.0,-12.0,61.0,-1119.0,1048.0,166.0,-359.0,0.945887,0.075642,0.315354,15252.0,1324.0,2834.0,-39.0,-2.0,25.0
2885.0,2767.0,2836.0,3135.0,3035.0,0.810242,0.052124,-0.583679,0.008057,-1.0,-2.0,0.0,7669.0,614.0,1409.0,-86.0,0.0,-1156.0,1065.0,112.0,-443.0,0.946682,0.075061,0.313158,15216.0,1060.0,2690.0,-15.0,-25.0,17.0
2881.0,2767.0,2835.0,3135.0,3035.0,0.809875,0.052063,-0.584229,0.008118,0.0,-2.0,0.0,7674.0,600.0,1394.0,-85.0,-13.0,-1161.0,1071.0,100.0,-443.0,0.94715,0.074844,0.311931,15418.0,1160.0,2738.0,5.0,-26.0,10.0
2881.0,2766.0,2831.0,3135.0,3047.0,0.809082,0.052124,-0.585266,0.008179,-1.0,-1.0,0.0,7713.0,615.0,1387.0,-52.0,2.0,-1147.0,1068.0,112.0,-404.0,0.947909,0.074772,0.309427,15620.0,1274.0,2776.0,-1.0,-19.0,9.0
2879.0,2767.0,2833.0,3147.0,3047.0,0.808777,0.052124,-0.585754,0.00824,-1.0,-1.0,0.0,7745.0,621.0,1383.0,-23.0,9.0,-1143.0,1074.0,117.0,-373.0,0.948348,0.07466,0.308363,15656.0,1250.0,2730.0,-8.0,-8.0,10.0
2886.0,2759.0,2839.0,3135.0,3047.0,0.808167,0.052124,-0.586609,0.008179,-1.0,0.0,-1.0,7777.0,607.0,1377.0,2.0,-4.0,-1132.0,1073.0,102.0,-345.0,0.949008,0.074654,0.306373,15668.0,1180.0,2768.0,-6.0,11.0,-2.0
2878.0,2770.0,2837.0,3135.0,3031.0,0.807922,0.052185,-0.586914,0.008179,0.0,1.0,-1.0,7771.0,614.0,1372.0,-4.0,1.0,-1131.0,1070.0,107.0,-349.0,0.949216,0.074723,0.305614,15458.0,1290.0,2706.0,3.0,27.0,-11.0
2881.0,2759.0,2833.0,3135.0,3039.0,0.807495,0.052307,-0.587524,0.007996,-1.0,0.0,-1.0,7732.0,638.0,1381.0,-47.0,22.0,-1110.0,1036.0,128.0,-380.0,0.949683,0.07508,0.304191,15370.0,1402.0,2858.0,-13.0,19.0,-6.0
2883.0,2774.0,2838.0,3139.0,3057.0,0.807251,0.052246,-0.58783,0.007935,-1.0,0.0,0.0,7714.0,653.0,1392.0,-67.0,38.0,-1093.0,1012.0,143.0,-392.0,0.949881,0.075023,0.303444,15304.0,1382.0,2834.0,-22.0,13.0,1.0
2879.0,2768.0,2850.0,3143.0,3031.0,0.806763,0.052185,-0.588501,0.007812,-1.0,0.0,0.0,7697.0,632.0,1422.0,-88.0,17.0,-1050.0,967.0,119.0,-399.0,0.950377,0.075007,0.30187,15414.0,1160.0,2946.0,-11.0,1.0,1.0
2883.0,2765.0,2833.0,3127.0,3038.0,0.806519,0.052185,-0.588806,0.007812,0.0,0.0,0.0,7715.0,634.0,1453.0,-72.0,19.0,-1013.0,937.0,117.0,-372.0,0.950582,0.074976,0.301117,15560.0,1306.0,3068.0,1.0,4.0,0.0
2877.0,2762.0,2832.0,3135.0,3043.0,0.806091,0.052246,-0.589417,0.007751,-1.0,0.0,0.0,7724.0,645.0,1465.0,-67.0,29.0,-990.0,917.0,124.0,-358.0,0.951057,0.075093,0.299702,15356.0,1278.0,2870.0,-22.0,16.0,4.0
2879.0,2762.0,2833.0,3143.0,3035.0,0.805847,0.052063,-0.589722,0.007629,-2.0,0.0,0.0,7707.0,623.0,1444.0,-85.0,9.0,-1005.0,927.0,106.0,-380.0,0.951245,0.074911,0.298966,15300.0,1068.0,2766.0,-37.0,6.0,9.0
2877.0,2767.0,2841.0,3135.0,3035.0,0.805298,0.051758,-0.590576,0.007507,-2.0,-1.0,-1.0,7698.0,556.0,1430.0,-100.0,-54.0,-1003.0,926.0,43.0,-397.0,0.951957,0.074494,0.297102,15476.0,872.0,2824.0,-29.0,-12.0,-2.0
2882.0,2765.0,2832.0,3135.0,3035.0,0.804993,0.051636,-0.590942,0.007446,-1.0,-1.0,-1.0,7720.0,535.0,1432.0,-80.0,-73.0,-994.0,926.0,22.0,-376.0,0.952178,0.074332,0.29619,15566.0,988.0,2866.0,-16.0,-5.0,-5.0
2887.0,2759.0,2837.0,3135.0,3037.0,0.804504,0.051636,-0.591675,0.007324,-1.0,-1.0,-1.0,7711.0,551.0,1422.0,-94.0,-58.0,-990.0,917.0,37.0,-385.0,0.952766,0.074415,0.294536,15380.0,1128.0,2840.0,-18.0,-7.0,-12.0
2883.0,2762.0,2827.0,3135.0,3043.0,0.804199,0.051575,-0.592102,0.007202,-1.0,-1.0,-1.0,7719.0,552.0,1429.0,-88.0,-57.0,-975.0,905.0,36.0,-374.0,0.953079,0.074424,0.293543,15530.0,1088.0,2936.0,-19.0,-19.0,-9.0
2883.0,2767.0,2833.0,3139.0,3031.0,0.803589,0.051575,-0.592896,0.007019,-1.0,-1.0,-1.0,7755.0,579.0,1455.0,-56.0,-31.0,-933.0,873.0,57.0,-327.0,0.953612,0.074567,0.291619,15636.0,1246.0,3014.0,-19.0,-10.0,-9.0
2887.0,2759.0,2822.0,3139.0,3039.0,0.803345,0.051575,-0.593201,0.006897,-1.0,0.0,-1.0,7761.0,584.0,1457.0,-52.0,-27.0,-925.0,867.0,59.0,-320.0,0.953801,0.074682,0.290863,15536.0,1152.0,2860.0,-17.0,1.0,-14.0
2882.0,2759.0,2831.0,3135.0,3047.0,0.802856,0.051636,-0.593872,0.006714,0.0,-1.0,-2.0,7706.0,577.0,1432.0,-111.0,-36.0,-937.0,862.0,54.0,-379.0,0.954281,0.074938,0.289273,15086.0,1172.0,2798.0,1.0,-1.0,-23.0
2890.0,2771.0,2837.0,3143.0,3035.0,0.802551,0.051758,-0.594299,0.006653,0.0,-2.0,-2.0,7651.0,580.0,1422.0,-169.0,-35.0,-939.0,847.0,59.0,-434.0,0.9546,0.075169,0.288262,15030.0,1186.0,2844.0,9.0,-31.0,-27.0
2887.0,2765.0,2839.0,3151.0,3043.0,0.801697,0.052185,-0.595398,0.00647,0.0,-4.0,-1.0,7670.0,634.0,1448.0,-156.0,11.0,-891.0,803.0,100.0,-402.0,0.955332,0.075969,0.285538,15534.0,1472.0,3020.0,17.0,-70.0,-18.0
2883.0,2763.0,2830.0,3143.0,3029.0,0.801208,0.052368,-0.596008,0.006409,0.0,-4.0,-1.0,7703.0,667.0,1465.0,-126.0,42.0,-861.0,782.0,127.0,-361.0,0.955725,0.076276,0.284008,15624.0,1516.0,3046.0,16.0,-69.0,-14.0
2887.0,2771.0,2831.0,3127.0,3055.0,0.800476,0.052673,-0.596985,0.006287,0.0,-2.0,-1.0,7793.0,727.0,1470.0,-41.0,97.0,-837.0,780.0,175.0,-267.0,0.956406,0.076821,0.281636,15774.0,1606.0,2830.0,10.0,-31.0,-6.0
2877.0,2751.0,2832.0,3151.0,3056.0,0.800171,0.052795,-0.597412,0.006226,0.0,-1.0,-1.0,7785.0,746.0,1431.0,-52.0,114.0,-867.0,805.0,195.0,-284.0,0.956721,0.077052,0.280624,15442.0,1580.0,2590.0,4.0,-11.0,-3.0
2871.0,2755.0,2830.0,3135.0,3056.0,0.799622,0.052979,-0.598145,0.006042,-1.0,0.0,-1.0,7720.0,745.0,1323.0,-121.0,110.0,-961.0,876.0,204.0,-375.0,0.957219,0.077497,0.278848,15166.0,1316.0,2292.0,-16.0,1.0,-2.0
2866.0,2763.0,2835.0,3135.0,3023.0,0.799316,0.052979,-0.598572,0.005981,-1.0,-1.0,-1.0,7678.0,697.0,1276.0,-166.0,61.0,-1000.0,904.0,161.0,-432.0,0.95753,0.077533,0.277848,15118.0,1080.0,2312.0,-3.0,-7.0,-2.0
2891.0,2768.0,2821.0,3135.0,3039.0,0.798645,0.053223,-0.599365,0.006165,1.0,-1.0,0.0,7674.0,671.0,1272.0,-174.0,35.0,-987.0,892.0,135.0,-436.0,0.958016,0.077622,0.275801,15496.0,1358.0,2634.0,36.0,-10.0,0.0
2889.0,2759.0,2845.0,3139.0,3015.0,0.798401,0.053467,-0.59967,0.006287,1.0,0.0,0.0,7713.0,686.0,1309.0,-136.0,48.0,-943.0,860.0,142.0,-385.0,0.958227,0.077836,0.27502,15674.0,1470.0,2880.0,36.0,3.0,6.0
2883.0,2775.0,2835.0,3139.0,3027.0,0.798218,0.053589,-0.599915,0.006409,1.0,0.0,0.0,7736.0,710.0,1339.0,-115.0,72.0,-909.0,832.0,162.0,-354.0,0.958412,0.077862,0.274423,15566.0,1538.0,2842.0,29.0,19.0,14.0
2881.0,2767.0,2833.0,3123.0,3055.0,0.797852,0.053711,-0.600403,0.006714,1.0,0.0,1.0,7724.0,688.0,1367.0,-130.0,51.0,-871.0,793.0,139.0,-358.0,0.958786,0.077645,0.273244,15490.0,1296.0,2844.0,23.0,7.0,27.0
2874.0,2750.0,2835.0,3125.0,3039.0,0.797668,0.053772,-0.600647,0.006897,1.0,0.0,1.0,7729.0,677.0,1380.0,-126.0,42.0,-853.0,778.0,128.0,-350.0,0.958976,0.077499,0.272654,15464.0,1286.0,2826.0,27.0,7.0,26.0
2879.0,2763.0,2855.0,3159.0,3023.0,0.797119,0.053894,-0.601318,0.007263,0.0,-2.0,1.0,7684.0,666.0,1395.0,-175.0,33.0,-824.0,738.0,120.0,-388.0,0.959428,0.077185,0.270963,15310.0,1338.0,2874.0,18.0,-31.0,31.0
2895.0,2771.0,2855.0,3147.0,3055.0,0.796814,0.053894,-0.601807,0.007385,0.0,-2.0,1.0,7702.0,655.0,1401.0,-161.0,24.0,-809.0,729.0,109.0,-371.0,0.959852,0.076998,0.269891,15556.0,1254.0,2798.0,7.0,-41.0,33.0
2895.0,2773.0,2847.0,3138.0,3057.0,0.796143,0.053711,-0.602661,0.00769,0.0,-2.0,1.0,7738.0,615.0,1400.0,-129.0,-9.0,-793.0,725.0,72.0,-336.0,0.960434,0.076254,0.267817,15546.0,1140.0,2708.0,3.0,-27.0,35.0
2879.0,2763.0,2847.0,3119.0,3055.0,0.795837,0.053589,-0.603027,0.007874,-1.0,-1.0,1.0,7735.0,609.0,1378.0,-134.0,-11.0,-808.0,739.0,72.0,-345.0,0.960667,0.0758,0.266905,15430.0,1176.0,2588.0,-2.0,-17.0,27.0
2887.0,2771.0,2819.0,3135.0,3031.0,0.795349,0.053406,-0.60376,0.007874,-2.0,-1.0,0.0,7714.0,586.0,1351.0,-160.0,-32.0,-822.0,747.0,54.0,-374.0,0.961241,0.075445,0.265264,15440.0,1040.0,2666.0,-25.0,-11.0,6.0
2885.0,2767.0,2859.0,3119.0,3039.0,0.795105,0.053284,-0.604126,0.007812,-2.0,-1.0,0.0,7707.0,571.0,1341.0,-169.0,-45.0,-825.0,749.0,41.0,-384.0,0.96152,0.075293,0.264446,15376.0,1082.0,2644.0,-26.0,-9.0,3.0
2877.0,2767.0,2831.0,3127.0,3031.0,0.794617,0.053101,-0.604736,0.00769,-1.0,-1.0,-1.0,7722.0,534.0,1337.0,-157.0,-81.0,-817.0,748.0,4.0,-371.0,0.961884,0.075088,0.262949,15462.0,982.0,2716.0,-13.0,-6.0,-6.0
2873.0,2766.0,2814.0,3135.0,3055.0,0.794373,0.053101,-0.605042,0.007629,-1.0,-1.0,-1.0,7728.0,540.0,1353.0,-153.0,-75.0,-794.0,727.0,7.0,-361.0,0.962067,0.075131,0.262191,15514.0,1174.0,2786.0,0.0,-7.0,-12.0
2882.0,2755.0,2807.0,3120.0,3005.0,0.793945,0.053223,-0.605591,0.007507,-1.0,-1.0,-1.0,7733.0,577.0,1390.0,-151.0,-40.0,-746.0,679.0,37.0,-342.0,0.962411,0.075419,0.260833,15466.0,1260.0,2920.0,-4.0,-8.0,-13.0
2891.0,2758.0,2831.0,3151.0,3027.0,0.793701,0.053284,-0.605896,0.007446,-1.0,-1.0,-1.0,7727.0,602.0,1398.0,-158.0,-16.0,-732.0,662.0,60.0,-343.0,0.962594,0.075559,0.260068,15392.0,1396.0,2802.0,-8.0,-14.0,-11.0
2882.0,2752.0,2821.0,3139.0,3051.0,0.793213,0.053284,-0.606567,0.007202,-1.0,-1.0,-1.0,7736.0,620.0,1403.0,-153.0,0.0,-714.0,646.0,74.0,-331.0,0.963042,0.075793,0.258475,15456.0,1208.0,2800.0,-18.0,-21.0,-5.0
2864.0,2743.0,2829.0,3121.0,3039.0,0.792969,0.053223,-0.606873,0.007141,-1.0,-2.0,-1.0,7719.0,617.0,1378.0,-171.0,-3.0,-733.0,660.0,74.0,-353.0,0.963222,0.07574,0.257723,15330.0,1262.0,2582.0,-9.0,-23.0,-2.0
2869.0,2769.0,2849.0,3147.0,3027.0,0.792358,0.053345,-0.607605,0.007019,0.0,-2.0,-1.0,7703.0,619.0,1346.0,-191.0,-3.0,-749.0,670.0,76.0,-375.0,0.963631,0.076007,0.255852,15354.0,1214.0,2656.0,3.0,-24.0,-14.0
2879.0,2765.0,2847.0,3135.0,3043.0,0.792114,0.053467,-0.607971,0.006958,0.0,-2.0,-1.0,7704.0,626.0,1342.0,-192.0,1.0,-747.0,668.0,80.0,-375.0,0.963909,0.076243,0.255006,15424.0,1322.0,2644.0,7.0,-26.0,-16.0
2871.0,2763.0,2855.0,3141.0,3011.0,0.791565,0.05365,-0.608704,0.006836,-1.0,-1.0,-1.0,7736.0,653.0,1345.0,-164.0,25.0,-729.0,657.0,101.0,-340.0,0.96439,0.076613,0.253223,15678.0,1368.0,2690.0,-1.0,-17.0,-4.0
2886.0,2759.0,2838.0,3126.0,3043.0,0.791321,0.05365,-0.608948,0.006775,-1.0,-1.0,0.0,7746.0,660.0,1351.0,-154.0,32.0,-717.0,648.0,107.0,-327.0,0.964473,0.076657,0.252539,15520.0,1350.0,2740.0,-7.0,-8.0,2.0
2891.0,2767.0,2825.0,3143.0,3031.0,0.790894,0.05365,-0.609497,0.006775,-1.0,-1.0,0.0,7716.0,647.0,1360.0,-187.0,19.0,-697.0,621.0,94.0,-354.0,0.964822,0.076604,0.251194,15436.0,1274.0,2806.0,-3.0,-19.0,2.0
2875.0,2769.0,2833.0,3131.0,3023.0,0.790649,0.053711,-0.609802,0.006775,0.0,-1.0,-1.0,7722.0,657.0,1367.0,-183.0,28.0,-684.0,610.0,101.0,-345.0,0.965007,0.07667,0.250429,15510.0,1350.0,2766.0,10.0,-21.0,-1.0
2885.0,2767.0,2847.0,3135.0,3025.0,0.790222,0.053955,-0.610413,0.006897,1.0,-1.0,0.0,7755.0,654.0,1359.0,-154.0,24.0,-680.0,614.0,96.0,-316.0,0.965467,0.076853,0.248984,15506.0,1294.0,2576.0,28.0,-5.0,10.0
2881.0,2768.0,2838.0,3139.0,3039.0,0.789978,0.054077,-0.610657,0.007019,1.0,-1.0,0.0,7742.0,659.0,1342.0,-167.0,29.0,-691.0,621.0,102.0,-330.0,0.96557,0.076867,0.248289,15350.0,1338.0,2592.0,31.0,-3.0,10.0
2882.0,2759.0,2851.0,3149.0,3039.0,0.789551,0.054443,-0.611206,0.007324,1.0,-1.0,0.0,7724.0,651.0,1313.0,-189.0,20.0,-709.0,634.0,97.0,-356.0,0.965954,0.077018,0.246907,15468.0,1320.0,2658.0,41.0,-7.0,7.0
2879.0,2765.0,2829.0,3143.0,3035.0,0.789307,0.054565,-0.611511,0.007446,1.0,-1.0,0.0,7722.0,663.0,1301.0,-192.0,31.0,-715.0,638.0,109.0,-359.0,0.966152,0.077031,0.246137,15448.0,1380.0,2548.0,31.0,-2.0,6.0
2883.0,2766.0,2831.0,3135.0,3051.0,0.78894,0.054749,-0.611938,0.007507,0.0,0.0,0.0,7728.0,654.0,1295.0,-188.0,21.0,-712.0,638.0,99.0,-354.0,0.966388,0.077199,0.245017,15528.0,1204.0,2592.0,7.0,6.0,5.0
2871.0,2751.0,2832.0,3150.0,3025.0,0.788818,0.05481,-0.612183,0.007568,0.0,0.0,0.0,7715.0,644.0,1291.0,-203.0,11.0,-712.0,635.0,90.0,-369.0,0.966631,0.077203,0.24452,15312.0,1222.0,2568.0,4.0,8.0,8.0
2879.0,2759.0,2847.0,3153.0,3027.0,0.788391,0.054688,-0.612671,0.00769,-1.0,-2.0,0.0,7671.0,614.0,1301.0,-249.0,-15.0,-691.0,606.0,64.0,-410.0,0.96689,0.076807,0.243263,15250.0,1076.0,2644.0,-5.0,-24.0,18.0
2887.0,2774.0,2819.0,3134.0,3047.0,0.788086,0.054626,-0.613037,0.007751,0.0,-2.0,0.0,7713.0,597.0,1344.0,-209.0,-30.0,-641.0,569.0,42.0,-359.0,0.967099,0.076597,0.242341,15768.0,1100.0,3004.0,1.0,-34.0,15.0
2883.0,2768.0,2826.0,3143.0,3027.0,0.78772,0.054749,-0.613525,0.007874,0.0,-1.0,-1.0,7734.0,586.0,1384.0,-191.0,-41.0,-591.0,526.0,26.0,-330.0,0.967434,0.076592,0.241154,15338.0,1108.0,2830.0,17.0,-5.0,-3.0
2887.0,2766.0,2831.0,3157.0,3037.0,0.787537,0.054871,-0.61377,0.007935,1.0,-2.0,-1.0,7710.0,586.0,1384.0,-216.0,-42.0,-586.0,516.0,26.0,-353.0,0.967603,0.076685,0.240553,15354.0,1186.0,2806.0,25.0,-23.0,-7.0
2889.0,2766.0,2833.0,3133.0,3039.0,0.787048,0.055115,-0.614319,0.007996,0.0,-1.0,0.0,7769.0,632.0,1405.0,-159.0,1.0,-553.0,495.0,63.0,-286.0,0.967879,0.076932,0.239084,15734.0,1420.0,2814.0,11.0,-13.0,3.0
2903.0,2768.0,2847.0,3127.0,3057.0,0.786926,0.055115,-0.614502,0.007996,-1.0,0.0,0.0,7764.0,641.0,1376.0,-165.0,10.0,-579.0,518.0,74.0,-297.0,0.968017,0.076916,0.238667,15428.0,1326.0,2534.0,-2.0,6.0,1.0
2879.0,2779.0,2830.0,3126.0,3055.0,0.78656,0.055237,-0.61499,0.007935,0.0,-1.0,-1.0,7729.0,612.0,1315.0,-203.0,-19.0,-630.0,561.0,53.0,-347.0,0.96833,0.077135,0.237476,15458.0,1100.0,2514.0,9.0,-2.0,-16.0
2877.0,2770.0,2835.0,3142.0,3057.0,0.786377,0.05542,-0.615173,0.007935,0.0,0.0,-1.0,7723.0,622.0,1295.0,-210.0,-12.0,-646.0,574.0,62.0,-357.0,0.968396,0.0774,0.236942,15384.0,1352.0,2496.0,21.0,2.0,-14.0
2885.0,2767.0,2815.0,3135.0,3015.0,0.786072,0.055542,-0.615601,0.007874,-1.0,0.0,0.0,7752.0,653.0,1279.0,-183.0,17.0,-653.0,585.0,90.0,-330.0,0.968687,0.077626,0.235922,15634.0,1352.0,2456.0,-10.0,9.0,7.0
2890.0,2766.0,2831.0,3151.0,3019.0,0.785889,0.055481,-0.615784,0.007874,-1.0,0.0,0.0,7761.0,650.0,1273.0,-174.0,15.0,-655.0,590.0,88.0,-321.0,0.968749,0.077507,0.235415,15528.0,1272.0,2522.0,-16.0,22.0,12.0
2887.0,2771.0,2847.0,3139.0,3047.0,0.785767,0.055481,-0.615967,0.007874,0.0,1.0,-1.0,7710.0,640.0,1269.0,-227.0,5.0,-656.0,579.0,81.0,-373.0,0.968886,0.07749,0.234998,15218.0,1286.0,2580.0,8.0,24.0,-3.0
2867.0,2757.0,2831.0,3122.0,3047.0,0.785645,0.055542,-0.61615,0.007874,0.0,0.0,0.0,7715.0,659.0,1304.0,-223.0,23.0,-617.0,541.0,95.0,-359.0,0.969024,0.07757,0.234574,15516.0,1428.0,2884.0,11.0,9.0,0.0
2886.0,2767.0,2834.0,3126.0,3067.0,0.785522,0.055603,-0.616272,0.007935,0.0,0.0,0.0,7728.0,685.0,1341.0,-210.0,49.0,-577.0,503.0,116.0,-334.0,0.969073,0.077575,0.234226,15534.0,1546.0,2902.0,2.0,12.0,8.0
2875.0,2769.0,2837.0,3133.0,3043.0,0.785339,0.055542,-0.616455,0.007874,-1.0,0.0,0.0,7753.0,693.0,1395.0,-186.0,57.0,-519.0,452.0,117.0,-297.0,0.969127,0.077531,0.233718,15620.0,1206.0,2916.0,-18.0,7.0,13.0
2893.0,2751.0,2831.0,3143.0,3063.0,0.785278,0.05542,-0.616577,0.007935,-1.0,0.0,1.0,7757.0,674.0,1399.0,-183.0,41.0,-513.0,449.0,100.0,-293.0,0.969249,0.077256,0.233486,15468.0,1324.0,2750.0,-5.0,12.0,23.0
2864.0,2765.0,2831.0,3143.0,3019.0,0.785034,0.055298,-0.616943,0.008057,-1.0,0.0,1.0,7766.0,653.0,1367.0,-176.0,23.0,-539.0,477.0,84.0,-294.0,0.969534,0.07688,0.232667,15676.0,1174.0,2630.0,-13.0,6.0,28.0
2881.0,2769.0,2845.0,3159.0,3051.0,0.784912,0.055115,-0.617065,0.008118,-1.0,1.0,1.0,7783.0,632.0,1337.0,-159.0,5.0,-566.0,509.0,68.0,-285.0,0.969579,0.076502,0.232346,15670.0,1114.0,2456.0,-21.0,24.0,32.0
2879.0,2767.0,2832.0,3127.0,3051.0,0.784851,0.054688,-0.617188,0.008362,-1.0,2.0,1.0,7739.0,578.0,1270.0,-204.0,-40.0,-631.0,565.0,32.0,-347.0,0.969715,0.075521,0.23215,15162.0,1088.0,2344.0,-16.0,55.0,36.0
2879.0,2767.0,2849.0,3135.0,3043.0,0.784851,0.054504,-0.617249,0.008484,-1.0,1.0,1.0,7658.0,571.0,1246.0,-286.0,-44.0,-655.0,569.0,34.0,-432.0,0.969821,0.075082,0.232097,14830.0,1094.0,2388.0,-16.0,35.0,27.0
2887.0,2749.0,2847.0,3139.0,3055.0,0.784485,0.054321,-0.617737,0.008545,-1.0,-2.0,0.0,7643.0,561.0,1319.0,-304.0,-50.0,-572.0,485.0,21.0,-430.0,0.970139,0.074671,0.23094,15520.0,1148.0,2974.0,-9.0,-34.0,11.0
2885.0,2768.0,2831.0,3139.0,3047.0,0.784241,0.05426,-0.617981,0.008545,-1.0,-2.0,0.0,7688.0,585.0,1370.0,-260.0,-25.0,-516.0,440.0,38.0,-372.0,0.970219,0.074545,0.230262,15610.0,1324.0,3022.0,-9.0,-32.0,19.0
2886.0,2769.0,2833.0,3134.0,3047.0,0.783875,0.054016,-0.618469,0.008606,-1.0,-1.0,0.0,7790.0,621.0,1443.0,-160.0,14.0,-433.0,380.0,63.0,-253.0,0.970534,0.074039,0.229111,15932.0,1286.0,3042.0,-16.0,-17.0,21.0
2881.0,2767.0,2835.0,3141.0,3057.0,0.783813,0.054016,-0.618591,0.008606,-1.0,0.0,0.0,7827.0,627.0,1460.0,-124.0,20.0,-414.0,370.0,65.0,-213.0,0.97065,0.07403,0.228865,15802.0,1308.0,2994.0,-4.0,13.0,9.0
2882.0,2755.0,2839.0,3127.0,3039.0,0.783752,0.053955,-0.618652,0.008545,-1.0,1.0,0.0,7771.0,625.0,1399.0,-180.0,18.0,-474.0,415.0,72.0,-281.0,0.970663,0.074002,0.228699,15346.0,1128.0,2558.0,-12.0,29.0,5.0
2883.0,2763.0,2835.0,3139.0,3047.0,0.783691,0.053955,-0.618713,0.008606,-1.0,1.0,0.0,7728.0,610.0,1348.0,-223.0,4.0,-524.0,455.0,65.0,-335.0,0.970689,0.073919,0.228529,15178.0,1148.0,2362.0,-6.0,29.0,5.0
2891.0,2768.0,2835.0,3133.0,3047.0,0.783386,0.054016,-0.61908,0.008606,0.0,-1.0,-1.0,7629.0,592.0,1279.0,-324.0,-14.0,-585.0,492.0,59.0,-448.0,0.970887,0.073975,0.227591,15066.0,1166.0,2434.0,12.0,-11.0,-4.0
2879.0,2749.0,2838.0,3139.0,3037.0,0.783142,0.054138,-0.619385,0.008667,0.0,-2.0,-1.0,7633.0,593.0,1291.0,-322.0,-13.0,-567.0,475.0,58.0,-442.0,0.971071,0.074059,0.226818,15346.0,1220.0,2718.0,19.0,-31.0,-3.0
2894.0,2762.0,2831.0,3143.0,3035.0,0.782654,0.054382,-0.619995,0.008789,1.0,-2.0,0.0,7734.0,623.0,1348.0,-224.0,14.0,-497.0,428.0,73.0,-328.0,0.971439,0.074227,0.225273,15878.0,1448.0,2906.0,25.0,-28.0,0.0
2887.0,2779.0,2849.0,3135.0,3043.0,0.782532,0.054504,-0.620178,0.008789,0.0,-1.0,-1.0,7784.0,640.0,1385.0,-175.0,30.0,-456.0,399.0,83.0,-270.0,0.971576,0.074401,0.224841,15806.0,1334.0,2968.0,16.0,-6.0,-2.0
2887.0,2768.0,2835.0,3150.0,3038.0,0.78241,0.054749,-0.6203,0.00885,1.0,1.0,-1.0,7811.0,625.0,1397.0,-148.0,13.0,-441.0,392.0,63.0,-241.0,0.971627,0.074692,0.224473,15516.0,1228.0,2780.0,25.0,29.0,-6.0
2887.0,2747.0,2830.0,3127.0,3053.0,0.78241,0.054871,-0.6203,0.008911,1.0,1.0,-1.0,7776.0,612.0,1384.0,-183.0,0.0,-454.0,398.0,53.0,-279.0,0.971636,0.074807,0.224461,15314.0,1178.0,2686.0,27.0,33.0,-8.0
2878.0,2768.0,2833.0,3143.0,3039.0,0.782349,0.055054,-0.620361,0.008972,1.0,1.0,-1.0,7716.0,599.0,1366.0,-243.0,-15.0,-471.0,402.0,44.0,-342.0,0.971666,0.07501,0.224271,15038.0,1112.0,2650.0,27.0,24.0,-7.0
2882.0,2767.0,2837.0,3143.0,3031.0,0.781982,0.055237,-0.620728,0.009155,1.0,-2.0,0.0,7637.0,581.0,1335.0,-324.0,-33.0,-493.0,406.0,32.0,-427.0,0.971807,0.075023,0.223227,15256.0,1128.0,2658.0,24.0,-35.0,3.0
2882.0,2747.0,2832.0,3123.0,3046.0,0.781738,0.055359,-0.621094,0.009277,1.0,-3.0,0.0,7657.0,577.0,1343.0,-306.0,-37.0,-478.0,396.0,26.0,-406.0,0.972093,0.075028,0.222379,15490.0,1138.0,2744.0,28.0,-46.0,9.0
2885.0,2763.0,2833.0,3135.0,3045.0,0.78125,0.055481,-0.621643,0.00946,0.0,-1.0,0.0,7763.0,593.0,1357.0,-202.0,-20.0,-452.0,394.0,35.0,-297.0,0.972367,0.074927,0.220923,15744.0,1222.0,2614.0,10.0,-16.0,8.0
2887.0,2769.0,2813.0,3138.0,3031.0,0.781128,0.055481,-0.621826,0.009521,0.0,0.0,0.0,7785.0,591.0,1359.0,-181.0,-22.0,-447.0,394.0,31.0,-276.0,0.972508,0.074834,0.220506,15652.0,1190.0,2756.0,7.0,5.0,2.0
2881.0,2767.0,2838.0,3127.0,3047.0,0.781067,0.055542,-0.621887,0.009521,0.0,0.0,-1.0,7790.0,596.0,1349.0,-176.0,-17.0,-455.0,403.0,37.0,-272.0,0.972529,0.074921,0.220328,15586.0,1212.0,2614.0,7.0,22.0,-9.0
2882.0,2759.0,2833.0,3125.0,3039.0,0.781067,0.055725,-0.621887,0.00946,0.0,2.0,-1.0,7765.0,622.0,1318.0,-201.0,5.0,-486.0,425.0,63.0,-302.0,0.972525,0.075283,0.220306,15380.0,1312.0,2542.0,1.0,51.0,-12.0
2881.0,2767.0,2847.0,3149.0,3035.0,0.781067,0.055725,-0.621826,0.009399,-1.0,1.0,0.0,7725.0,626.0,1305.0,-241.0,8.0,-500.0,429.0,70.0,-343.0,0.972423,0.07536,0.220381,15206.0,1278.0,2542.0,-12.0,43.0,0.0
2885.0,2766.0,2837.0,3150.0,3039.0,0.781006,0.055603,-0.622009,0.009338,-1.0,-1.0,0.0,7645.0,609.0,1297.0,-322.0,-7.0,-505.0,417.0,60.0,-424.0,0.972624,0.075235,0.22007,15202.0,1068.0,2564.0,-13.0,-1.0,9.0
2866.0,2766.0,2832.0,3135.0,3031.0,0.780823,0.055603,-0.622192,0.009399,0.0,-1.0,0.0,7665.0,601.0,1320.0,-303.0,-14.0,-478.0,396.0,49.0,-400.0,0.972689,0.075136,0.219557,15536.0,1210.0,2866.0,10.0,-19.0,8.0
2891.0,2763.0,2835.0,3139.0,3039.0,0.780579,0.055725,-0.622498,0.009521,0.0,0.0,0.0,7752.0,664.0,1365.0,-217.0,48.0,-427.0,361.0,101.0,-300.0,0.972878,0.075141,0.218785,15756.0,1530.0,2878.0,2.0,3.0,12.0
2875.0,2763.0,2834.0,3139.0,3038.0,0.780518,0.055725,-0.622559,0.00946,-1.0,0.0,0.0,7779.0,676.0,1380.0,-190.0,59.0,-410.0,350.0,109.0,-270.0,0.97289,0.075209,0.218613,15712.0,1388.0,2812.0,-9.0,21.0,11.0
2883.0,2767.0,2833.0,3135.0,3037.0,0.780518,0.055664,-0.622559,0.00946,-1.0,1.0,0.0,7786.0,668.0,1374.0,-183.0,52.0,-416.0,358.0,102.0,-265.0,0.972889,0.075114,0.218619,15578.0,1296.0,2690.0,-8.0,39.0,10.0
2881.0,2757.0,2832.0,3135.0,3031.0,0.780579,0.055603,-0.622498,0.009521,-1.0,2.0,0.0,7727.0,656.0,1335.0,-242.0,42.0,-457.0,385.0,99.0,-332.0,0.972875,0.074951,0.218799,15214.0,1262.0,2552.0,-8.0,46.0,12.0
2883.0,2767.0,2835.0,3135.0,3035.0,0.780579,0.055542,-0.622498,0.009521,-1.0,1.0,0.0,7678.0,652.0,1315.0,-291.0,38.0,-477.0,394.0,100.0,-384.0,0.972874,0.074856,0.218806,15032.0,1308.0,2524.0,-9.0,37.0,14.0
2879.0,2763.0,2839.0,3143.0,3045.0,0.780396,0.05542,-0.622742,0.009583,-1.0,-1.0,0.0,7622.0,637.0,1325.0,-349.0,26.0,-462.0,368.0,90.0,-438.0,0.973032,0.074564,0.21823,15312.0,1228.0,2780.0,-17.0,-16.0,20.0
2883.0,2763.0,2826.0,3131.0,3035.0,0.780212,0.055298,-0.622925,0.009583,-1.0,-1.0,0.0,7662.0,629.0,1363.0,-309.0,19.0,-420.0,337.0,76.0,-390.0,0.973087,0.07435,0.21773,15616.0,1236.0,2964.0,-9.0,-21.0,22.0
2879.0,2755.0,2835.0,3135.0,3039.0,0.780029,0.055115,-0.62323,0.009766,-1.0,-1.0,1.0,7752.0,641.0,1416.0,-221.0,36.0,-362.0,299.0,83.0,-291.0,0.973352,0.07381,0.217088,15790.0,1288.0,2960.0,-11.0,-1.0,33.0
2883.0,2769.0,2843.0,3131.0,3045.0,0.779968,0.054993,-0.623291,0.009827,-1.0,0.0,1.0,7800.0,629.0,1425.0,-173.0,26.0,-352.0,301.0,69.0,-242.0,0.973375,0.073535,0.216931,15852.0,1166.0,2870.0,-7.0,19.0,28.0
2881.0,2767.0,2835.0,3143.0,3037.0,0.78009,0.054993,-0.623169,0.01001,0.0,2.0,-1.0,7785.0,609.0,1400.0,-188.0,8.0,-379.0,325.0,55.0,-264.0,0.973357,0.073323,0.217277,15400.0,1190.0,2758.0,20.0,57.0,-4.0
2882.0,2759.0,2827.0,3135.0,3035.0,0.780151,0.055176,-0.623047,0.010071,0.0,2.0,-1.0,7749.0,608.0,1387.0,-223.0,5.0,-394.0,332.0,55.0,-302.0,0.973253,0.073542,0.217506,15282.0,1230.0,2688.0,21.0,56.0,-8.0
2879.0,2765.0,2838.0,3139.0,3039.0,0.780151,0.055298,-0.623047,0.010071,0.0,0.0,0.0,7639.0,621.0,1370.0,-333.0,16.0,-411.0,323.0,74.0,-412.0,0.973256,0.073732,0.217492,15012.0,1238.0,2770.0,1.0,5.0,2.0
2882.0,2768.0,2838.0,3134.0,3039.0,0.780029,0.055298,-0.62323,0.010071,-1.0,-2.0,0.0,7638.0,602.0,1391.0,-336.0,-1.0,-387.0,301.0,55.0,-411.0,0.973389,0.073715,0.217074,15348.0,1094.0,2928.0,-4.0,-24.0,7.0
2879.0,2768.0,2833.0,3143.0,3039.0,0.779663,0.055237,-0.623657,0.010132,0.0,-2.0,0.0,7726.0,603.0,1448.0,-249.0,0.0,-321.0,256.0,44.0,-311.0,0.973604,0.073495,0.215978,15790.0,1238.0,3108.0,5.0,-27.0,8.0
2879.0,2763.0,2838.0,3135.0,3035.0,0.779602,0.055237,-0.623779,0.010193,0.0,-1.0,0.0,7782.0,608.0,1477.0,-194.0,6.0,-290.0,238.0,44.0,-251.0,0.973725,0.073409,0.215732,15860.0,1276.0,3100.0,2.0,-4.0,5.0
2879.0,2763.0,2839.0,3143.0,3039.0,0.779541,0.055237,-0.62384,0.010193,-1.0,0.0,0.0,7785.0,611.0,1436.0,-191.0,9.0,-329.0,276.0,51.0,-256.0,0.973744,0.073401,0.21556,15498.0,1252.0,2648.0,-7.0,22.0,2.0
2885.0,2769.0,2835.0,3143.0,3043.0,0.77948,0.055237,-0.62384,0.010132,-1.0,1.0,0.0,7762.0,626.0,1411.0,-214.0,24.0,-354.0,294.0,70.0,-282.0,0.973661,0.073471,0.215464,15390.0,1364.0,2656.0,-18.0,24.0,0.0
2881.0,2762.0,2837.0,3139.0,3039.0,0.779419,0.054932,-0.623962,0.009888,-2.0,0.0,0.0,7677.0,598.0,1348.0,-299.0,-2.0,-415.0,337.0,54.0,-380.0,0.973743,0.07329,0.215245,15058.0,1026.0,2512.0,-39.0,13.0,2.0
2879.0,2765.0,2833.0,3135.0,3035.0,0.779297,0.05481,-0.624146,0.009827,-2.0,-1.0,0.0,7640.0,571.0,1330.0,-337.0,-28.0,-429.0,344.0,31.0,-422.0,0.973866,0.073159,0.214838,15060.0,970.0,2560.0,-25.0,-6.0,1.0
2883.0,2759.0,2837.0,3139.0,3039.0,0.778992,0.05481,-0.624573,0.009827,0.0,-2.0,0.0,7679.0,567.0,1367.0,-301.0,-31.0,-384.0,309.0,22.0,-377.0,0.974151,0.073117,0.213829,15574.0,1234.0,2850.0,9.0,-24.0,0.0
2879.0,2769.0,2844.0,3149.0,3047.0,0.778809,0.05481,-0.624756,0.009827,0.0,-1.0,0.0,7720.0,584.0,1396.0,-260.0,-14.0,-351.0,285.0,34.0,-329.0,0.974208,0.073094,0.213315,15740.0,1304.0,3028.0,8.0,-22.0,0.0
2883.0,2766.0,2835.0,3143.0,3039.0,0.778748,0.054993,-0.624817,0.009827,0.0,1.0,-1.0,7805.0,616.0,1429.0,-175.0,14.0,-316.0,267.0,54.0,-236.0,0.97423,0.073371,0.213124,15572.0,1288.0,2842.0,11.0,41.0,-3.0
2881.0,2765.0,2836.0,3139.0,3045.0,0.778809,0.055054,-0.624756,0.009827,0.0,1.0,-1.0,7741.0,630.0,1399.0,-239.0,28.0,-348.0,283.0,74.0,-305.0,0.974212,0.073474,0.213289,15056.0,1314.0,2588.0,4.0,39.0,-6.0
2883.0,2763.0,2832.0,3135.0,3039.0,0.778748,0.055115,-0.624817,0.009766,0.0,0.0,0.0,7721.0,626.0,1382.0,-259.0,22.0,-363.0,294.0,71.0,-328.0,0.974226,0.073637,0.213109,15470.0,1280.0,2752.0,1.0,16.0,3.0
2879.0,2767.0,2838.0,3149.0,3043.0,0.778687,0.055115,-0.624878,0.009766,-1.0,0.0,0.0,7684.0,633.0,1369.0,-297.0,29.0,-375.0,297.0,81.0,-367.0,0.974244,0.07363,0.212938,15112.0,1338.0,2664.0,-8.0,17.0,9.0
2887.0,2768.0,2835.0,3149.0,3045.0,0.778442,0.054993,-0.625183,0.009705,-1.0,-2.0,0.0,7635.0,620.0,1376.0,-347.0,18.0,-362.0,274.0,71.0,-413.0,0.974405,0.073483,0.212189,15204.0,1126.0,2786.0,-15.0,-25.0,14.0
2883.0,2767.0,2834.0,3131.0,3039.0,0.778259,0.054871,-0.625427,0.009705,-1.0,-2.0,0.0,7662.0,604.0,1394.0,-321.0,3.0,-339.0,259.0,53.0,-384.0,0.974554,0.073268,0.211612,15542.0,1130.0,2976.0,-7.0,-40.0,14.0
2890.0,2758.0,2837.0,3135.0,3039.0,0.777954,0.054871,-0.625854,0.009827,0.0,-1.0,0.0,7735.0,592.0,1436.0,-250.0,-6.0,-289.0,227.0,35.0,-305.0,0.974851,0.073074,0.210604,15620.0,1130.0,2938.0,12.0,-21.0,12.0
2883.0,2769.0,2833.0,3141.0,3047.0,0.777832,0.054932,-0.625977,0.009949,0.0,-1.0,0.0,7732.0,582.0,1432.0,-254.0,-16.0,-290.0,228.0,26.0,-309.0,0.974902,0.073,0.210258,15414.0,1114.0,2812.0,17.0,-17.0,15.0
2879.0,2768.0,2835.0,3143.0,3037.0,0.777588,0.054932,-0.626282,0.010193,0.0,-1.0,0.0,7745.0,565.0,1419.0,-243.0,-30.0,-297.0,239.0,12.0,-301.0,0.975098,0.072661,0.209501,15420.0,1070.0,2666.0,17.0,-11.0,12.0
2887.0,2765.0,2834.0,3135.0,3043.0,0.777405,0.054993,-0.626465,0.010315,0.0,-1.0,0.0,7737.0,558.0,1403.0,-251.0,-36.0,-308.0,248.0,7.0,-311.0,0.975168,0.072579,0.208982,15470.0,1066.0,2734.0,14.0,-14.0,11.0
2879.0,2759.0,2835.0,3143.0,3039.0,0.777222,0.055115,-0.626709,0.010498,1.0,0.0,0.0,7748.0,541.0,1369.0,-241.0,-53.0,-338.0,281.0,-6.0,-309.0,0.975341,0.072514,0.208382,15476.0,1104.0,2618.0,24.0,9.0,1.0
2885.0,2765.0,2839.0,3135.0,3035.0,0.777161,0.055176,-0.626831,0.010498,0.0,0.0,-1.0,7733.0,538.0,1347.0,-257.0,-56.0,-357.0,297.0,-6.0,-329.0,0.975455,0.0726,0.208127,15350.0,1028.0,2610.0,17.0,13.0,-12.0
2885.0,2773.0,2844.0,3147.0,3035.0,0.777039,0.055359,-0.626892,0.01062,0.0,0.0,-1.0,7731.0,525.0,1361.0,-259.0,-70.0,-341.0,282.0,-21.0,-328.0,0.975415,0.072717,0.207843,15522.0,1248.0,2840.0,22.0,15.0,-11.0
2887.0,2768.0,2838.0,3141.0,3031.0,0.777039,0.055481,-0.626892,0.010559,-1.0,0.0,-1.0,7717.0,565.0,1379.0,-273.0,-32.0,-323.0,258.0,14.0,-335.0,0.97541,0.072983,0.207829,15288.0,1336.0,2850.0,-3.0,20.0,-6.0
2885.0,2766.0,2839.0,3139.0,3039.0,0.776917,0.055359,-0.627075,0.010437,-1.0,-1.0,0.0,7686.0,559.0,1418.0,-305.0,-38.0,-281.0,211.0,6.0,-358.0,0.975526,0.072929,0.20742,15404.0,1130.0,3036.0,-15.0,-16.0,3.0
2895.0,2771.0,2841.0,3152.0,3047.0,0.776855,0.055298,-0.627197,0.010376,-1.0,-1.0,-1.0,7701.0,578.0,1443.0,-291.0,-19.0,-254.0,186.0,21.0,-337.0,0.975631,0.072901,0.207178,15504.0,1256.0,3012.0,-3.0,-20.0,-1.0
2879.0,2757.0,2863.0,3125.0,3038.0,0.776611,0.055481,-0.627441,0.010437,1.0,-1.0,0.0,7722.0,596.0,1457.0,-271.0,-2.0,-234.0,170.0,35.0,-312.0,0.975714,0.073077,0.206473,15428.0,1304.0,2842.0,25.0,-17.0,5.0
2879.0,2765.0,2843.0,3135.0,3029.0,0.776489,0.055603,-0.627625,0.010559,0.0,-2.0,0.0,7720.0,638.0,1444.0,-274.0,39.0,-243.0,175.0,77.0,-314.0,0.975862,0.073096,0.206043,15440.0,1552.0,2866.0,21.0,-23.0,10.0
2885.0,2759.0,2831.0,3135.0,3051.0,0.776184,0.055664,-0.62793,0.010559,-1.0,-1.0,0.0,7728.0,683.0,1414.0,-267.0,83.0,-266.0,195.0,123.0,-309.0,0.975954,0.07315,0.205179,15488.0,1448.0,2672.0,-11.0,-21.0,16.0
2879.0,2771.0,2842.0,3149.0,3057.0,0.776062,0.055542,-0.628113,0.010498,-2.0,-1.0,0.0,7735.0,665.0,1386.0,-261.0,66.0,-291.0,222.0,108.0,-309.0,0.976075,0.07302,0.204772,15518.0,1162.0,2560.0,-24.0,-13.0,15.0
2891.0,2757.0,2839.0,3150.0,3019.0,0.775879,0.055359,-0.628357,0.010437,-1.0,0.0,0.0,7730.0,620.0,1334.0,-267.0,23.0,-338.0,271.0,70.0,-327.0,0.976213,0.072787,0.2042,15446.0,1110.0,2606.0,-14.0,11.0,5.0
2885.0,2761.0,2847.0,3135.0,3043.0,0.775818,0.055359,-0.628418,0.010437,-1.0,1.0,-1.0,7724.0,595.0,1316.0,-273.0,-1.0,-355.0,288.0,48.0,-339.0,0.976231,0.072779,0.204029,15382.0,1022.0,2570.0,-8.0,23.0,-1.0
2883.0,2765.0,2831.0,3135.0,3039.0,0.775818,0.055298,-0.628418,0.010376,-1.0,0.0,-1.0,7704.0,596.0,1338.0,-293.0,0.0,-333.0,262.0,48.0,-353.0,0.976223,0.072761,0.204034,15446.0,1172.0,2848.0,-9.0,17.0,-4.0
2897.0,2763.0,2832.0,3142.0,3039.0,0.775818,0.055298,-0.628418,0.010376,0.0,0.0,0.0,7726.0,593.0,1384.0,-271.0,-3.0,-287.0,222.0,39.0,-323.0,0.976223,0.072761,0.204034,15600.0,1180.0,3048.0,1.0,18.0,0.0
2871.0,2770.0,2839.0,3153.0,3031.0,0.77594,0.055359,-0.628296,0.010437,0.0,0.0,0.0,7710.0,617.0,1435.0,-286.0,20.0,-239.0,170.0,58.0,-326.0,0.976195,0.072795,0.204371,15214.0,1236.0,2922.0,1.0,20.0,11.0
2881.0,2768.0,2835.0,3135.0,3051.0,0.775879,0.055298,-0.628357,0.010498,-1.0,-1.0,0.0,7693.0,606.0,1437.0,-304.0,11.0,-235.0,164.0,50.0,-343.0,0.976219,0.072616,0.204208,15342.0,1136.0,2902.0,-4.0,-6.0,16.0
2879.0,2753.0,2833.0,3151.0,3043.0,0.775696,0.055176,-0.628601,0.01062,-1.0,-1.0,0.0,7743.0,589.0,1430.0,-255.0,-2.0,-238.0,178.0,35.0,-297.0,0.976378,0.072248,0.203633,15664.0,1172.0,2786.0,-4.0,-3.0,13.0
2882.0,2736.0,2839.0,3149.0,3059.0,0.775696,0.055115,-0.628601,0.01062,-1.0,0.0,0.0,7764.0,576.0,1411.0,-234.0,-15.0,-257.0,202.0,22.0,-281.0,0.976377,0.072153,0.20364,15608.0,1046.0,2666.0,-10.0,19.0,6.0
2879.0,2750.0,2828.0,3147.0,3061.0,0.775696,0.054993,-0.628601,0.010498,-2.0,0.0,-1.0,7707.0,556.0,1355.0,-291.0,-34.0,-313.0,246.0,12.0,-350.0,0.976361,0.072117,0.203651,15232.0,1026.0,2628.0,-25.0,22.0,-3.0
2887.0,2775.0,2832.0,3147.0,3027.0,0.775696,0.054871,-0.628662,0.010437,-2.0,0.0,-1.0,7705.0,546.0,1340.0,-294.0,-43.0,-327.0,260.0,4.0,-356.0,0.976447,0.072003,0.203586,15472.0,1056.0,2600.0,-25.0,17.0,-6.0
2879.0,2762.0,2807.0,3139.0,3035.0,0.775757,0.054749,-0.62854,0.010315,-1.0,2.0,-1.0,7720.0,560.0,1358.0,-277.0,-29.0,-311.0,247.0,16.0,-335.0,0.976318,0.071976,0.203845,15350.0,1252.0,2726.0,-10.0,49.0,-8.0
2885.0,2768.0,2847.0,3120.0,3039.0,0.775879,0.05481,-0.628418,0.010254,-1.0,1.0,-1.0,7705.0,580.0,1383.0,-292.0,-11.0,-289.0,221.0,32.0,-344.0,0.976277,0.072164,0.20418,15360.0,1240.0,2934.0,-14.0,44.0,-9.0
2883.0,2755.0,2810.0,3147.0,3051.0,0.776001,0.054749,-0.628296,0.010132,-1.0,0.0,0.0,7712.0,603.0,1448.0,-285.0,11.0,-227.0,160.0,48.0,-323.0,0.976226,0.072238,0.204527,15516.0,1332.0,3134.0,-8.0,17.0,2.0
2871.0,2759.0,2833.0,3143.0,3011.0,0.776001,0.054688,-0.628235,0.010071,-1.0,0.0,0.0,7733.0,620.0,1482.0,-263.0,28.0,-194.0,131.0,60.0,-294.0,0.976123,0.072221,0.204609,15628.0,1310.0,3214.0,-14.0,15.0,3.0
2870.0,2768.0,2823.0,3135.0,3039.0,0.776123,0.054504,-0.628113,0.01001,-1.0,0.0,0.0,7740.0,601.0,1509.0,-256.0,10.0,-170.0,110.0,40.0,-284.0,0.976077,0.07203,0.204971,15382.0,1128.0,3054.0,-19.0,21.0,11.0
2877.0,2767.0,2836.0,3127.0,3015.0,0.776123,0.054382,-0.628113,0.009949,-2.0,0.0,0.0,7704.0,586.0,1492.0,-291.0,-3.0,-187.0,121.0,30.0,-322.0,0.976068,0.071917,0.204983,15184.0,1056.0,2878.0,-30.0,8.0,10.0
2883.0,2771.0,2835.0,3165.0,3035.0,0.776001,0.054077,-0.628357,0.009949,-1.0,-1.0,0.0,7684.0,529.0,1455.0,-313.0,-56.0,-220.0,153.0,-18.0,-354.0,0.976287,0.071425,0.20452,15410.0,1006.0,2746.0,-17.0,-17.0,5.0
2890.0,2775.0,2863.0,3127.0,3047.0,0.775879,0.054016,-0.62854,0.009888,-1.0,-2.0,-1.0,7707.0,513.0,1443.0,-291.0,-71.0,-229.0,167.0,-33.0,-335.0,0.97641,0.07139,0.204105,15558.0,962.0,2814.0,-14.0,-23.0,-4.0
2893.0,2768.0,2823.0,3141.0,3039.0,0.775635,0.054016,-0.628723,0.009766,0.0,0.0,-1.0,7762.0,509.0,1441.0,-236.0,-76.0,-226.0,177.0,-41.0,-281.0,0.976374,0.071514,0.203494,15534.0,1112.0,2836.0,6.0,3.0,-22.0
2886.0,2765.0,2819.0,3153.0,3035.0,0.775635,0.054138,-0.628784,0.009705,0.0,0.0,-2.0,7742.0,522.0,1438.0,-257.0,-66.0,-228.0,173.0,-30.0,-302.0,0.976465,0.071779,0.203403,15378.0,1092.0,2910.0,1.0,8.0,-34.0
2902.0,2774.0,2815.0,3131.0,3031.0,0.775574,0.054382,-0.628784,0.009399,-1.0,0.0,-2.0,7717.0,538.0,1441.0,-281.0,-56.0,-224.0,164.0,-18.0,-323.0,0.976359,0.072535,0.203276,15316.0,1228.0,2900.0,0.0,7.0,-39.0
2893.0,2771.0,2851.0,3141.0,3027.0,0.775513,0.054504,-0.628845,0.009155,-1.0,-1.0,-2.0,7695.0,561.0,1447.0,-303.0,-37.0,-216.0,150.0,0.0,-342.0,0.976353,0.073023,0.203087,15294.0,1272.0,3000.0,-6.0,-10.0,-42.0
2883.0,2757.0,2854.0,3135.0,3035.0,0.77533,0.054749,-0.629089,0.008789,-1.0,-1.0,-2.0,7712.0,592.0,1484.0,-287.0,-12.0,-174.0,110.0,20.0,-316.0,0.976466,0.073838,0.202462,15396.0,1352.0,3014.0,-5.0,-22.0,-36.0
2879.0,2762.0,2863.0,3121.0,3037.0,0.775208,0.054871,-0.629211,0.008545,-1.0,-2.0,-2.0,7684.0,602.0,1486.0,-315.0,-6.0,-169.0,99.0,27.0,-342.0,0.976477,0.074319,0.202102,15214.0,1218.0,2994.0,-9.0,-38.0,-33.0
2875.0,2739.0,2830.0,3135.0,3053.0,0.77478,0.055115,-0.629761,0.008301,0.0,-3.0,-2.0,7700.0,616.0,1490.0,-301.0,2.0,-154.0,87.0,33.0,-324.0,0.976767,0.074949,0.200717,15536.0,1326.0,2974.0,7.0,-62.0,-30.0
2879.0,2768.0,2849.0,3151.0,3027.0,0.774536,0.055298,-0.630005,0.008179,0.0,-3.0,-2.0,7725.0,630.0,1477.0,-277.0,12.0,-161.0,98.0,43.0,-301.0,0.976828,0.075355,0.200009,15582.0,1358.0,2866.0,16.0,-52.0,-27.0
2879.0,2756.0,2851.0,3135.0,3047.0,0.774231,0.055664,-0.630432,0.007996,0.0,-1.0,-1.0,7719.0,682.0,1406.0,-285.0,58.0,-223.0,154.0,95.0,-318.0,0.97709,0.076112,0.198954,15214.0,1474.0,2522.0,9.0,-21.0,-22.0
2887.0,2773.0,2834.0,3131.0,3037.0,0.774048,0.055847,-0.630615,0.007874,0.0,-2.0,-1.0,7667.0,678.0,1349.0,-337.0,51.0,-276.0,196.0,96.0,-380.0,0.977132,0.076526,0.198418,15020.0,1288.0,2366.0,4.0,-32.0,-18.0
2881.0,2761.0,2831.0,3151.0,3039.0,0.77356,0.056274,-0.631165,0.007874,2.0,-2.0,-1.0,7690.0,664.0,1318.0,-316.0,32.0,-295.0,220.0,79.0,-364.0,0.977373,0.077124,0.196921,15668.0,1434.0,2622.0,49.0,-37.0,-22.0
2879.0,2759.0,2843.0,3121.0,3035.0,0.773376,0.05658,-0.631348,0.007935,2.0,-1.0,-1.0,7729.0,691.0,1316.0,-278.0,56.0,-292.0,223.0,100.0,-324.0,0.977437,0.077496,0.196373,15644.0,1542.0,2606.0,52.0,-15.0,-20.0
2879.0,2766.0,2839.0,3143.0,3051.0,0.773193,0.057129,-0.631592,0.008057,1.0,0.0,0.0,7756.0,733.0,1301.0,-252.0,92.0,-302.0,235.0,136.0,-298.0,0.977606,0.078166,0.195721,15600.0,1514.0,2578.0,36.0,1.0,4.0
2881.0,2762.0,2845.0,3131.0,3051.0,0.773132,0.057251,-0.631592,0.008179,1.0,0.0,0.0,7770.0,735.0,1300.0,-238.0,94.0,-302.0,238.0,137.0,-284.0,0.977545,0.078194,0.195615,15600.0,1474.0,2574.0,33.0,19.0,14.0
2882.0,2751.0,2827.0,3143.0,3039.0,0.773193,0.057556,-0.63147,0.008545,1.0,2.0,0.0,7746.0,749.0,1279.0,-261.0,108.0,-325.0,254.0,155.0,-310.0,0.97748,0.078212,0.195834,15414.0,1580.0,2544.0,37.0,54.0,18.0
2879.0,2767.0,2843.0,3135.0,3027.0,0.773315,0.057678,-0.631348,0.008667,1.0,2.0,0.0,7725.0,762.0,1266.0,-282.0,120.0,-340.0,264.0,169.0,-332.0,0.977462,0.078263,0.196165,15316.0,1624.0,2426.0,28.0,58.0,18.0
2890.0,2768.0,2839.0,3151.0,3043.0,0.773438,0.057739,-0.631165,0.008972,0.0,2.0,1.0,7667.0,753.0,1234.0,-339.0,114.0,-376.0,287.0,171.0,-396.0,0.977369,0.07799,0.196584,15190.0,1446.0,2426.0,11.0,47.0,42.0
2875.0,2759.0,2831.0,3143.0,3027.0,0.773499,0.057678,-0.631104,0.009216,0.0,2.0,2.0,7666.0,743.0,1223.0,-340.0,107.0,-388.0,299.0,165.0,-400.0,0.977378,0.077595,0.196766,15370.0,1428.0,2386.0,13.0,46.0,53.0
2877.0,2749.0,2829.0,3137.0,3047.0,0.773743,0.057434,-0.630859,0.009827,0.0,3.0,3.0,7739.0,722.0,1216.0,-267.0,95.0,-401.0,328.0,150.0,-332.0,0.977374,0.07648,0.197492,15730.0,1356.0,2394.0,21.0,81.0,72.0
2887.0,2761.0,2847.0,3127.0,3037.0,0.773926,0.057373,-0.630554,0.010254,1.0,4.0,3.0,7780.0,728.0,1227.0,-225.0,106.0,-396.0,330.0,158.0,-290.0,0.977181,0.075874,0.198176,15790.0,1484.0,2514.0,30.0,108.0,69.0
2867.0,2768.0,2831.0,3127.0,3056.0,0.774597,0.05719,-0.629761,0.011047,1.0,6.0,3.0,7806.0,699.0,1250.0,-196.0,87.0,-390.0,331.0,137.0,-263.0,0.976885,0.074684,0.200254,15552.0,1284.0,2636.0,29.0,155.0,78.0
2879.0,2764.0,2830.0,3143.0,3023.0,0.775085,0.057068,-0.62915,0.011536,1.0,7.0,3.0,7776.0,672.0,1281.0,-224.0,66.0,-372.0,309.0,115.0,-288.0,0.976607,0.07395,0.201804,15328.0,1164.0,2716.0,28.0,169.0,83.0
2893.0,2763.0,2821.0,3131.0,3031.0,0.776062,0.056519,-0.627991,0.012512,0.0,6.0,4.0,7655.0,612.0,1324.0,-341.0,22.0,-354.0,270.0,76.0,-403.0,0.976134,0.072009,0.204862,15132.0,1008.0,2802.0,11.0,143.0,111.0
2887.0,2757.0,2835.0,3139.0,3047.0,0.776367,0.056091,-0.627625,0.013123,-1.0,4.0,5.0,7701.0,590.0,1349.0,-294.0,11.0,-337.0,264.0,60.0,-355.0,0.976006,0.070623,0.205859,15844.0,1022.0,2858.0,-6.0,102.0,129.0
2894.0,2769.0,2832.0,3131.0,3047.0,0.777161,0.054993,-0.626709,0.014343,-1.0,6.0,5.0,7661.0,482.0,1529.0,-331.0,-70.0,-178.0,108.0,-35.0,-364.0,0.975685,0.067498,0.208396,14708.0,560.0,3466.0,-5.0,145.0,133.0
2879.0,2770.0,2835.0,3127.0,3027.0,0.77771,0.054626,-0.626038,0.015015,1.0,6.0,4.0,7568.0,428.0,1565.0,-422.0,-114.0,-156.0,71.0,-78.0,-451.0,0.975392,0.066168,0.210151,14668.0,570.0,3242.0,39.0,159.0,112.0
2879.0,2763.0,2832.0,3143.0,3027.0,0.778625,0.054199,-0.624878,0.016357,1.0,5.0,5.0,7608.0,511.0,1600.0,-378.0,-12.0,-145.0,59.0,19.0,-400.0,0.974865,0.063959,0.213115,15710.0,1430.0,3364.0,24.0,134.0,117.0
2887.0,2752.0,2839.0,3126.0,3061.0,0.779053,0.053833,-0.62439,0.016785,-1.0,5.0,5.0,7709.0,542.0,1628.0,-275.0,26.0,-128.0,61.0,50.0,-293.0,0.974672,0.062917,0.214444,15998.0,1214.0,3464.0,-22.0,130.0,118.0
2891.0,2789.0,2839.0,3135.0,3043.0,0.779907,0.052979,-0.623352,0.017517,-1.0,4.0,3.0,7711.0,518.0,1722.0,-269.0,19.0,-57.0,-6.0,35.0,-273.0,0.97417,0.060798,0.217188,15216.0,936.0,3752.0,-7.0,110.0,81.0
2851.0,2751.0,2835.0,3142.0,3045.0,0.780273,0.052795,-0.622925,0.017883,0.0,3.0,2.0,7681.0,532.0,1776.0,-297.0,39.0,-12.0,-58.0,51.0,-289.0,0.973992,0.06011,0.218324,15196.0,1238.0,3838.0,20.0,85.0,63.0
2883.0,2751.0,2832.0,3159.0,3051.0,0.780518,0.052673,-0.62262,0.018188,-1.0,-1.0,2.0,7726.0,654.0,1844.0,-251.0,165.0,49.0,-119.0,168.0,-223.0,0.973847,0.059576,0.219109,15728.0,1748.0,3858.0,-12.0,-7.0,52.0
2879.0,2765.0,2833.0,3135.0,3053.0,0.780518,0.052429,-0.622681,0.018188,-3.0,-2.0,2.0,7744.0,726.0,1877.0,-234.0,241.0,82.0,-154.0,239.0,-195.0,0.973934,0.059193,0.219058,15534.0,1894.0,3988.0,-63.0,-37.0,66.0
2884.0,2766.0,2842.0,3125.0,3047.0,0.780334,0.051025,-0.622986,0.017761,-8.0,-3.0,4.0,7655.0,792.0,1897.0,-324.0,320.0,106.0,-204.0,318.0,-274.0,0.974087,0.057504,0.218522,14900.0,1608.0,3692.0,-169.0,-57.0,113.0
2885.0,2767.0,2811.0,3107.0,3039.0,0.780212,0.049927,-0.62323,0.017578,-10.0,-4.0,6.0,7569.0,773.0,1843.0,-412.0,314.0,56.0,-174.0,320.0,-371.0,0.974259,0.055997,0.218132,14592.0,1410.0,3282.0,-207.0,-69.0,138.0
2890.0,2747.0,2827.0,3152.0,3031.0,0.779602,0.047241,-0.624268,0.017273,-10.0,-6.0,6.0,7553.0,589.0,1712.0,-434.0,162.0,-58.0,-53.0,180.0,-427.0,0.974993,0.052093,0.216136,15474.0,468.0,3268.0,-208.0,-121.0,150.0
2879.0,2768.0,2831.0,3147.0,3047.0,0.779236,0.046021,-0.624756,0.017334,-7.0,-4.0,5.0,7592.0,482.0,1643.0,-397.0,71.0,-118.0,21.0,93.0,-409.0,0.97526,0.050063,0.215071,15386.0,350.0,2824.0,-153.0,-84.0,136.0
2881.0,2766.0,2810.0,3149.0,3029.0,0.778748,0.044312,-0.625488,0.0177,-3.0,-2.0,4.0,7645.0,295.0,1535.0,-348.0,-88.0,-214.0,139.0,-58.0,-389.0,0.975764,0.046872,0.213562,15438.0,78.0,2732.0,-65.0,-34.0,96.0
2875.0,2759.0,2847.0,3147.0,3031.0,0.778625,0.043701,-0.625732,0.018005,-2.0,-1.0,3.0,7689.0,233.0,1475.0,-306.0,-139.0,-270.0,207.0,-105.0,-362.0,0.975996,0.045521,0.213131,15694.0,164.0,2616.0,-39.0,-13.0,87.0
2877.0,2759.0,2843.0,3139.0,3047.0,0.778442,0.042603,-0.626038,0.018555,-3.0,1.0,3.0,7793.0,201.0,1382.0,-204.0,-152.0,-359.0,317.0,-114.0,-282.0,0.976249,0.043095,0.212579,15858.0,334.0,2582.0,-62.0,24.0,78.0
2885.0,2765.0,2832.0,3139.0,3051.0,0.778442,0.042053,-0.626038,0.018677,-4.0,1.0,2.0,7802.0,182.0,1371.0,-195.0,-162.0,-370.0,331.0,-123.0,-275.0,0.976239,0.042087,0.21263,15582.0,240.0,2702.0,-69.0,44.0,65.0
2895.0,2767.0,2851.0,3139.0,3039.0,0.778748,0.041077,-0.625732,0.018677,-4.0,3.0,1.0,7754.0,205.0,1408.0,-242.0,-127.0,-341.0,289.0,-91.0,-314.0,0.97611,0.040603,0.213568,15328.0,594.0,2916.0,-70.0,72.0,36.0
2879.0,2751.0,2835.0,3135.0,3026.0,0.77887,0.040588,-0.625549,0.018616,-4.0,3.0,1.0,7753.0,221.0,1427.0,-242.0,-106.0,-326.0,273.0,-72.0,-310.0,0.975954,0.039936,0.214025,15572.0,520.0,3012.0,-81.0,70.0,38.0
2891.0,2755.0,2830.0,3117.0,3037.0,0.779358,0.039673,-0.625061,0.018433,-4.0,3.0,1.0,7727.0,267.0,1502.0,-266.0,-50.0,-263.0,201.0,-21.0,-318.0,0.975755,0.038796,0.215463,15332.0,590.0,3302.0,-83.0,76.0,30.0
2891.0,2755.0,2831.0,3125.0,3047.0,0.779602,0.039246,-0.624756,0.018311,-4.0,3.0,1.0,7716.0,271.0,1550.0,-275.0,-42.0,-221.0,158.0,-17.0,-317.0,0.975559,0.038313,0.216255,15392.0,560.0,3462.0,-69.0,75.0,26.0
2885.0,2769.0,2839.0,3135.0,3035.0,0.780151,0.038696,-0.624084,0.018188,-2.0,3.0,0.0,7655.0,287.0,1630.0,-333.0,-21.0,-155.0,78.0,-1.0,-359.0,0.975168,0.037676,0.217988,15144.0,574.0,3452.0,-43.0,75.0,18.0
2879.0,2761.0,2831.0,3126.0,3027.0,0.780396,0.038452,-0.62384,0.018127,-2.0,2.0,0.0,7647.0,286.0,1656.0,-340.0,-20.0,-135.0,57.0,-2.0,-361.0,0.975078,0.037399,0.21869,15318.0,546.0,3486.0,-40.0,52.0,22.0
2887.0,2767.0,2815.0,3141.0,3027.0,0.780579,0.037903,-0.623596,0.018066,-2.0,1.0,0.0,7704.0,268.0,1710.0,-282.0,-32.0,-86.0,23.0,-19.0,-294.0,0.974901,0.03664,0.219321,15566.0,418.0,3584.0,-41.0,29.0,22.0
2885.0,2768.0,2843.0,3139.0,3047.0,0.780701,0.037659,-0.623474,0.018066,-2.0,1.0,0.0,7718.0,249.0,1742.0,-268.0,-48.0,-57.0,0.0,-38.0,-275.0,0.974854,0.036272,0.219682,15526.0,418.0,3718.0,-38.0,30.0,12.0
2887.0,2765.0,2832.0,3151.0,3051.0,0.781006,0.037292,-0.623169,0.017883,-2.0,1.0,-1.0,7702.0,241.0,1749.0,-282.0,-53.0,-57.0,-3.0,-42.0,-289.0,0.974731,0.035963,0.22056,15368.0,426.0,3466.0,-41.0,25.0,-5.0
2867.0,2759.0,2832.0,3147.0,3031.0,0.781006,0.037109,-0.623108,0.0177,-3.0,0.0,-1.0,7695.0,228.0,1734.0,-289.0,-66.0,-73.0,11.0,-54.0,-300.0,0.974616,0.035907,0.220643,15380.0,392.0,3402.0,-50.0,8.0,-3.0
2879.0,2768.0,2850.0,3123.0,3055.0,0.780945,0.036621,-0.623291,0.017395,-2.0,-1.0,-1.0,7677.0,196.0,1722.0,-308.0,-94.0,-83.0,19.0,-81.0,-321.0,0.974786,0.035514,0.220345,15272.0,210.0,3474.0,-44.0,-16.0,-10.0
2883.0,2767.0,2831.0,3141.0,3051.0,0.780884,0.036499,-0.623352,0.017273,-2.0,-1.0,-1.0,7673.0,200.0,1722.0,-312.0,-90.0,-81.0,15.0,-77.0,-325.0,0.974792,0.035469,0.220178,15396.0,496.0,3572.0,-27.0,-21.0,-16.0
2891.0,2775.0,2839.0,3143.0,3039.0,0.780884,0.036499,-0.623352,0.016907,-2.0,0.0,-2.0,7693.0,263.0,1737.0,-292.0,-31.0,-66.0,1.0,-20.0,-300.0,0.974765,0.035925,0.220165,15420.0,614.0,3498.0,-30.0,2.0,-25.0
2887.0,2763.0,2839.0,3115.0,3043.0,0.780884,0.036438,-0.623352,0.016724,-2.0,-1.0,-1.0,7684.0,270.0,1713.0,-301.0,-25.0,-90.0,22.0,-12.0,-314.0,0.97475,0.036058,0.220164,15284.0,590.0,3332.0,-28.0,-2.0,-14.0
2879.0,2762.0,2831.0,3139.0,3019.0,0.780762,0.036438,-0.623535,0.016602,-1.0,-2.0,0.0,7660.0,291.0,1711.0,-326.0,-5.0,-89.0,14.0,8.0,-337.0,0.974875,0.036195,0.219741,15296.0,702.0,3490.0,-2.0,-24.0,0.0
2885.0,2767.0,2843.0,3151.0,3047.0,0.78064,0.036438,-0.623657,0.016602,0.0,-2.0,0.0,7662.0,302.0,1712.0,-324.0,5.0,-85.0,10.0,17.0,-334.0,0.974913,0.036183,0.219398,15350.0,650.0,3474.0,4.0,-27.0,3.0
2877.0,2747.0,2837.0,3152.0,3019.0,0.780396,0.036438,-0.623962,0.016724,0.0,-2.0,0.0,7649.0,315.0,1684.0,-338.0,20.0,-107.0,28.0,34.0,-352.0,0.975094,0.036002,0.21864,15298.0,712.0,3346.0,8.0,-45.0,17.0
2885.0,2757.0,2827.0,3135.0,3031.0,0.780212,0.036438,-0.624207,0.016785,-1.0,-3.0,0.0,7674.0,320.0,1679.0,-315.0,25.0,-107.0,32.0,39.0,-329.0,0.975251,0.035905,0.218052,15536.0,612.0,3338.0,-2.0,-52.0,19.0
2883.0,2763.0,2837.0,3139.0,3031.0,0.779907,0.036255,-0.624573,0.016907,0.0,-2.0,0.0,7729.0,260.0,1655.0,-261.0,-30.0,-123.0,64.0,-15.0,-282.0,0.975443,0.035432,0.217136,15580.0,280.0,3184.0,7.0,-23.0,11.0
2883.0,2763.0,2832.0,3137.0,3055.0,0.779846,0.036316,-0.624695,0.017029,1.0,-1.0,0.0,7731.0,241.0,1640.0,-260.0,-48.0,-136.0,78.0,-32.0,-284.0,0.975569,0.035366,0.216888,15390.0,402.0,3192.0,24.0,-7.0,3.0
1.0,-3.0,2.0,0.0,7779.0,302.0,-238.0,-405.0,-23.0,-149.0,153.0,10.0,-403.0,0.999139,0.039673,-0.010783,15372.0,386.0,-538.0,-58.0,58.0,5.0,,,,,,,,
2883.0,2769.0,2835.0,3151.0,3039.0,0.702942,0.05365,-0.70874,0.02533,-2.0,2.0,0.0,7789.0,277.0,-231.0,-395.0,-46.0,-145.0,151.0,-13.0,-394.0,0.999124,0.039521,-0.010422,15732.0,482.0,-404.0,-34.0,52.0,9.0
2879.0,2762.0,2835.0,3143.0,3034.0,0.703491,0.053284,-0.708252,0.025208,-2.0,4.0,0.0,7893.0,321.0,-162.0,-292.0,0.0,-88.0,88.0,21.0,-290.0,0.999184,0.039263,-0.008925,16018.0,748.0,-146.0,-40.0,94.0,13.0
2879.0,2767.0,2834.0,3153.0,3039.0,0.703918,0.05304,-0.707825,0.025085,-3.0,4.0,0.0,7901.0,327.0,-129.0,-284.0,6.0,-65.0,64.0,24.0,-283.0,0.999163,0.039159,-0.007699,15814.0,670.0,-44.0,-46.0,110.0,18.0
2883.0,2768.0,2833.0,3147.0,3051.0,0.704834,0.052612,-0.70697,0.025024,-2.0,5.0,0.0,7922.0,332.0,-49.0,-263.0,14.0,-6.0,4.0,24.0,-262.0,0.999226,0.038783,-0.005158,15926.0,700.0,118.0,-28.0,115.0,21.0
2879.0,2763.0,2832.0,3151.0,3047.0,0.705322,0.052429,-0.706482,0.025024,-2.0,5.0,0.0,7916.0,341.0,-20.0,-269.0,24.0,10.0,-12.0,33.0,-267.0,0.999219,0.0386,-0.00376,15712.0,730.0,104.0,-28.0,120.0,21.0
2887.0,2767.0,2835.0,3151.0,3045.0,0.706116,0.051941,-0.70575,0.025024,-2.0,3.0,1.0,7857.0,342.0,-11.0,-329.0,30.0,1.0,-5.0,42.0,-327.0,0.999281,0.038031,-0.001555,15560.0,834.0,18.0,-37.0,83.0,34.0
2879.0,2763.0,2832.0,3154.0,3029.0,0.70636,0.051636,-0.705505,0.024902,-3.0,2.0,1.0,7841.0,361.0,-2.0,-344.0,51.0,4.0,-10.0,63.0,-341.0,0.999253,0.037809,-0.00084,15616.0,764.0,78.0,-62.0,65.0,29.0
2879.0,2766.0,2832.0,3151.0,3047.0,0.706909,0.050903,-0.705078,0.024597,-3.0,2.0,0.0,7897.0,318.0,13.0,-289.0,12.0,8.0,-10.0,21.0,-288.0,0.999357,0.037282,0.000599,16026.0,550.0,22.0,-63.0,66.0,16.0
2887.0,2767.0,2833.0,3151.0,3047.0,0.707214,0.050659,-0.704773,0.024475,-3.0,3.0,0.0,7926.0,292.0,13.0,-260.0,-12.0,0.0,0.0,-2.0,-260.0,0.999331,0.037155,0.00148,15946.0,418.0,32.0,-53.0,87.0,7.0
2871.0,2766.0,2837.0,3151.0,3043.0,0.707581,0.050476,-0.704407,0.024353,-2.0,4.0,-1.0,7922.0,256.0,4.0,-264.0,-48.0,-16.0,19.0,-36.0,-265.0,0.999308,0.037123,0.002527,15798.0,318.0,-10.0,-32.0,102.0,-10.0
2879.0,2768.0,2839.0,3151.0,3043.0,0.708374,0.050659,-0.703613,0.024292,1.0,4.0,-3.0,7891.0,180.0,-6.0,-295.0,-127.0,-44.0,54.0,-110.0,-299.0,0.999304,0.037587,0.004746,15790.0,206.0,-36.0,35.0,112.0,-48.0
2877.0,2767.0,2837.0,3151.0,3039.0,0.708801,0.051025,-0.703186,0.024414,2.0,5.0,-3.0,7877.0,178.0,-6.0,-309.0,-133.0,-54.0,64.0,-114.0,-314.0,0.99933,0.037998,0.005921,15598.0,410.0,2.0,68.0,119.0,-59.0
2879.0,2767.0,2831.0,3147.0,3039.0,0.709473,0.052002,-0.702393,0.024597,2.0,3.0,-3.0,7803.0,274.0,41.0,-382.0,-47.0,-23.0,23.0,-29.0,-383.0,0.999215,0.039234,0.007897,15546.0,944.0,336.0,66.0,74.0,-58.0
2883.0,2768.0,2833.0,3147.0,3043.0,0.709717,0.052429,-0.702087,0.024536,1.0,2.0,-2.0,7826.0,343.0,88.0,-358.0,15.0,17.0,-23.0,26.0,-356.0,0.999139,0.039967,0.008624,15838.0,1120.0,492.0,38.0,52.0,-43.0
2879.0,2767.0,2833.0,3151.0,3047.0,0.710205,0.052612,-0.701599,0.024231,-1.0,1.0,-1.0,7876.0,395.0,144.0,-308.0,61.0,62.0,-72.0,65.0,-304.0,0.999108,0.04073,0.009969,15730.0,770.0,360.0,-21.0,42.0,-13.0
2883.0,2765.0,2823.0,3157.0,3029.0,0.710327,0.052612,-0.701477,0.024109,-1.0,0.0,-1.0,7882.0,384.0,157.0,-302.0,48.0,72.0,-81.0,51.0,-299.0,0.999093,0.04092,0.010308,15836.0,684.0,384.0,-15.0,16.0,-15.0
2883.0,2767.0,2833.0,3151.0,3047.0,0.71051,0.052612,-0.701294,0.023926,-1.0,1.0,0.0,7952.0,403.0,177.0,-232.0,65.0,88.0,-98.0,64.0,-228.0,0.999071,0.041205,0.010816,16012.0,888.0,320.0,-13.0,23.0,0.0
2881.0,2742.0,2832.0,3147.0,3043.0,0.710632,0.052612,-0.701172,0.023865,-1.0,1.0,0.0,7944.0,405.0,157.0,-240.0,66.0,65.0,-75.0,68.0,-236.0,0.999062,0.041309,0.011158,15770.0,812.0,142.0,-19.0,38.0,3.0
2879.0,2767.0,2825.0,3147.0,3039.0,0.710815,0.05249,-0.700989,0.023743,-2.0,1.0,0.0,7916.0,391.0,121.0,-268.0,52.0,25.0,-34.0,59.0,-265.0,0.99904,0.041335,0.011682,15660.0,666.0,2.0,-25.0,42.0,2.0
2875.0,2766.0,2833.0,3151.0,3035.0,0.710999,0.052246,-0.700867,0.023621,-2.0,1.0,0.0,7826.0,325.0,38.0,-358.0,-12.0,-61.0,56.0,8.0,-358.0,0.999099,0.041184,0.012133,15438.0,394.0,-86.0,-27.0,27.0,7.0
2875.0,2766.0,2833.0,3147.0,3039.0,0.71106,0.052124,-0.700806,0.023621,-1.0,0.0,0.0,7811.0,292.0,20.0,-373.0,-44.0,-80.0,78.0,-20.0,-375.0,0.999092,0.04102,0.012318,15582.0,414.0,-66.0,-6.0,20.0,8.0
2882.0,2768.0,2839.0,3151.0,3039.0,0.711243,0.052124,-0.700623,0.023804,0.0,2.0,0.0,7854.0,326.0,35.0,-330.0,-8.0,-70.0,64.0,12.0,-330.0,0.999107,0.040791,0.012844,15806.0,926.0,198.0,10.0,49.0,5.0
2887.0,2768.0,2835.0,3149.0,3039.0,0.711487,0.052124,-0.700378,0.023804,-1.0,2.0,0.0,7865.0,336.0,56.0,-319.0,1.0,-54.0,47.0,19.0,-319.0,0.999102,0.040828,0.013533,15786.0,682.0,196.0,-13.0,59.0,3.0
2879.0,2767.0,2832.0,3151.0,3043.0,0.71167,0.052002,-0.700195,0.023743,-1.0,2.0,0.0,7878.0,324.0,84.0,-306.0,-9.0,-31.0,26.0,6.0,-306.0,0.999085,0.040767,0.01406,15896.0,536.0,372.0,-13.0,54.0,4.0
2887.0,2771.0,2833.0,3141.0,3039.0,0.712219,0.052002,-0.699646,0.023865,0.0,3.0,-1.0,7914.0,338.0,139.0,-270.0,4.0,11.0,-16.0,13.0,-269.0,0.999085,0.04068,0.015617,15782.0,818.0,346.0,15.0,70.0,-3.0
2905.0,2765.0,2835.0,3147.0,3039.0,0.712463,0.052124,-0.699402,0.023804,0.0,2.0,-1.0,7911.0,369.0,158.0,-273.0,33.0,24.0,-33.0,40.0,-271.0,0.999078,0.040976,0.016291,15860.0,928.0,458.0,5.0,58.0,-8.0
2882.0,2766.0,2837.0,3150.0,3039.0,0.712708,0.052124,-0.699097,0.023804,-1.0,2.0,0.0,7924.0,386.0,169.0,-259.0,49.0,29.0,-39.0,55.0,-256.0,0.998984,0.041016,0.017066,15900.0,844.0,356.0,-11.0,62.0,1.0
2881.0,2767.0,2833.0,3151.0,3043.0,0.713196,0.051941,-0.698669,0.023682,-1.0,2.0,0.0,7878.0,364.0,133.0,-306.0,28.0,-17.0,6.0,41.0,-304.0,0.999036,0.040997,0.018372,15460.0,608.0,132.0,-15.0,59.0,10.0
2883.0,2763.0,2832.0,3147.0,3039.0,0.713318,0.05188,-0.698486,0.023743,-1.0,1.0,0.0,7834.0,348.0,121.0,-349.0,13.0,-33.0,23.0,29.0,-348.0,0.998949,0.040846,0.018811,15450.0,648.0,128.0,-4.0,42.0,8.0
2882.0,2767.0,2835.0,3149.0,3043.0,0.71344,0.05188,-0.698425,0.023804,0.0,1.0,0.0,7828.0,350.0,113.0,-356.0,15.0,-43.0,32.0,33.0,-355.0,0.999039,0.040776,0.019074,15652.0,730.0,206.0,3.0,32.0,8.0
2883.0,2767.0,2832.0,3147.0,3043.0,0.713745,0.051819,-0.698059,0.023865,0.0,2.0,0.0,7870.0,344.0,133.0,-313.0,10.0,-31.0,22.0,25.0,-312.0,0.998946,0.040653,0.02003,15790.0,632.0,292.0,3.0,53.0,8.0
2883.0,2768.0,2832.0,3149.0,3043.0,0.713989,0.051819,-0.697876,0.023926,0.0,2.0,-1.0,7867.0,330.0,140.0,-317.0,-2.0,-29.0,21.0,13.0,-317.0,0.999032,0.040602,0.020637,15692.0,546.0,262.0,9.0,57.0,-2.0
2879.0,2767.0,2832.0,3149.0,3047.0,0.714111,0.051941,-0.697693,0.023987,1.0,1.0,-1.0,7851.0,304.0,150.0,-332.0,-29.0,-22.0,16.0,-13.0,-333.0,0.998953,0.040712,0.021057,15616.0,448.0,394.0,25.0,42.0,-12.0
2885.0,2768.0,2832.0,3151.0,3039.0,0.714355,0.052551,-0.697388,0.024048,2.0,0.0,-3.0,7861.0,332.0,200.0,-321.0,-8.0,21.0,-28.0,2.0,-320.0,0.998893,0.041539,0.021771,15880.0,610.0,542.0,48.0,22.0,-49.0
2882.0,2769.0,2838.0,3153.0,3039.0,0.714478,0.052979,-0.697205,0.024109,3.0,1.0,-3.0,7867.0,302.0,221.0,-315.0,-42.0,39.0,-42.0,-33.0,-315.0,0.998829,0.042086,0.022158,15712.0,438.0,526.0,79.0,26.0,-63.0
2879.0,2763.0,2832.0,3151.0,3037.0,0.7146,0.054382,-0.69696,0.024353,4.0,0.0,-4.0,7931.0,358.0,265.0,-250.0,0.0,80.0,-86.0,1.0,-247.0,0.998744,0.043777,0.022534,16238.0,884.0,670.0,110.0,17.0,-85.0
2885.0,2769.0,2834.0,3147.0,3047.0,0.714783,0.055054,-0.696716,0.024414,3.0,1.0,-3.0,7971.0,406.0,271.0,-210.0,39.0,82.0,-91.0,38.0,-206.0,0.99869,0.044684,0.023066,16146.0,1180.0,568.0,89.0,42.0,-62.0
2880.0,2767.0,2835.0,3143.0,3039.0,0.715271,0.055481,-0.696228,0.024353,0.0,3.0,0.0,7951.0,423.0,189.0,-230.0,50.0,-10.0,-2.0,60.0,-227.0,0.998686,0.045457,0.024394,15604.0,654.0,28.0,1.0,87.0,2.0
2881.0,2767.0,2832.0,3152.0,3039.0,0.715515,0.055481,-0.695923,0.024414,0.0,3.0,0.0,7815.0,385.0,112.0,-365.0,12.0,-94.0,81.0,38.0,-366.0,0.998596,0.045414,0.025171,14690.0,538.0,-258.0,2.0,82.0,3.0
2883.0,2768.0,2845.0,3151.0,3031.0,0.715576,0.055542,-0.695923,0.024475,0.0,0.0,-1.0,7711.0,335.0,71.0,-470.0,-37.0,-135.0,124.0,-1.0,-474.0,0.99869,0.045423,0.025255,14998.0,324.0,0.0,17.0,16.0,-9.0
2881.0,2767.0,2839.0,3152.0,3039.0,0.715393,0.055908,-0.696045,0.024963,3.0,0.0,-1.0,7801.0,315.0,113.0,-380.0,-55.0,-90.0,84.0,-28.0,-384.0,0.998683,0.045241,0.024806,15980.0,866.0,450.0,81.0,3.0,-3.0
2883.0,2763.0,2837.0,3149.0,3035.0,0.715454,0.056274,-0.695984,0.025208,2.0,0.0,-1.0,7829.0,344.0,146.0,-352.0,-28.0,-58.0,50.0,-6.0,-354.0,0.998726,0.045435,0.02495,15816.0,792.0,480.0,67.0,9.0,-1.0
2875.0,2765.0,2835.0,3147.0,3047.0,0.480713,0.022095,0.011658,-1.21228,25161.0,24709.0,10465.0,-20679.0,11982.0,17434.0,-20148.0,12039.0,3506.0,-26700.0,8383.0,7181.0,-0.064778,-0.007022,1.700084,16518.0,1102.0,808.0,50.0,29.0,3.0
2885.0,2768.0,2831.0,3153.0,3039.0,0.715881,0.056885,-0.695435,0.025757,1.0,3.0,0.0,8028.0,432.0,274.0,-152.0,58.0,58.0,-69.0,57.0,-147.0,0.998628,0.045621,0.026284,16308.0,976.0,690.0,31.0,76.0,4.0
2887.0,2767.0,2834.0,3154.0,3046.0,0.716614,0.056885,-0.694641,0.02594,-1.0,4.0,0.0,7941.0,435.0,246.0,-238.0,62.0,12.0,-27.0,70.0,-234.0,0.99853,0.045491,0.028446,15390.0,902.0,372.0,-1.0,101.0,21.0
2871.0,2759.0,2833.0,3155.0,3031.0,0.716919,0.056763,-0.694336,0.026001,-1.0,3.0,0.0,7825.0,425.0,212.0,-354.0,54.0,-28.0,9.0,71.0,-351.0,0.998517,0.045282,0.029324,14954.0,728.0,176.0,-11.0,73.0,17.0
2863.0,2759.0,2835.0,3139.0,3045.0,0.717041,0.056702,-0.694275,0.026123,0.0,0.0,0.0,7774.0,365.0,201.0,-406.0,-3.0,-41.0,26.0,18.0,-406.0,0.99861,0.045042,0.029598,15602.0,738.0,444.0,20.0,9.0,9.0
2883.0,2767.0,2837.0,3150.0,3039.0,0.717041,0.056763,-0.694214,0.026184,0.0,-1.0,0.0,7808.0,376.0,228.0,-371.0,6.0,-15.0,1.0,23.0,-370.0,0.998532,0.045048,0.029679,15874.0,794.0,628.0,12.0,0.0,5.0
2878.0,2763.0,2832.0,3151.0,3043.0,0.717041,0.056763,-0.694214,0.026245,0.0,0.0,0.0,7845.0,362.0,253.0,-335.0,-6.0,9.0,-19.0,6.0,-334.0,0.998539,0.044963,0.029682,15906.0,608.0,690.0,12.0,3.0,8.0
2883.0,2759.0,2831.0,3143.0,3035.0,0.717163,0.056885,-0.694031,0.026489,0.0,0.0,0.0,7931.0,380.0,306.0,-248.0,12.0,59.0,-68.0,15.0,-245.0,0.99848,0.044823,0.03011,16170.0,890.0,706.0,21.0,14.0,6.0
2883.0,2768.0,2835.0,3151.0,3047.0,0.717346,0.056946,-0.693909,0.02655,0.0,1.0,0.0,7970.0,395.0,312.0,-210.0,27.0,61.0,-71.0,28.0,-206.0,0.998569,0.044853,0.030538,16150.0,880.0,644.0,13.0,39.0,4.0
2879.0,2758.0,2834.0,3143.0,3031.0,0.71759,0.056946,-0.693665,0.02655,-1.0,2.0,0.0,7991.0,409.0,297.0,-189.0,41.0,41.0,-52.0,43.0,-185.0,0.998558,0.044894,0.031227,16076.0,876.0,472.0,-6.0,65.0,4.0
2881.0,2761.0,2832.0,3147.0,3039.0,0.71814,0.056641,-0.693054,0.026489,-2.0,3.0,0.0,7868.0,365.0,197.0,-311.0,0.0,-72.0,59.0,21.0,-312.0,0.99842,0.044635,0.032894,14956.0,588.0,106.0,-28.0,91.0,11.0
2879.0,2767.0,2836.0,3151.0,3039.0,0.718323,0.05658,-0.692932,0.026489,-1.0,1.0,-1.0,7758.0,327.0,173.0,-421.0,-38.0,-100.0,87.0,-8.0,-425.0,0.998495,0.044574,0.033333,14988.0,406.0,266.0,-12.0,43.0,-3.0
2886.0,2768.0,2837.0,3151.0,3047.0,0.718323,0.056763,-0.692871,0.026428,0.0,-1.0,-2.0,7764.0,341.0,237.0,-414.0,-27.0,-36.0,22.0,-5.0,-415.0,0.99841,0.044925,0.033394,15886.0,834.0,832.0,16.0,-10.0,-24.0
2875.0,2766.0,2828.0,3143.0,3035.0,0.718384,0.056885,-0.69281,0.026428,0.0,0.0,-1.0,7841.0,357.0,291.0,-338.0,-12.0,16.0,-27.0,0.0,-337.0,0.998414,0.045111,0.033552,16134.0,822.0,870.0,10.0,3.0,-15.0
2879.0,2761.0,2831.0,3147.0,3039.0,0.718628,0.057007,-0.692566,0.026428,0.0,1.0,-1.0,7917.0,390.0,353.0,-261.0,18.0,72.0,-83.0,20.0,-257.0,0.998408,0.045327,0.034227,15950.0,912.0,828.0,5.0,24.0,-5.0
2885.0,2768.0,2831.0,3151.0,3053.0,0.71875,0.057068,-0.692383,0.026367,0.0,1.0,-1.0,7922.0,405.0,361.0,-256.0,32.0,77.0,-90.0,33.0,-251.0,0.99831,0.045523,0.034646,15826.0,890.0,728.0,3.0,30.0,-4.0
2879.0,2763.0,2835.0,3141.0,3039.0,0.718933,0.057129,-0.692261,0.026367,0.0,1.0,-1.0,7886.0,400.0,338.0,-292.0,26.0,50.0,-64.0,31.0,-288.0,0.998391,0.045638,0.035071,15472.0,734.0,446.0,3.0,30.0,-5.0
2879.0,2743.0,2831.0,3142.0,3035.0,0.718811,0.057312,-0.692322,0.026428,1.0,-2.0,-1.0,7783.0,355.0,275.0,-395.0,-20.0,-10.0,-3.0,-2.0,-395.0,0.998326,0.045799,0.034794,15274.0,554.0,398.0,36.0,-26.0,-16.0
2881.0,2767.0,2835.0,3147.0,3039.0,0.718567,0.057617,-0.692505,0.02655,2.0,-3.0,-2.0,7761.0,324.0,253.0,-416.0,-53.0,-26.0,15.0,-32.0,-418.0,0.998282,0.046031,0.034161,15480.0,504.0,432.0,68.0,-57.0,-29.0
2885.0,2767.0,2834.0,3143.0,3054.0,0.718079,0.058777,-0.692932,0.0271,5.0,-2.0,-3.0,7872.0,302.0,232.0,-306.0,-81.0,-36.0,33.0,-62.0,-310.0,0.998345,0.046856,0.032762,16248.0,494.0,404.0,136.0,-41.0,-54.0
2883.0,2763.0,2830.0,3151.0,3039.0,0.718018,0.05957,-0.692932,0.027466,6.0,0.0,-3.0,7945.0,320.0,212.0,-233.0,-68.0,-55.0,53.0,-50.0,-237.0,0.998347,0.047481,0.0326,16234.0,830.0,256.0,157.0,12.0,-58.0
2879.0,2767.0,2835.0,3149.0,3035.0,0.718445,0.06134,-0.692322,0.027954,6.0,5.0,-5.0,7970.0,355.0,137.0,-207.0,-49.0,-140.0,136.0,-21.0,-213.0,0.998219,0.049433,0.033872,15748.0,872.0,28.0,145.0,118.0,-98.0
2883.0,2766.0,2831.0,3151.0,3045.0,0.718811,0.062195,-0.691833,0.028076,5.0,6.0,-5.0,7906.0,374.0,111.0,-270.0,-40.0,-175.0,167.0,-4.0,-277.0,0.998087,0.050565,0.034976,15342.0,828.0,56.0,121.0,144.0,-99.0
2882.0,2763.0,2832.0,3147.0,3043.0,0.719604,0.063538,-0.690918,0.028198,3.0,4.0,-4.0,7795.0,410.0,162.0,-380.0,-19.0,-142.0,126.0,17.0,-385.0,0.997959,0.052479,0.037221,15362.0,1034.0,646.0,83.0,108.0,-72.0
2879.0,2779.0,2831.0,3150.0,3039.0,0.71991,0.064026,-0.690552,0.028198,3.0,3.0,-3.0,7771.0,436.0,228.0,-403.0,0.0,-84.0,65.0,30.0,-405.0,0.997881,0.053241,0.038104,15456.0,1000.0,880.0,70.0,76.0,-58.0
2879.0,2763.0,2831.0,3141.0,3039.0,0.720337,0.065002,-0.690002,0.028442,3.0,1.0,-2.0,7863.0,501.0,407.0,-310.0,55.0,84.0,-104.0,58.0,-303.0,0.997766,0.054397,0.039366,16180.0,1310.0,1326.0,80.0,31.0,-31.0
2883.0,2767.0,2835.0,3152.0,3050.0,0.720581,0.065369,-0.689697,0.028564,2.0,1.0,-1.0,7918.0,553.0,466.0,-255.0,104.0,137.0,-161.0,97.0,-243.0,0.9977,0.054805,0.040098,16068.0,1424.0,1222.0,67.0,40.0,-18.0
2886.0,2767.0,2835.0,3151.0,3050.0,0.720825,0.065857,-0.689331,0.028748,1.0,0.0,0.0,7900.0,555.0,470.0,-272.0,101.0,134.0,-159.0,95.0,-260.0,0.997561,0.05531,0.040901,15754.0,942.0,816.0,31.0,3.0,7.0
2881.0,2761.0,2831.0,3147.0,3039.0,0.720825,0.065918,-0.689331,0.02887,1.0,-1.0,0.0,7913.0,532.0,443.0,-259.0,79.0,107.0,-128.0,76.0,-249.0,0.99758,0.055229,0.0409,15946.0,980.0,754.0,33.0,-2.0,17.0
2886.0,2767.0,2836.0,3147.0,3039.0,0.720947,0.065979,-0.689209,0.028992,-1.0,1.0,0.0,7866.0,532.0,358.0,-306.0,80.0,20.0,-45.0,91.0,-300.0,0.997592,0.055172,0.041243,15460.0,846.0,446.0,-12.0,27.0,6.0
2884.0,2768.0,2835.0,3151.0,3039.0,0.721008,0.065918,-0.689148,0.028992,-1.0,1.0,0.0,7829.0,463.0,305.0,-343.0,11.0,-34.0,15.0,32.0,-342.0,0.997585,0.055096,0.041423,15466.0,498.0,350.0,-6.0,24.0,0.0
2883.0,2768.0,2836.0,3151.0,3046.0,0.72113,0.066101,-0.689026,0.029114,1.0,1.0,-1.0,7819.0,452.0,275.0,-353.0,0.0,-67.0,49.0,26.0,-354.0,0.997604,0.055215,0.041751,15648.0,1058.0,580.0,28.0,33.0,-21.0
2879.0,2763.0,2833.0,3143.0,3043.0,0.721252,0.066284,-0.688904,0.029114,0.0,1.0,-2.0,7837.0,442.0,289.0,-335.0,-12.0,-55.0,39.0,12.0,-337.0,0.997607,0.055502,0.042071,15846.0,786.0,672.0,21.0,34.0,-27.0
2883.0,2769.0,2835.0,3153.0,3039.0,0.721375,0.066467,-0.688721,0.029114,1.0,1.0,-1.0,7878.0,452.0,321.0,-293.0,-5.0,-26.0,11.0,13.0,-293.0,0.997521,0.055793,0.042475,16060.0,998.0,878.0,25.0,43.0,-21.0
2883.0,2768.0,2837.0,3153.0,3043.0,0.721863,0.06665,-0.688171,0.029175,0.0,2.0,-1.0,7890.0,484.0,369.0,-280.0,24.0,9.0,-26.0,36.0,-277.0,0.99742,0.05607,0.043915,15598.0,1050.0,858.0,7.0,63.0,-2.0
2879.0,2765.0,2833.0,3287.0,3047.0,0.722107,0.066711,-0.687988,0.029175,0.0,1.0,0.0,7871.0,477.0,385.0,-300.0,16.0,20.0,-37.0,27.0,-297.0,0.997495,0.056202,0.044511,15664.0,898.0,852.0,5.0,40.0,0.0
2879.0,2767.0,2832.0,3151.0,3039.0,0.722351,0.066833,-0.687622,0.029358,1.0,1.0,-1.0,7868.0,478.0,410.0,-302.0,17.0,38.0,-55.0,26.0,-298.0,0.997333,0.05618,0.045362,15704.0,996.0,856.0,24.0,32.0,-3.0
2882.0,2768.0,2836.0,3151.0,3039.0,0.722473,0.066956,-0.687561,0.029358,0.0,0.0,-1.0,7833.0,480.0,396.0,-337.0,18.0,22.0,-42.0,31.0,-334.0,0.99742,0.056376,0.045606,15426.0,938.0,694.0,13.0,20.0,-1.0
2881.0,2771.0,2833.0,3151.0,3039.0,0.722473,0.067017,-0.6875,0.029419,0.0,-1.0,0.0,7805.0,482.0,395.0,-365.0,20.0,20.0,-41.0,35.0,-361.0,0.997344,0.056384,0.045685,15484.0,976.0,742.0,9.0,-1.0,2.0
2881.0,2767.0,2835.0,3147.0,3039.0,0.722412,0.066956,-0.687622,0.029419,-1.0,-1.0,0.0,7838.0,472.0,387.0,-332.0,10.0,14.0,-32.0,24.0,-329.0,0.997433,0.056281,0.045438,15900.0,882.0,702.0,-3.0,-16.0,9.0
2883.0,2767.0,2835.0,3152.0,3043.0,0.722412,0.066956,-0.687622,0.02948,0.0,0.0,0.0,7880.0,458.0,379.0,-291.0,-2.0,6.0,-20.0,11.0,-290.0,0.997441,0.056197,0.045441,16024.0,848.0,672.0,5.0,7.0,6.0
2881.0,2763.0,2832.0,3143.0,3037.0,0.722473,0.067017,-0.6875,0.029541,0.0,1.0,-1.0,7916.0,455.0,360.0,-254.0,-5.0,-14.0,1.0,9.0,-254.0,0.99736,0.056216,0.045693,16040.0,928.0,618.0,14.0,37.0,-3.0
2883.0,2765.0,2833.0,3152.0,3039.0,0.723022,0.0672,-0.68689,0.029419,-1.0,4.0,-2.0,7928.0,486.0,347.0,-241.0,21.0,-40.0,23.0,38.0,-241.0,0.997227,0.056759,0.047294,15858.0,928.0,682.0,-6.0,97.0,-23.0
2883.0,2766.0,2835.0,3151.0,3039.0,0.723389,0.067261,-0.686523,0.029358,-1.0,4.0,-1.0,7888.0,483.0,332.0,-281.0,16.0,-63.0,44.0,38.0,-282.0,0.997196,0.057002,0.048315,15468.0,962.0,606.0,-6.0,107.0,-17.0
2883.0,2766.0,2837.0,3151.0,3046.0,0.723877,0.067261,-0.686035,0.029297,-1.0,0.0,0.0,7714.0,488.0,352.0,-454.0,19.0,-55.0,25.0,49.0,-454.0,0.997151,0.05718,0.049688,15072.0,1000.0,930.0,-7.0,22.0,3.0
2881.0,2763.0,2833.0,3147.0,3039.0,0.723816,0.067261,-0.686035,0.029297,0.0,-2.0,0.0,7740.0,489.0,402.0,-427.0,20.0,-4.0,-23.0,41.0,-424.0,0.997067,0.057171,0.0496,15810.0,1000.0,1114.0,2.0,-26.0,6.0
2883.0,2767.0,2837.0,3151.0,3045.0,0.723816,0.067261,-0.686096,0.029358,0.0,-2.0,0.0,7825.0,503.0,472.0,-343.0,35.0,66.0,-89.0,42.0,-336.0,0.997164,0.057084,0.049519,16166.0,1162.0,1328.0,14.0,-24.0,10.0
2883.0,2771.0,2839.0,3151.0,3045.0,0.723877,0.0672,-0.685974,0.029297,-1.0,-1.0,0.0,7908.0,530.0,512.0,-259.0,62.0,104.0,-126.0,59.0,-249.0,0.997059,0.057095,0.04978,15918.0,954.0,948.0,-21.0,-2.0,17.0
2882.0,2766.0,2833.0,3147.0,3039.0,0.723938,0.067017,-0.685974,0.029297,-1.0,0.0,0.0,7917.0,507.0,493.0,-251.0,41.0,84.0,-102.0,41.0,-243.0,0.997132,0.056838,0.049893,15846.0,868.0,848.0,-20.0,4.0,21.0
2879.0,2763.0,2833.0,3127.0,3043.0,0.723999,0.066711,-0.685913,0.029358,-1.0,0.0,0.0,7876.0,458.0,421.0,-292.0,-3.0,10.0,-26.0,9.0,-290.0,0.997118,0.056324,0.050109,15576.0,746.0,630.0,-18.0,18.0,17.0
2879.0,2768.0,2835.0,3152.0,3043.0,0.72406,0.066589,-0.685913,0.029358,-1.0,0.0,0.0,7828.0,431.0,364.0,-341.0,-29.0,-47.0,30.0,-5.0,-344.0,0.997194,0.056155,0.050214,15376.0,706.0,400.0,-9.0,16.0,10.0
2883.0,2768.0,2838.0,3152.0,3043.0,0.723999,0.06665,-0.685913,0.029419,0.0,0.0,-1.0,7821.0,405.0,329.0,-347.0,-54.0,-81.0,67.0,-25.0,-353.0,0.997122,0.056152,0.050121,15774.0,790.0,658.0,11.0,10.0,-10.0
2883.0,2767.0,2833.0,3149.0,3039.0,0.72406,0.066711,-0.685852,0.02948,0.0,1.0,-1.0,7819.0,405.0,331.0,-349.0,-55.0,-80.0,66.0,-26.0,-355.0,0.997129,0.056168,0.050289,15534.0,788.0,662.0,17.0,28.0,-14.0
2883.0,2767.0,2831.0,3151.0,3039.0,0.724121,0.067078,-0.68573,0.029541,2.0,0.0,-2.0,7833.0,391.0,371.0,-334.0,-72.0,-42.0,31.0,-49.0,-339.0,0.997066,0.05663,0.050499,15904.0,744.0,940.0,48.0,9.0,-31.0
2886.0,2769.0,2834.0,3151.0,3043.0,0.724243,0.067444,-0.685608,0.029663,3.0,0.0,-2.0,7870.0,389.0,405.0,-298.0,-78.0,-11.0,4.0,-60.0,-302.0,0.997095,0.057017,0.050801,15934.0,776.0,994.0,73.0,22.0,-36.0
2885.0,2768.0,2838.0,3151.0,3047.0,0.724426,0.068604,-0.685242,0.030334,7.0,1.0,-3.0,7924.0,322.0,438.0,-243.0,-151.0,16.0,-9.0,-139.0,-250.0,0.996976,0.057823,0.051451,15966.0,516.0,952.0,162.0,43.0,-57.0
2881.0,2765.0,2832.0,3089.0,3043.0,0.724609,0.069458,-0.684998,0.030884,8.0,2.0,-3.0,7921.0,347.0,439.0,-246.0,-130.0,13.0,-9.0,-117.0,-252.0,0.997002,0.058349,0.051966,15810.0,958.0,896.0,193.0,52.0,-53.0
2881.0,2763.0,2834.0,3146.0,3042.0,0.724915,0.071045,-0.684448,0.031738,5.0,1.0,-1.0,7885.0,493.0,447.0,-281.0,5.0,12.0,-29.0,17.0,-279.0,0.996843,0.059557,0.052992,15508.0,1234.0,752.0,120.0,43.0,-10.0
2885.0,2769.0,2835.0,3152.0,3047.0,0.724976,0.07135,-0.684326,0.032104,3.0,1.0,1.0,7837.0,525.0,413.0,-328.0,37.0,-23.0,-2.0,56.0,-325.0,0.996821,0.059514,0.053227,15368.0,1294.0,598.0,80.0,26.0,28.0
2883.0,2761.0,2834.0,3151.0,3038.0,0.724915,0.071411,-0.684326,0.032349,1.0,0.0,2.0,7824.0,570.0,400.0,-341.0,84.0,-35.0,1.0,105.0,-336.0,0.996776,0.05926,0.053146,15650.0,1374.0,772.0,34.0,10.0,46.0
2882.0,2767.0,2832.0,3150.0,3038.0,0.725098,0.071167,-0.684204,0.032654,-1.0,1.0,2.0,7852.0,532.0,368.0,-314.0,52.0,-71.0,43.0,77.0,-313.0,0.996877,0.058522,0.053633,15672.0,816.0,606.0,-6.0,43.0,48.0
2883.0,2767.0,2835.0,3151.0,3039.0,0.72522,0.070984,-0.684082,0.032898,0.0,2.0,1.0,7840.0,517.0,361.0,-326.0,42.0,-81.0,53.0,69.0,-326.0,0.99689,0.057948,0.054019,15620.0,1028.0,726.0,14.0,46.0,45.0
2883.0,2769.0,2835.0,3151.0,3039.0,0.725525,0.070984,-0.683716,0.033142,0.0,1.0,0.0,7803.0,566.0,398.0,-362.0,93.0,-52.0,15.0,117.0,-358.0,0.996811,0.057682,0.054979,15518.0,1212.0,944.0,7.0,37.0,15.0
2881.0,2765.0,2835.0,3149.0,3043.0,0.725586,0.070984,-0.683594,0.033142,0.0,0.0,0.0,7813.0,564.0,436.0,-352.0,91.0,-16.0,-19.0,109.0,-346.0,0.996717,0.057698,0.055234,15722.0,1078.0,1138.0,2.0,21.0,10.0
2882.0,2767.0,2835.0,3151.0,3039.0,0.033203,0.0,0.0,0.0,7827.0,564.0,488.0,-19862.0,-6663.0,-6083.0,-19862.0,-6663.0,-6092.0,-21.0,-7.0,-6.0,0.0,0.0,0.001102,15668.0,1272.0,1276.0,-13.0,-4.0,32.0
2885.0,2767.0,2835.0,3152.0,3039.0,0.72583,0.070679,-0.683472,0.033264,-2.0,-1.0,2.0,7830.0,591.0,556.0,-336.0,122.0,98.0,-135.0,122.0,-322.0,0.996871,0.057131,0.055807,15652.0,1240.0,1242.0,-23.0,-21.0,46.0
2885.0,2768.0,2833.0,3153.0,3042.0,0.725708,0.070251,-0.683594,0.033386,-1.0,-2.0,2.0,7885.0,589.0,584.0,-281.0,127.0,129.0,-163.0,119.0,-265.0,0.99687,0.056319,0.055531,16060.0,1174.0,1130.0,-16.0,-28.0,48.0
2881.0,2765.0,2835.0,3147.0,3039.0,0.725708,0.070129,-0.683594,0.033447,-1.0,-1.0,1.0,7917.0,585.0,565.0,-249.0,125.0,109.0,-141.0,119.0,-235.0,0.99687,0.056058,0.055552,15986.0,1136.0,978.0,-13.0,-4.0,41.0
2883.0,2768.0,2835.0,3151.0,3039.0,0.72583,0.069763,-0.683472,0.033508,-2.0,1.0,1.0,7898.0,540.0,448.0,-268.0,85.0,-10.0,-19.0,97.0,-262.0,0.996844,0.055468,0.055952,15566.0,866.0,492.0,-31.0,37.0,29.0
2883.0,2768.0,2838.0,3151.0,3047.0,0.725952,0.069519,-0.683411,0.033447,-2.0,1.0,0.0,7845.0,509.0,393.0,-321.0,56.0,-67.0,37.0,80.0,-320.0,0.996897,0.055219,0.056242,15342.0,838.0,534.0,-36.0,42.0,17.0
2883.0,2766.0,2834.0,3151.0,3039.0,0.726013,0.069336,-0.68335,0.033386,-2.0,1.0,0.0,7784.0,465.0,345.0,-382.0,14.0,-117.0,89.0,48.0,-386.0,0.996871,0.055049,0.056436,15244.0,624.0,410.0,-41.0,27.0,3.0
2881.0,2766.0,2833.0,3147.0,3043.0,0.726074,0.069092,-0.68335,0.033325,-1.0,0.0,-1.0,7815.0,394.0,370.0,-351.0,-54.0,-93.0,77.0,-23.0,-358.0,0.99693,0.054786,0.056554,15816.0,762.0,900.0,-2.0,18.0,-3.0
2882.0,2767.0,2833.0,3152.0,3035.0,0.726135,0.069153,-0.683228,0.033325,0.0,1.0,-1.0,7850.0,411.0,414.0,-316.0,-38.0,-51.0,35.0,-15.0,-319.0,0.99684,0.054891,0.056801,15902.0,912.0,1088.0,2.0,23.0,-8.0
2883.0,2759.0,2833.0,3167.0,3046.0,0.726501,0.069153,-0.682922,0.033203,-1.0,1.0,-1.0,7926.0,438.0,510.0,-240.0,-13.0,36.0,-49.0,-7.0,-237.0,0.99688,0.055129,0.057742,16052.0,994.0,1222.0,-10.0,42.0,-5.0
2881.0,2765.0,2835.0,3149.0,3043.0,0.726746,0.069092,-0.682617,0.033203,-1.0,2.0,-1.0,7938.0,454.0,542.0,-227.0,2.0,62.0,-76.0,3.0,-222.0,0.996766,0.055094,0.058522,15870.0,1018.0,1198.0,-12.0,58.0,-4.0
2879.0,2768.0,2837.0,3151.0,3047.0,0.727234,0.068909,-0.682129,0.033081,-1.0,1.0,0.0,7873.0,460.0,550.0,-291.0,8.0,59.0,-78.0,12.0,-286.0,0.996694,0.055094,0.059915,15382.0,884.0,1004.0,-22.0,45.0,12.0
2885.0,2767.0,2842.0,3153.0,3043.0,0.727295,0.068848,-0.682068,0.033081,-1.0,0.0,0.0,7803.0,450.0,533.0,-361.0,0.0,40.0,-63.0,10.0,-357.0,0.996684,0.055018,0.060096,15168.0,840.0,942.0,-11.0,14.0,9.0
2883.0,2767.0,2833.0,3151.0,3039.0,0.727112,0.068909,-0.682251,0.033142,1.0,-2.0,-1.0,7755.0,406.0,477.0,-410.0,-44.0,-11.0,-10.0,-23.0,-411.0,0.996713,0.054986,0.059575,15710.0,762.0,828.0,30.0,-43.0,-10.0
2885.0,2767.0,2833.0,3151.0,3039.0,0.726929,0.069153,-0.682373,0.033203,1.0,-2.0,-1.0,7813.0,423.0,462.0,-351.0,-29.0,-22.0,2.0,-9.0,-352.0,0.996665,0.055225,0.059113,16004.0,948.0,848.0,39.0,-25.0,-20.0
2891.0,2767.0,2836.0,3151.0,3046.0,0.727051,0.069641,-0.682251,0.033142,1.0,2.0,-3.0,7901.0,405.0,403.0,-263.0,-54.0,-83.0,72.0,-28.0,-270.0,0.996678,0.056043,0.059385,15992.0,578.0,598.0,28.0,53.0,-51.0
2885.0,2769.0,2832.0,3153.0,3039.0,0.727295,0.070007,-0.681946,0.033142,2.0,4.0,-4.0,7914.0,368.0,370.0,-250.0,-95.0,-122.0,117.0,-64.0,-261.0,0.996592,0.05663,0.060105,15856.0,552.0,542.0,50.0,95.0,-72.0
2881.0,2765.0,2839.0,3151.0,3043.0,0.728149,0.070923,-0.680969,0.032959,1.0,6.0,-4.0,7874.0,440.0,358.0,-288.0,-38.0,-154.0,137.0,0.0,-298.0,0.99637,0.058397,0.062539,15456.0,1216.0,712.0,30.0,151.0,-84.0
2883.0,2765.0,2837.0,3142.0,3043.0,0.728577,0.071228,-0.68042,0.032654,-1.0,5.0,-4.0,7809.0,462.0,380.0,-351.0,-24.0,-143.0,119.0,14.0,-360.0,0.996128,0.059354,0.063846,15222.0,994.0,948.0,-14.0,131.0,-69.0
2879.0,2766.0,2833.0,3151.0,3039.0,0.729248,0.071411,-0.679749,0.032288,0.0,2.0,-2.0,7755.0,433.0,486.0,-404.0,-60.0,-52.0,30.0,-31.0,-409.0,0.996022,0.060258,0.065688,15544.0,876.0,1382.0,4.0,57.0,-39.0
2885.0,2768.0,2842.0,3155.0,3035.0,0.729492,0.071594,-0.679504,0.032227,1.0,1.0,-2.0,7791.0,464.0,561.0,-368.0,-32.0,17.0,-39.0,-15.0,-367.0,0.996001,0.060659,0.066345,15846.0,1158.0,1586.0,26.0,33.0,-37.0
2883.0,2769.0,2834.0,3152.0,3043.0,0.729858,0.072021,-0.679016,0.032043,0.0,1.0,-1.0,7889.0,597.0,708.0,-268.0,92.0,155.0,-186.0,81.0,-250.0,0.995787,0.061615,0.06747,15946.0,1530.0,1720.0,3.0,26.0,-15.0
2879.0,2763.0,2837.0,3151.0,3046.0,0.730042,0.072083,-0.678833,0.031921,-1.0,0.0,0.0,7901.0,623.0,727.0,-256.0,115.0,170.0,-203.0,101.0,-236.0,0.995754,0.061908,0.067969,15866.0,1380.0,1510.0,-17.0,17.0,3.0
2878.0,2768.0,2827.0,3151.0,3043.0,0.730225,0.071838,-0.67865,0.031799,-2.0,0.0,0.0,7868.0,607.0,682.0,-288.0,101.0,120.0,-155.0,96.0,-272.0,0.995703,0.061755,0.068513,15546.0,996.0,1116.0,-25.0,5.0,14.0
2879.0,2763.0,2841.0,3183.0,3046.0,0.730225,0.071777,-0.67865,0.031799,-1.0,0.0,0.0,7845.0,577.0,629.0,-311.0,71.0,67.0,-100.0,76.0,-300.0,0.995699,0.061666,0.068521,15546.0,1006.0,938.0,-9.0,3.0,11.0
2877.0,2763.0,2835.0,3159.0,3039.0,0.730225,0.071777,-0.67865,0.031677,-1.0,0.0,-1.0,7796.0,582.0,538.0,-360.0,75.0,-23.0,-15.0,95.0,-355.0,0.995681,0.061832,0.068514,15542.0,1128.0,860.0,-15.0,9.0,-3.0
2883.0,2771.0,2837.0,3143.0,3041.0,0.730286,0.071716,-0.67865,0.031555,-2.0,0.0,0.0,7804.0,556.0,511.0,-353.0,48.0,-51.0,16.0,73.0,-352.0,0.995743,0.061917,0.068604,15674.0,900.0,920.0,-27.0,18.0,0.0
2885.0,2767.0,2831.0,3143.0,3043.0,0.730347,0.071594,-0.678589,0.031494,-1.0,0.0,-1.0,7767.0,526.0,488.0,-389.0,19.0,-75.0,41.0,49.0,-391.0,0.99572,0.061834,0.06879,15514.0,1072.0,1114.0,-11.0,6.0,-7.0
2881.0,2767.0,2835.0,3152.0,3045.0,0.730347,0.071594,-0.678528,0.031433,-1.0,0.0,-1.0,7809.0,525.0,524.0,-347.0,17.0,-40.0,10.0,40.0,-347.0,0.995622,0.061921,0.068869,15922.0,1082.0,1284.0,-3.0,2.0,-8.0
2885.0,2767.0,2835.0,3147.0,3045.0,0.730469,0.071594,-0.678467,0.031372,0.0,0.0,0.0,7859.0,541.0,565.0,-297.0,32.0,-1.0,-26.0,46.0,-293.0,0.99569,0.062025,0.069126,15996.0,1200.0,1392.0,2.0,13.0,3.0
2878.0,2767.0,2835.0,3143.0,3053.0,0.730713,0.071533,-0.678162,0.031311,-1.0,1.0,0.0,7885.0,572.0,631.0,-270.0,63.0,58.0,-87.0,67.0,-260.0,0.995562,0.062073,0.069902,15662.0,1152.0,1406.0,-18.0,28.0,10.0
2879.0,2763.0,2833.0,3163.0,3047.0,0.730835,0.071472,-0.67804,0.031311,-1.0,0.0,0.0,7858.0,559.0,643.0,-297.0,51.0,67.0,-96.0,55.0,-287.0,0.995546,0.062008,0.070254,15560.0,1036.0,1342.0,-15.0,8.0,17.0
2883.0,2767.0,2835.0,3158.0,3030.0,0.730774,0.071289,-0.678162,0.031372,-1.0,-2.0,0.0,7819.0,553.0,647.0,-337.0,48.0,73.0,-105.0,53.0,-327.0,0.995639,0.061642,0.070029,15534.0,1184.0,1250.0,-2.0,-30.0,21.0
2883.0,2767.0,2832.0,3149.0,3053.0,0.730652,0.071228,-0.678284,0.031433,-1.0,-3.0,0.0,7809.0,544.0,635.0,-347.0,40.0,64.0,-95.0,47.0,-338.0,0.995656,0.061445,0.069698,15616.0,946.0,1248.0,-13.0,-49.0,22.0
2883.0,2771.0,2837.0,3147.0,3055.0,0.730347,0.071045,-0.67865,0.031494,0.0,-3.0,0.0,7813.0,500.0,590.0,-344.0,0.0,26.0,-52.0,13.0,-340.0,0.995774,0.061028,0.068785,15626.0,968.0,954.0,1.0,-46.0,11.0
2881.0,2766.0,2829.0,3147.0,3047.0,0.730164,0.070984,-0.678833,0.031494,-1.0,-2.0,0.0,7810.0,484.0,563.0,-347.0,-14.0,3.0,-27.0,3.0,-346.0,0.995789,0.060901,0.068278,15594.0,824.0,958.0,-8.0,-40.0,5.0
2883.0,2768.0,2832.0,3151.0,3037.0,0.729797,0.070984,-0.67926,0.031372,-1.0,-2.0,-1.0,7789.0,431.0,495.0,-369.0,-68.0,-55.0,36.0,-40.0,-375.0,0.995898,0.060988,0.067155,15644.0,712.0,838.0,0.0,-44.0,-21.0
2882.0,2759.0,2839.0,3150.0,3045.0,0.729675,0.071106,-0.679382,0.031311,0.0,-2.0,-2.0,7830.0,419.0,496.0,-328.0,-82.0,-51.0,37.0,-56.0,-335.0,0.99591,0.061224,0.06679,15930.0,776.0,976.0,10.0,-33.0,-37.0
2879.0,2765.0,2839.0,3151.0,3039.0,0.729675,0.071594,-0.679321,0.031128,1.0,1.0,-3.0,7931.0,409.0,516.0,-226.0,-100.0,-31.0,27.0,-82.0,-233.0,0.995825,0.062189,0.066792,16056.0,884.0,1104.0,37.0,29.0,-61.0
2879.0,2761.0,2839.0,3147.0,3051.0,0.729858,0.07196,-0.679138,0.031006,1.0,2.0,-3.0,7908.0,458.0,525.0,-249.0,-57.0,-25.0,13.0,-39.0,-253.0,0.995812,0.062927,0.067248,15566.0,1218.0,1050.0,30.0,50.0,-62.0
2887.0,2767.0,2831.0,3149.0,3023.0,0.730042,0.072327,-0.678894,0.03064,-1.0,0.0,-2.0,7846.0,510.0,567.0,-310.0,-14.0,11.0,-32.0,1.0,-308.0,0.995674,0.064001,0.067771,15624.0,1194.0,1366.0,-10.0,5.0,-27.0
2882.0,2769.0,2832.0,3152.0,3031.0,0.730103,0.072327,-0.678833,0.030518,-2.0,-1.0,0.0,7841.0,547.0,600.0,-315.0,21.0,43.0,-69.0,31.0,-309.0,0.99565,0.064179,0.067936,15680.0,1326.0,1358.0,-26.0,-8.0,0.0
2881.0,2762.0,2835.0,3151.0,3037.0,0.730042,0.072083,-0.678894,0.030212,-2.0,-2.0,0.0,7841.0,601.0,641.0,-314.0,74.0,85.0,-118.0,77.0,-302.0,0.995597,0.064224,0.06778,15696.0,1316.0,1402.0,-35.0,-27.0,11.0
2885.0,2767.0,2832.0,3151.0,3014.0,0.72998,0.07196,-0.678955,0.03009,-2.0,-2.0,0.0,7821.0,614.0,631.0,-334.0,88.0,77.0,-113.0,93.0,-321.0,0.995579,0.064199,0.067619,15500.0,1288.0,1186.0,-31.0,-34.0,11.0
2879.0,2766.0,2831.0,3139.0,3071.0,0.729675,0.071777,-0.679321,0.029907,-1.0,-2.0,0.0,7844.0,609.0,599.0,-312.0,83.0,52.0,-86.0,91.0,-301.0,0.995661,0.064115,0.066691,15858.0,1210.0,1116.0,-15.0,-45.0,13.0
2885.0,2769.0,2833.0,3143.0,3043.0,0.729614,0.071716,-0.679443,0.029907,-1.0,-2.0,0.0,7858.0,601.0,571.0,-299.0,76.0,26.0,-58.0,87.0,-291.0,0.995753,0.06401,0.066445,15776.0,1102.0,952.0,-14.0,-30.0,16.0
2881.0,2765.0,2839.0,3154.0,3043.0,0.729492,0.071594,-0.679565,0.029968,0.0,0.0,0.0,7864.0,553.0,488.0,-293.0,30.0,-53.0,26.0,53.0,-293.0,0.995766,0.063724,0.066122,15762.0,1078.0,780.0,4.0,8.0,16.0
2881.0,2763.0,2830.0,3143.0,3043.0,0.729492,0.071533,-0.679565,0.030029,-1.0,1.0,0.0,7861.0,546.0,457.0,-296.0,25.0,-84.0,57.0,52.0,-298.0,0.995772,0.063552,0.066134,15688.0,1060.0,732.0,-2.0,27.0,14.0
2879.0,2766.0,2833.0,3151.0,3043.0,0.729614,0.071289,-0.679443,0.030029,-2.0,0.0,0.0,7798.0,517.0,432.0,-359.0,0.0,-112.0,83.0,35.0,-364.0,0.995745,0.063221,0.066513,15498.0,830.0,906.0,-26.0,13.0,11.0
2887.0,2769.0,2837.0,3150.0,3043.0,0.729614,0.071167,-0.679443,0.030029,-1.0,0.0,0.0,7816.0,497.0,460.0,-341.0,-19.0,-85.0,61.0,11.0,-346.0,0.995737,0.063042,0.066531,15802.0,912.0,1138.0,-17.0,4.0,9.0
2879.0,2766.0,2832.0,3151.0,3043.0,0.729675,0.071106,-0.679382,0.030029,-1.0,0.0,0.0,7857.0,497.0,506.0,-300.0,-18.0,-40.0,19.0,3.0,-302.0,0.995728,0.062966,0.066711,15946.0,1026.0,1302.0,-6.0,14.0,6.0
2877.0,2763.0,2833.0,3155.0,3030.0,0.72998,0.071106,-0.679138,0.03009,0.0,1.0,0.0,7872.0,505.0,577.0,-285.0,-10.0,24.0,-43.0,1.0,-282.0,0.995794,0.062941,0.067492,15686.0,1008.0,1318.0,11.0,24.0,6.0
2877.0,2763.0,2833.0,3151.0,3039.0,0.730042,0.071106,-0.679016,0.030212,0.0,0.0,0.0,7865.0,526.0,602.0,-291.0,11.0,46.0,-69.0,19.0,-285.0,0.995716,0.062791,0.067754,15710.0,1254.0,1292.0,16.0,14.0,10.0
2883.0,2767.0,2837.0,3151.0,3039.0,0.730225,0.071106,-0.678833,0.030151,-1.0,0.0,0.0,7852.0,555.0,597.0,-304.0,39.0,37.0,-65.0,49.0,-297.0,0.995689,0.062911,0.068267,15526.0,1066.0,1038.0,-20.0,15.0,11.0
2883.0,2765.0,2834.0,3151.0,3037.0,0.730225,0.070923,-0.678833,0.030151,-2.0,0.0,0.0,7830.0,538.0,578.0,-326.0,24.0,18.0,-46.0,38.0,-321.0,0.995678,0.062644,0.068293,15530.0,1004.0,1030.0,-23.0,5.0,15.0
2882.0,2767.0,2835.0,3143.0,3039.0,0.730164,0.070679,-0.678955,0.03009,-1.0,-1.0,0.0,7774.0,495.0,518.0,-383.0,-15.0,-39.0,11.0,10.0,-384.0,0.99575,0.062354,0.068069,15476.0,808.0,852.0,-16.0,-19.0,11.0
2881.0,2767.0,2835.0,3151.0,3039.0,0.730042,0.070618,-0.679077,0.03009,-1.0,-2.0,0.0,7791.0,475.0,524.0,-366.0,-34.0,-30.0,6.0,-10.0,-368.0,0.995759,0.06224,0.067733,15686.0,850.0,1080.0,-1.0,-23.0,5.0
2885.0,2768.0,2838.0,3147.0,3047.0,0.72998,0.070801,-0.679077,0.030151,0.0,0.0,-1.0,7863.0,515.0,537.0,-293.0,3.0,-16.0,-6.0,20.0,-292.0,0.995696,0.062416,0.067622,15914.0,1182.0,1076.0,14.0,7.0,-13.0
2881.0,2764.0,2833.0,3152.0,3039.0,0.730103,0.070862,-0.679016,0.03009,0.0,1.0,-1.0,7891.0,524.0,547.0,-266.0,11.0,-8.0,-13.0,25.0,-264.0,0.995767,0.062609,0.067871,15916.0,1126.0,1148.0,4.0,25.0,-15.0
2883.0,2767.0,2831.0,3153.0,3046.0,0.730225,0.070923,-0.678894,0.030029,0.0,1.0,-1.0,7894.0,527.0,550.0,-263.0,12.0,-8.0,-13.0,26.0,-261.0,0.99575,0.062806,0.068203,15756.0,1060.0,1140.0,1.0,33.0,-10.0
2871.0,2764.0,2832.0,3151.0,3043.0,0.730469,0.070984,-0.678589,0.030029,0.0,1.0,0.0,7867.0,523.0,558.0,-289.0,7.0,-6.0,-17.0,22.0,-287.0,0.995639,0.062948,0.068965,15602.0,1072.0,1148.0,9.0,33.0,0.0
2887.0,2768.0,2832.0,3151.0,3051.0,0.730591,0.071045,-0.678467,0.03009,0.0,1.0,0.0,7826.0,563.0,562.0,-330.0,47.0,-5.0,-27.0,64.0,-325.0,0.995639,0.062979,0.069304,15356.0,1420.0,1126.0,1.0,32.0,5.0
2883.0,2767.0,2839.0,3151.0,3047.0,0.730652,0.070862,-0.678406,0.029907,-2.0,-1.0,0.0,7802.0,542.0,553.0,-353.0,26.0,-16.0,-15.0,46.0,-350.0,0.995595,0.062972,0.069491,15714.0,856.0,1100.0,-29.0,-11.0,15.0
2883.0,2767.0,2835.0,3151.0,3039.0,0.730591,0.07074,-0.678467,0.029907,-1.0,-1.0,0.0,7819.0,515.0,552.0,-336.0,0.0,-16.0,-10.0,19.0,-335.0,0.995595,0.062781,0.069336,15732.0,902.0,1090.0,-3.0,-9.0,16.0
2881.0,2767.0,2833.0,3147.0,3039.0,0.73053,0.070801,-0.678528,0.03009,0.0,-1.0,-1.0,7846.0,482.0,554.0,-310.0,-30.0,-12.0,-7.0,-11.0,-311.0,0.99563,0.06261,0.069166,15804.0,866.0,1098.0,20.0,-5.0,-5.0
2879.0,2765.0,2833.0,3143.0,3045.0,0.73053,0.070862,-0.678528,0.030151,1.0,0.0,-1.0,7870.0,476.0,560.0,-286.0,-36.0,-6.0,-11.0,-19.0,-287.0,0.995643,0.062616,0.069161,15898.0,908.0,1194.0,24.0,2.0,-7.0
2879.0,2767.0,2834.0,3152.0,3031.0,0.730652,0.071106,-0.678345,0.030273,0.0,1.0,-1.0,7885.0,506.0,574.0,-270.0,-8.0,4.0,-23.0,5.0,-269.0,0.995573,0.062836,0.069561,15740.0,1236.0,1226.0,19.0,31.0,-10.0
2887.0,2769.0,2837.0,3152.0,3039.0,0.730835,0.071167,-0.678162,0.030151,-1.0,1.0,-1.0,7871.0,537.0,579.0,-284.0,19.0,5.0,-29.0,32.0,-281.0,0.99554,0.063128,0.070061,15652.0,1218.0,1192.0,-17.0,38.0,-9.0
2887.0,2759.0,2833.0,3138.0,3051.0,0.731018,0.071106,-0.677979,0.030029,-2.0,1.0,-1.0,7845.0,516.0,568.0,-310.0,-2.0,-10.0,-14.0,15.0,-309.0,0.9955,0.063241,0.070578,15496.0,840.0,1072.0,-35.0,39.0,-5.0
2901.0,2763.0,2831.0,3147.0,3039.0,0.731079,0.070862,-0.677917,0.029907,-1.0,-1.0,-1.0,7750.0,489.0,571.0,-404.0,-27.0,-8.0,-20.0,-4.0,-404.0,0.995461,0.063062,0.070778,15424.0,932.0,1262.0,-16.0,-18.0,-3.0
2883.0,2767.0,2837.0,3153.0,3038.0,0.731018,0.070862,-0.67804,0.029846,-1.0,-2.0,-1.0,7784.0,504.0,603.0,-371.0,-13.0,25.0,-52.0,3.0,-368.0,0.995548,0.063129,0.070519,15834.0,1160.0,1440.0,-4.0,-34.0,-2.0
2883.0,2768.0,2839.0,3147.0,3043.0,0.730957,0.070923,-0.678101,0.029663,-1.0,-1.0,-1.0,7875.0,551.0,635.0,-280.0,31.0,58.0,-83.0,37.0,-272.0,0.995532,0.063454,0.070328,15964.0,1156.0,1360.0,-4.0,-13.0,-8.0
2886.0,2767.0,2831.0,3150.0,3043.0,0.730957,0.070984,-0.678101,0.029663,0.0,-1.0,-1.0,7878.0,559.0,626.0,-277.0,38.0,49.0,-75.0,45.0,-269.0,0.995536,0.063543,0.070319,15740.0,1238.0,1168.0,4.0,-5.0,-5.0
2881.0,2763.0,2838.0,3155.0,3035.0,0.730957,0.071045,-0.67804,0.029602,-1.0,0.0,0.0,7894.0,562.0,594.0,-260.0,40.0,17.0,-42.0,50.0,-255.0,0.995442,0.063719,0.070389,15886.0,1070.0,1044.0,-1.0,7.0,3.0
2885.0,2767.0,2841.0,3151.0,3043.0,0.731018,0.071045,-0.677979,0.029602,0.0,1.0,0.0,7887.0,559.0,560.0,-267.0,36.0,-18.0,-8.0,52.0,-264.0,0.995435,0.063731,0.070561,15676.0,1094.0,864.0,4.0,33.0,2.0
2882.0,2767.0,2839.0,3152.0,3046.0,0.731262,0.071045,-0.677734,0.029602,0.0,1.0,-1.0,7825.0,521.0,502.0,-329.0,-1.0,-81.0,53.0,28.0,-333.0,0.995409,0.06378,0.071249,15478.0,922.0,898.0,1.0,45.0,-2.0
2879.0,2767.0,2833.0,3150.0,3035.0,0.731384,0.071106,-0.677612,0.029663,0.0,1.0,-1.0,7793.0,507.0,492.0,-361.0,-15.0,-94.0,66.0,17.0,-367.0,0.995408,0.063811,0.071588,15422.0,922.0,952.0,6.0,41.0,-4.0
2883.0,2759.0,2831.0,3143.0,3031.0,-1.21228,0.229187,0.519287,-0.775024,-23783.0,-14037.0,-19761.0,-17167.0,28933.0,17111.0,-24570.0,-25457.0,2790.0,21257.0,-14825.0,17307.0,0.903792,-1.360598,1.7481,15496.0,1050.0,1246.0,18.0,16.0,-6.0
2883.0,2765.0,2842.0,3153.0,3039.0,0.731567,0.071289,-0.677368,0.029785,0.0,-1.0,-1.0,7794.0,505.0,570.0,-359.0,-18.0,-21.0,-5.0,4.0,-359.0,0.995328,0.063954,0.072168,15858.0,1036.0,1444.0,14.0,-3.0,-5.0
2879.0,2766.0,2838.0,3147.0,3043.0,0.73175,0.071411,-0.677124,0.029846,0.0,1.0,0.0,7925.0,536.0,676.0,-227.0,10.0,80.0,-98.0,10.0,-219.0,0.995234,0.064091,0.072753,16208.0,1224.0,1628.0,14.0,26.0,1.0
2879.0,2767.0,2833.0,3151.0,3043.0,0.731995,0.071411,-0.676941,0.029846,0.0,1.0,0.0,7944.0,557.0,696.0,-209.0,31.0,95.0,-115.0,27.0,-199.0,0.995297,0.064137,0.073358,15906.0,1212.0,1452.0,1.0,45.0,5.0
2877.0,2766.0,2838.0,3158.0,3039.0,0.7323,0.07135,-0.676575,0.030029,0.0,1.0,0.0,7855.0,544.0,678.0,-297.0,20.0,69.0,-95.0,25.0,-289.0,0.995196,0.063865,0.074321,15312.0,1144.0,1164.0,9.0,24.0,19.0
2886.0,2768.0,2839.0,3153.0,3039.0,0.7323,0.07135,-0.676575,0.03009,0.0,-1.0,0.0,7781.0,557.0,645.0,-371.0,34.0,36.0,-70.0,47.0,-364.0,0.995205,0.063783,0.074324,15180.0,1218.0,1114.0,6.0,-13.0,22.0
2879.0,2767.0,2843.0,3143.0,3031.0,0.732117,0.07135,-0.676758,0.030151,0.0,-3.0,0.0,7749.0,564.0,613.0,-403.0,42.0,8.0,-46.0,61.0,-397.0,0.995234,0.063663,0.073812,15368.0,1184.0,1074.0,2.0,-47.0,21.0
2882.0,2767.0,2832.0,3143.0,3039.0,0.73175,0.071228,-0.677185,0.030151,-1.0,-2.0,0.0,7821.0,565.0,563.0,-332.0,45.0,-32.0,-1.0,66.0,-329.0,0.995356,0.063406,0.072715,15924.0,1100.0,1002.0,-8.0,-37.0,12.0
2881.0,2768.0,2833.0,3155.0,3045.0,0.731628,0.071228,-0.677246,0.03009,-1.0,-1.0,0.0,7868.0,560.0,547.0,-285.0,40.0,-46.0,16.0,61.0,-284.0,0.995272,0.063468,0.07245,16014.0,1044.0,988.0,-9.0,-5.0,4.0
2882.0,2766.0,2835.0,3157.0,3039.0,0.731873,0.071289,-0.677002,0.030151,0.0,2.0,-1.0,7891.0,553.0,515.0,-262.0,32.0,-84.0,57.0,57.0,-264.0,0.995257,0.063524,0.073133,15766.0,1200.0,960.0,14.0,58.0,-3.0
2883.0,2758.0,2832.0,3151.0,3035.0,0.732117,0.07135,-0.676758,0.030151,0.0,3.0,0.0,7883.0,571.0,516.0,-269.0,49.0,-88.0,57.0,75.0,-271.0,0.995234,0.063663,0.073812,15716.0,1240.0,1060.0,4.0,75.0,2.0
2879.0,2767.0,2835.0,3147.0,3043.0,0.732605,0.071167,-0.676208,0.030151,-1.0,2.0,1.0,7795.0,584.0,533.0,-356.0,63.0,-83.0,43.0,92.0,-356.0,0.995079,0.063497,0.075297,15204.0,1160.0,1106.0,-22.0,65.0,24.0
2885.0,2767.0,2837.0,3151.0,3045.0,0.732727,0.070984,-0.676086,0.030151,-1.0,1.0,1.0,7750.0,573.0,562.0,-401.0,54.0,-57.0,15.0,82.0,-399.0,0.995054,0.063254,0.075666,15326.0,1046.0,1352.0,-18.0,24.0,28.0
2881.0,2767.0,2832.0,3147.0,3038.0,0.732788,0.070923,-0.676025,0.030273,-1.0,0.0,1.0,7760.0,559.0,599.0,-391.0,42.0,-22.0,-17.0,64.0,-388.0,0.995061,0.063012,0.075854,15618.0,1042.0,1404.0,0.0,4.0,26.0
2879.0,2766.0,2833.0,3151.0,3039.0,0.732849,0.070862,-0.676025,0.030579,1.0,-1.0,1.0,7821.0,546.0,671.0,-331.0,33.0,48.0,-79.0,42.0,-323.0,0.995183,0.062518,0.075971,15824.0,1132.0,1552.0,27.0,-11.0,27.0
2883.0,2769.0,2849.0,3153.0,3046.0,0.732849,0.070862,-0.676025,0.030701,0.0,-1.0,1.0,7851.0,571.0,696.0,-301.0,60.0,73.0,-105.0,63.0,-290.0,0.9952,0.062353,0.075979,15896.0,1332.0,1520.0,19.0,-13.0,30.0
2885.0,2769.0,2837.0,3153.0,3045.0,0.732849,0.070618,-0.676025,0.030884,-1.0,0.0,1.0,7907.0,553.0,686.0,-245.0,47.0,63.0,-89.0,49.0,-236.0,0.995211,0.061748,0.076024,15950.0,870.0,1240.0,-16.0,7.0,38.0
2879.0,2767.0,2833.0,3151.0,3039.0,0.73291,0.070435,-0.675964,0.031006,-1.0,1.0,1.0,7888.0,519.0,642.0,-264.0,16.0,17.0,-41.0,26.0,-260.0,0.99521,0.061327,0.07623,15596.0,882.0,976.0,-3.0,26.0,33.0
2886.0,2767.0,2831.0,3150.0,3042.0,0.732971,0.070251,-0.675903,0.03125,-1.0,0.0,0.0,7766.0,466.0,541.0,-386.0,-31.0,-85.0,55.0,0.0,-392.0,0.995226,0.060741,0.076443,15286.0,772.0,886.0,-4.0,1.0,17.0
2885.0,2767.0,2839.0,3153.0,3043.0,0.732849,0.07019,-0.676025,0.031311,0.0,-1.0,0.0,7780.0,448.0,536.0,-373.0,-47.0,-87.0,61.0,-15.0,-380.0,0.995245,0.060544,0.076111,15748.0,798.0,1056.0,1.0,-11.0,12.0
2886.0,2766.0,2833.0,3151.0,3047.0,0.732971,0.070129,-0.675842,0.031372,-1.0,1.0,-1.0,7856.0,461.0,567.0,-296.0,-33.0,-60.0,38.0,-9.0,-301.0,0.995146,0.060401,0.07655,15720.0,1038.0,1248.0,-3.0,42.0,-2.0
2882.0,2766.0,2833.0,3149.0,3038.0,0.733154,0.070129,-0.67572,0.031311,-1.0,1.0,-1.0,7834.0,476.0,583.0,-318.0,-19.0,-47.0,22.0,3.0,-321.0,0.995206,0.060516,0.07698,15528.0,1034.0,1260.0,-14.0,37.0,-4.0
2882.0,2766.0,2873.0,3151.0,3039.0,0.733337,0.070068,-0.675476,0.031189,-1.0,0.0,-1.0,7857.0,459.0,648.0,-294.0,-37.0,12.0,-31.0,-23.0,-293.0,0.995074,0.060633,0.077579,15854.0,892.0,1466.0,0.0,16.0,-9.0
2883.0,2768.0,2843.0,3155.0,3047.0,0.733459,0.070129,-0.675354,0.031189,0.0,0.0,-1.0,7865.0,483.0,669.0,-286.0,-14.0,30.0,-52.0,-4.0,-283.0,0.995064,0.060747,0.077914,15736.0,1156.0,1490.0,8.0,17.0,-11.0
2883.0,2767.0,2835.0,3151.0,3039.0,0.03064,0.042419,-1.21228,-1.665588,2653.0,28808.0,-10986.0,-2863.0,8581.0,-11445.0,-2313.0,-24522.0,-22124.0,14598.0,8736.0,3293.0,-0.067019,4.040919,1.303701,15872.0,1066.0,1500.0,-1.0,3.0,-4.0
2879.0,2767.0,2835.0,3143.0,3039.0,0.733643,0.070251,-0.675171,0.031067,0.0,0.0,0.0,7873.0,533.0,712.0,-278.0,32.0,69.0,-96.0,35.0,-269.0,0.995033,0.061128,0.078406,15568.0,1270.0,1376.0,1.0,6.0,4.0
2885.0,2766.0,2835.0,3149.0,3023.0,0.733582,0.070129,-0.675293,0.030945,-1.0,-2.0,0.0,7774.0,533.0,661.0,-377.0,32.0,20.0,-56.0,47.0,-371.0,0.995105,0.061098,0.078161,15348.0,990.0,1150.0,-20.0,-38.0,11.0
2885.0,2768.0,2839.0,3151.0,3045.0,0.733398,0.070068,-0.675476,0.030884,-1.0,-3.0,0.0,7771.0,533.0,638.0,-380.0,32.0,1.0,-37.0,50.0,-376.0,0.995114,0.061054,0.07765,15558.0,1102.0,1112.0,-9.0,-49.0,12.0
2879.0,2767.0,2832.0,3150.0,3039.0,0.733154,0.070007,-0.67572,0.030884,-1.0,-3.0,0.0,7791.0,535.0,619.0,-361.0,35.0,-11.0,-24.0,53.0,-357.0,0.995139,0.060915,0.07697,15766.0,1064.0,1168.0,-13.0,-50.0,6.0
2886.0,2766.0,2837.0,3143.0,3039.0,0.732971,0.070007,-0.675903,0.030823,0.0,-1.0,0.0,7869.0,514.0,590.0,-283.0,14.0,-36.0,9.0,33.0,-283.0,0.995151,0.06096,0.07645,15924.0,1028.0,1110.0,3.0,-1.0,1.0
2885.0,2768.0,2834.0,3151.0,3023.0,0.733032,0.070007,-0.675903,0.030823,-1.0,0.0,-1.0,7873.0,514.0,581.0,-279.0,14.0,-46.0,19.0,34.0,-280.0,0.995233,0.060969,0.07654,15680.0,1026.0,1096.0,-2.0,20.0,-1.0
2883.0,2767.0,2832.0,3152.0,3043.0,0.733215,0.069885,-0.675659,0.030762,-1.0,1.0,0.0,7856.0,504.0,572.0,-295.0,5.0,-60.0,33.0,28.0,-297.0,0.995107,0.060913,0.077152,15668.0,960.0,1158.0,-19.0,36.0,7.0
2886.0,2767.0,2832.0,3151.0,3039.0,0.733337,0.069763,-0.675537,0.030701,-1.0,1.0,0.0,7836.0,500.0,581.0,-315.0,1.0,-53.0,25.0,24.0,-317.0,0.995077,0.060841,0.077509,15522.0,960.0,1236.0,-17.0,39.0,4.0
2881.0,2767.0,2837.0,3149.0,3039.0,0.733521,0.069702,-0.675354,0.030701,0.0,0.0,0.0,7796.0,477.0,614.0,-355.0,-20.0,-25.0,-3.0,1.0,-356.0,0.995052,0.060788,0.078033,15584.0,996.0,1460.0,3.0,4.0,2.0
2879.0,2769.0,2834.0,3151.0,3043.0,0.733521,0.069702,-0.675354,0.030701,0.0,-1.0,0.0,7815.0,507.0,656.0,-336.0,9.0,16.0,-45.0,23.0,-332.0,0.995052,0.060788,0.078033,15762.0,1218.0,1574.0,1.0,-5.0,7.0
2885.0,2766.0,2833.0,3151.0,3039.0,0.733582,0.069641,-0.675354,0.030701,-1.0,-1.0,0.0,7844.0,516.0,682.0,-308.0,18.0,41.0,-69.0,27.0,-302.0,0.995131,0.060707,0.078131,15866.0,1040.0,1520.0,-9.0,-9.0,12.0
2883.0,2767.0,2835.0,3151.0,3039.0,0.733582,0.069519,-0.675354,0.030762,-1.0,-1.0,0.0,7864.0,503.0,692.0,-288.0,7.0,51.0,-76.0,13.0,-282.0,0.995131,0.060446,0.078152,15772.0,898.0,1316.0,-9.0,-10.0,14.0
2883.0,2767.0,2838.0,3155.0,3043.0,0.733582,0.069458,-0.675354,0.030762,-1.0,-1.0,0.0,7862.0,494.0,677.0,-290.0,0.0,36.0,-60.0,8.0,-285.0,0.995128,0.060356,0.078161,15690.0,970.0,1224.0,-1.0,-3.0,13.0
2885.0,2750.0,2837.0,3150.0,3045.0,0.733582,0.069336,-0.675354,0.030884,0.0,0.0,0.0,7852.0,474.0,619.0,-300.0,-17.0,-21.0,-2.0,0.0,-301.0,0.995137,0.060012,0.078185,15646.0,894.0,1068.0,1.0,14.0,9.0
2882.0,2765.0,2835.0,3149.0,3039.0,0.733643,0.069336,-0.675293,0.030945,-1.0,1.0,0.0,7852.0,473.0,603.0,-300.0,-18.0,-38.0,14.0,2.0,-302.0,0.995139,0.059942,0.078361,15748.0,944.0,1118.0,0.0,25.0,7.0
2883.0,2767.0,2847.0,3151.0,3039.0,0.733765,0.069275,-0.675171,0.030945,0.0,1.0,0.0,7858.0,476.0,587.0,-294.0,-14.0,-57.0,32.0,8.0,-297.0,0.99512,0.059877,0.078713,15762.0,998.0,1088.0,1.0,42.0,3.0
2883.0,2768.0,2839.0,3153.0,3043.0,0.734131,0.069214,-0.674744,0.030884,-1.0,2.0,0.0,7861.0,471.0,589.0,-289.0,-20.0,-64.0,40.0,3.0,-293.0,0.994975,0.059947,0.079832,15738.0,846.0,1278.0,-20.0,66.0,2.0
2879.0,2765.0,2833.0,3150.0,3039.0,0.734436,0.069092,-0.674438,0.030884,-1.0,2.0,0.0,7829.0,481.0,602.0,-321.0,-9.0,-59.0,31.0,14.0,-324.0,0.994931,0.059829,0.080709,15404.0,1066.0,1304.0,-19.0,67.0,5.0
2881.0,2767.0,2834.0,3149.0,3046.0,0.734741,0.068909,-0.674133,0.030762,-1.0,0.0,0.0,7792.0,478.0,668.0,-357.0,-11.0,0.0,-30.0,6.0,-355.0,0.994867,0.059785,0.081587,15542.0,886.0,1572.0,-16.0,22.0,0.0
2885.0,2767.0,2835.0,3151.0,3043.0,0.734802,0.068909,-0.674011,0.030701,-1.0,0.0,-1.0,7801.0,485.0,704.0,-348.0,-5.0,33.0,-62.0,6.0,-343.0,0.994761,0.059883,0.081837,15700.0,1034.0,1642.0,-3.0,5.0,-2.0
2879.0,2765.0,2835.0,3151.0,3039.0,0.734863,0.06897,-0.67395,0.030701,0.0,-1.0,-1.0,7823.0,491.0,741.0,-326.0,0.0,69.0,-97.0,5.0,-318.0,0.994757,0.059985,0.082001,15778.0,1020.0,1682.0,6.0,-5.0,-7.0
2883.0,2768.0,2833.0,3151.0,3039.0,0.734863,0.069092,-0.67395,0.030701,0.0,-1.0,0.0,7843.0,515.0,759.0,-306.0,22.0,87.0,-116.0,24.0,-295.0,0.994765,0.060165,0.081984,15720.0,1074.0,1536.0,14.0,-15.0,0.0
2884.0,2768.0,2836.0,3152.0,3039.0,0.734863,0.069153,-0.67395,0.030762,0.0,-1.0,0.0,7854.0,511.0,752.0,-295.0,18.0,80.0,-107.0,20.0,-285.0,0.994777,0.060172,0.081979,15774.0,982.0,1436.0,14.0,-17.0,2.0
2883.0,2768.0,2837.0,3151.0,3046.0,0.734802,0.069214,-0.674072,0.030823,0.0,-1.0,0.0,7844.0,523.0,684.0,-306.0,30.0,14.0,-45.0,42.0,-301.0,0.994886,0.060163,0.08172,15650.0,1074.0,1104.0,1.0,-9.0,8.0
2883.0,2767.0,2835.0,3151.0,3039.0,0.734741,0.069214,-0.674133,0.030823,-1.0,-1.0,0.0,7826.0,523.0,635.0,-324.0,30.0,-33.0,0.0,49.0,-323.0,0.994894,0.060151,0.081548,15514.0,1060.0,972.0,-11.0,-2.0,9.0
2887.0,2768.0,2833.0,3152.0,3046.0,0.73468,0.069092,-0.674194,0.030762,-2.0,-1.0,0.0,7804.0,515.0,594.0,-346.0,23.0,-72.0,37.0,49.0,-348.0,0.994885,0.060042,0.08139,15480.0,958.0,978.0,-25.0,0.0,7.0
2883.0,2768.0,2837.0,3152.0,3039.0,0.734619,0.068909,-0.674316,0.030579,-1.0,-1.0,-1.0,7792.0,464.0,574.0,-358.0,-27.0,-90.0,60.0,3.0,-365.0,0.994946,0.060004,0.081149,15684.0,814.0,1256.0,-19.0,-4.0,-9.0
2883.0,2767.0,2835.0,3147.0,3043.0,0.734619,0.068909,-0.674255,0.030518,-1.0,0.0,-1.0,7826.0,450.0,604.0,-323.0,-42.0,-61.0,37.0,-17.0,-328.0,0.994848,0.06009,0.081228,15880.0,862.0,1430.0,-1.0,5.0,-18.0
2883.0,2767.0,2834.0,3151.0,3043.0,0.734802,0.069153,-0.674011,0.030518,0.0,1.0,-1.0,7880.0,495.0,668.0,-268.0,0.0,-2.0,-22.0,13.0,-266.0,0.994751,0.060489,0.081792,15864.0,1222.0,1540.0,18.0,29.0,-14.0
2883.0,2768.0,2815.0,3152.0,3045.0,0.734985,0.069275,-0.673828,0.030457,0.0,1.0,-1.0,7885.0,526.0,687.0,-263.0,28.0,12.0,-39.0,38.0,-258.0,0.994727,0.060787,0.082288,15748.0,1212.0,1438.0,10.0,32.0,-8.0
2885.0,2767.0,2837.0,3155.0,3047.0,0.735168,0.069336,-0.673645,0.030518,0.0,0.0,0.0,7833.0,522.0,697.0,-315.0,23.0,18.0,-49.0,35.0,-310.0,0.994717,0.060831,0.082799,15466.0,1010.0,1380.0,10.0,13.0,8.0
2883.0,2768.0,2837.0,3150.0,3043.0,0.735168,0.069336,-0.673584,0.030579,0.0,-1.0,0.0,7783.0,517.0,687.0,-365.0,19.0,8.0,-43.0,35.0,-361.0,0.994636,0.060753,0.082885,15242.0,992.0,1288.0,16.0,-6.0,7.0
2885.0,2767.0,2835.0,3150.0,3043.0,0.734863,0.069519,-0.673889,0.030762,1.0,-3.0,0.0,7749.0,496.0,662.0,-399.0,-1.0,-9.0,-26.0,19.0,-397.0,0.99471,0.060714,0.082011,15584.0,994.0,1286.0,32.0,-53.0,4.0
2886.0,2768.0,2833.0,3151.0,3047.0,0.73468,0.069702,-0.674133,0.030823,1.0,-3.0,0.0,7797.0,526.0,671.0,-352.0,27.0,4.0,-39.0,43.0,-348.0,0.994842,0.06086,0.081391,15922.0,1282.0,1410.0,25.0,-52.0,1.0
2875.0,2768.0,2833.0,3151.0,3039.0,0.734558,0.069763,-0.674255,0.030762,-1.0,-2.0,-1.0,7846.0,550.0,669.0,-303.0,50.0,5.0,-38.0,63.0,-297.0,0.994852,0.061008,0.081035,15994.0,1150.0,1272.0,-5.0,-35.0,-8.0
2885.0,2766.0,2833.0,3155.0,3039.0,0.734558,0.069763,-0.674255,0.03064,-1.0,0.0,-1.0,7917.0,492.0,638.0,-232.0,-9.0,-25.0,5.0,6.0,-233.0,0.994835,0.061172,0.081027,15870.0,918.0,1206.0,-2.0,21.0,-13.0
2883.0,2767.0,2837.0,3152.0,3039.0,0.734619,0.069763,-0.674133,0.030579,-1.0,1.0,-1.0,7907.0,498.0,625.0,-241.0,-3.0,-40.0,18.0,14.0,-243.0,0.994729,0.061271,0.081278,15740.0,1058.0,1144.0,-5.0,35.0,-15.0
2883.0,2767.0,2836.0,3151.0,3047.0,0.734924,0.069824,-0.673889,0.030396,-1.0,1.0,-1.0,7823.0,491.0,609.0,-326.0,-14.0,-63.0,34.0,11.0,-330.0,0.99476,0.061665,0.082036,15350.0,962.0,1262.0,-14.0,33.0,-14.0
2885.0,2766.0,2833.0,3147.0,3045.0,0.734985,0.069824,-0.673767,0.030273,-1.0,0.0,-1.0,7792.0,495.0,618.0,-356.0,-11.0,-56.0,24.0,14.0,-359.0,0.994646,0.061845,0.082282,15458.0,1054.0,1342.0,-10.0,15.0,-11.0
2883.0,2767.0,2839.0,3151.0,3045.0,0.734985,0.069763,-0.673767,0.030151,-1.0,-1.0,-1.0,7772.0,509.0,683.0,-375.0,1.0,8.0,-41.0,18.0,-372.0,0.994625,0.06192,0.082284,15582.0,1092.0,1598.0,-6.0,-20.0,-1.0
2879.0,2768.0,2835.0,3151.0,3039.0,0.734985,0.069763,-0.673828,0.03009,-1.0,-2.0,0.0,7804.0,531.0,726.0,-344.0,23.0,52.0,-85.0,32.0,-336.0,0.994706,0.061998,0.082198,15826.0,1196.0,1650.0,-1.0,-28.0,3.0
2885.0,2769.0,2833.0,3149.0,3039.0,0.734924,0.069824,-0.673889,0.03009,0.0,-1.0,0.0,7869.0,558.0,756.0,-279.0,49.0,84.0,-114.0,50.0,-267.0,0.994717,0.062076,0.082017,15860.0,1222.0,1504.0,2.0,-16.0,9.0
2883.0,2767.0,2832.0,3151.0,3045.0,0.734863,0.069824,-0.673889,0.03009,-1.0,-1.0,0.0,7874.0,575.0,741.0,-274.0,66.0,69.0,-101.0,69.0,-262.0,0.994635,0.062067,0.081927,15786.0,1232.0,1412.0,-3.0,-11.0,4.0
2885.0,2763.0,2836.0,3149.0,3046.0,0.734863,0.069763,-0.67395,0.030029,-1.0,-1.0,0.0,7843.0,550.0,661.0,-305.0,41.0,-9.0,-24.0,57.0,-301.0,0.994712,0.062056,0.08185,15492.0,1022.0,1078.0,-4.0,-2.0,3.0
2887.0,2763.0,2847.0,3154.0,3047.0,0.734802,0.069763,-0.674011,0.029968,-1.0,-1.0,0.0,7823.0,539.0,628.0,-325.0,30.0,-41.0,7.0,51.0,-324.0,0.994711,0.062126,0.081674,15564.0,988.0,1080.0,-7.0,-4.0,0.0
2885.0,2768.0,2832.0,3153.0,3047.0,0.734741,0.069763,-0.674072,0.029968,0.0,0.0,-1.0,7807.0,498.0,586.0,-341.0,-10.0,-81.0,50.0,18.0,-346.0,0.994719,0.062114,0.081502,15524.0,906.0,1080.0,4.0,7.0,-2.0
2883.0,2766.0,2843.0,3147.0,3043.0,0.734741,0.069763,-0.674072,0.029968,0.0,-1.0,-1.0,7785.0,502.0,587.0,-363.0,-6.0,-80.0,47.0,23.0,-367.0,0.994719,0.062114,0.081502,15472.0,1062.0,1208.0,7.0,0.0,-5.0
2883.0,2767.0,2839.0,3159.0,3055.0,0.734741,0.069824,-0.674133,0.029968,0.0,-1.0,-1.0,7803.0,499.0,604.0,-346.0,-10.0,-62.0,31.0,16.0,-349.0,0.994812,0.0622,0.081412,15794.0,932.0,1308.0,2.0,-5.0,-6.0
2883.0,2768.0,2845.0,3155.0,3047.0,0.734802,0.069885,-0.67395,0.030029,0.0,1.0,0.0,7874.0,514.0,654.0,-274.0,4.0,-15.0,-10.0,19.0,-273.0,0.994637,0.062227,0.081743,15916.0,1194.0,1458.0,7.0,24.0,3.0
2883.0,2765.0,2834.0,3143.0,3039.0,0.734985,0.069885,-0.673828,0.030029,0.0,1.0,-1.0,7900.0,531.0,679.0,-248.0,20.0,5.0,-30.0,31.0,-245.0,0.994705,0.06226,0.082177,15972.0,1128.0,1526.0,1.0,35.0,-3.0
2884.0,2767.0,2835.0,3167.0,3039.0,0.735352,0.069946,-0.673401,0.030029,-1.0,1.0,0.0,7833.0,550.0,680.0,-314.0,38.0,-2.0,-31.0,53.0,-310.0,0.994574,0.062427,0.083282,15248.0,1192.0,1306.0,-4.0,43.0,2.0
2881.0,2768.0,2832.0,3152.0,3039.0,0.735413,0.069885,-0.67334,0.029968,-1.0,0.0,0.0,7774.0,539.0,679.0,-373.0,27.0,-4.0,-33.0,45.0,-369.0,0.994554,0.062431,0.083459,15244.0,988.0,1398.0,-12.0,7.0,9.0
2887.0,2768.0,2842.0,3153.0,3031.0,0.735291,0.069702,-0.673462,0.030029,-1.0,-2.0,1.0,7754.0,535.0,712.0,-393.0,26.0,30.0,-68.0,40.0,-386.0,0.994567,0.062055,0.083145,15602.0,1056.0,1566.0,-11.0,-41.0,23.0
2883.0,2771.0,2835.0,3149.0,3051.0,0.735168,0.06958,-0.673645,0.030029,-1.0,-2.0,0.0,7783.0,533.0,726.0,-365.0,26.0,48.0,-84.0,36.0,-357.0,0.994664,0.061848,0.082735,15750.0,1072.0,1556.0,-11.0,-42.0,21.0
2879.0,2767.0,2832.0,3139.0,3051.0,0.734985,0.069519,-0.673828,0.030029,-1.0,-1.0,0.0,7846.0,507.0,713.0,-302.0,1.0,39.0,-65.0,10.0,-297.0,0.994683,0.061722,0.082228,15876.0,884.0,1372.0,0.0,-22.0,5.0
2883.0,2766.0,2837.0,3159.0,3043.0,0.734985,0.069519,-0.673828,0.03009,0.0,-1.0,0.0,7869.0,496.0,703.0,-279.0,-8.0,29.0,-52.0,1.0,-275.0,0.994691,0.06164,0.082232,15866.0,952.0,1336.0,7.0,-5.0,0.0
2883.0,2763.0,2832.0,3147.0,3047.0,0.734985,0.069519,-0.673828,0.03009,0.0,0.0,-1.0,7884.0,485.0,683.0,-264.0,-19.0,9.0,-30.0,-7.0,-263.0,0.994691,0.06164,0.082232,15840.0,918.0,1232.0,9.0,12.0,-2.0
2887.0,2768.0,2833.0,3147.0,3039.0,0.735107,0.069641,-0.673706,0.030151,0.0,0.0,-1.0,7840.0,479.0,629.0,-308.0,-26.0,-47.0,22.0,-3.0,-311.0,0.994692,0.061761,0.082562,15496.0,956.0,1140.0,5.0,22.0,-8.0
2883.0,2768.0,2838.0,3152.0,3038.0,0.735168,0.069641,-0.673645,0.030151,-1.0,0.0,-1.0,7816.0,474.0,623.0,-332.0,-32.0,-54.0,27.0,-7.0,-336.0,0.994685,0.061773,0.082734,15498.0,882.0,1240.0,-1.0,12.0,-8.0
2887.0,2766.0,2832.0,3159.0,3047.0,0.735107,0.069641,-0.673706,0.030151,0.0,-2.0,0.0,7779.0,467.0,653.0,-369.0,-38.0,-23.0,-5.0,-16.0,-371.0,0.994692,0.061761,0.082562,15598.0,982.0,1562.0,2.0,-24.0,0.0
2883.0,2767.0,2843.0,3151.0,3043.0,0.735046,0.069702,-0.673767,0.030151,0.0,-2.0,0.0,7816.0,480.0,686.0,-332.0,-26.0,11.0,-37.0,-10.0,-330.0,0.994703,0.061839,0.082382,15914.0,1040.0,1614.0,8.0,-30.0,2.0
2887.0,2767.0,2837.0,3147.0,3043.0,0.734985,0.069824,-0.673767,0.030151,0.0,-1.0,-1.0,7873.0,510.0,736.0,-274.0,2.0,62.0,-86.0,6.0,-267.0,0.994628,0.06201,0.082275,15804.0,986.0,1470.0,6.0,-8.0,-5.0
2881.0,2766.0,2833.0,3143.0,3045.0,0.735046,0.069885,-0.673767,0.030151,0.0,-1.0,-1.0,7881.0,508.0,730.0,-267.0,0.0,55.0,-78.0,5.0,-261.0,0.994714,0.062108,0.082356,15806.0,1048.0,1394.0,15.0,-1.0,-4.0
2889.0,2769.0,2837.0,3143.0,3047.0,0.735046,0.069946,-0.673706,0.030212,0.0,0.0,-1.0,7877.0,529.0,714.0,-271.0,20.0,38.0,-64.0,27.0,-265.0,0.994637,0.062119,0.082434,15706.0,1204.0,1338.0,15.0,10.0,-5.0
2887.0,2771.0,2843.0,3151.0,3045.0,0.735107,0.070007,-0.673645,0.03009,-1.0,0.0,-1.0,7809.0,526.0,626.0,-338.0,14.0,-50.0,16.0,37.0,-339.0,0.994616,0.062385,0.08259,15444.0,956.0,1028.0,-12.0,6.0,-2.0
2883.0,2763.0,2835.0,3147.0,3039.0,0.735046,0.069946,-0.673706,0.03009,-1.0,0.0,-1.0,7795.0,509.0,597.0,-352.0,-1.0,-78.0,45.0,27.0,-356.0,0.99462,0.062283,0.082426,15518.0,928.0,1036.0,-10.0,5.0,-1.0
2879.0,2765.0,2843.0,3151.0,3047.0,0.734985,0.070068,-0.673767,0.030029,0.0,-1.0,-1.0,7788.0,475.0,589.0,-359.0,-37.0,-84.0,55.0,-6.0,-366.0,0.994626,0.062533,0.082234,15666.0,858.0,1302.0,15.0,-3.0,-15.0
2883.0,2767.0,2834.0,3151.0,3039.0,0.734985,0.07019,-0.673767,0.03009,1.0,-1.0,-1.0,7799.0,475.0,605.0,-349.0,-38.0,-68.0,40.0,-10.0,-355.0,0.994642,0.06263,0.08222,15658.0,992.0,1314.0,30.0,0.0,-18.0
2885.0,2767.0,2835.0,3152.0,3039.0,0.735046,0.070618,-0.673706,0.030151,1.0,0.0,-2.0,7878.0,474.0,661.0,-270.0,-43.0,-13.0,-5.0,-26.0,-272.0,0.994669,0.063188,0.082336,16094.0,914.0,1522.0,33.0,13.0,-27.0
2891.0,2767.0,2841.0,3147.0,3045.0,0.735168,0.070862,-0.673523,0.030151,1.0,1.0,-2.0,7920.0,499.0,688.0,-227.0,-21.0,10.0,-27.0,-10.0,-226.0,0.994579,0.063575,0.082727,16038.0,1196.0,1520.0,40.0,42.0,-29.0
2879.0,2765.0,2835.0,3151.0,3046.0,0.735596,0.07135,-0.672974,0.030151,0.0,2.0,-2.0,7851.0,566.0,699.0,-294.0,38.0,10.0,-42.0,51.0,-289.0,0.994376,0.064388,0.084026,15410.0,1382.0,1410.0,21.0,48.0,-25.0
2882.0,2771.0,2833.0,3155.0,3035.0,0.735718,0.071472,-0.672852,0.030029,0.0,1.0,-1.0,7806.0,579.0,701.0,-339.0,48.0,10.0,-48.0,63.0,-333.0,0.99435,0.064756,0.084345,15366.0,1192.0,1424.0,3.0,25.0,-15.0
