flex_1,flex_2,flex_3,flex_4,flex_5,Qw,Qx,Qy,Qz,GYRx,GYRy,GYRz,ACCx,ACCy,ACCz,ACCx_real,ACCy_real,ACCz_real,ACCx_world,ACCy_world,ACCz_world,GRAx,GRAy,GRAz,ACCx_raw,ACCy_raw,ACCz_raw,GYRx_raw,GYRy_raw,GYRz_raw
2878.0,2759.0,2831.0,3152.0,3039.0,1.0,0.0,0.0,0.0,0.0,0.0,0.0,0.0,0.0,0.0,0.0,0.0,0.0,0.0,0.0,0.0,0.0,0.0,0.0,0.0,0.0,0.0,0.0,0.0,0.0
2864.0,2755.0,2815.0,3135.0,3051.0,0.883057,0.026855,-0.468384,0.008179,-1.0,0.0,-1.0,7525.0,302.0,2012.0,744.0,-23.0,-2573.0,2545.0,110.0,-825.0,0.827658,0.039768,0.559751,14888.0,466.0,4040.0,-15.0,13.0,-6.0
2878.0,2751.0,2815.0,3135.0,3047.0,0.881897,0.026855,-0.470581,0.00824,0.0,-1.0,0.0,7584.0,305.0,2050.0,780.0,-19.0,-2501.0,2509.0,110.0,-742.0,0.830451,0.039613,0.555642,15508.0,706.0,4230.0,3.0,-7.0,7.0
2870.0,2751.0,2831.0,3151.0,3023.0,0.881348,0.026917,-0.471619,0.00824,-1.0,0.0,0.0,7627.0,322.0,2065.0,813.0,-3.0,-2470.0,2503.0,124.0,-691.0,0.831764,0.039674,0.553693,15506.0,746.0,4196.0,-6.0,12.0,14.0
2877.0,2763.0,2831.0,3143.0,3057.0,0.880371,0.026855,-0.47345,0.008301,-1.0,2.0,0.0,7639.0,329.0,2060.0,806.0,6.0,-2447.0,2483.0,132.0,-673.0,0.834069,0.039426,0.550246,15322.0,682.0,4108.0,-11.0,46.0,5.0
2883.0,2751.0,2815.0,3153.0,3039.0,0.879944,0.026855,-0.474182,0.008301,-1.0,3.0,0.0,7647.0,335.0,2052.0,807.0,12.0,-2443.0,2481.0,137.0,-666.0,0.834953,0.03939,0.5488,15318.0,668.0,4008.0,-18.0,69.0,5.0
2871.0,2755.0,2829.0,3141.0,3027.0,0.879211,0.026672,-0.475586,0.00824,-2.0,1.0,-1.0,7507.0,300.0,1996.0,652.0,-20.0,-2478.0,2428.0,108.0,-808.0,0.836721,0.039064,0.546187,14468.0,430.0,3810.0,-24.0,45.0,-4.0
2874.0,2759.0,2823.0,3151.0,3047.0,0.878662,0.026611,-0.476562,0.00824,-1.0,-1.0,-1.0,7468.0,279.0,2008.0,603.0,-39.0,-2450.0,2381.0,88.0,-829.0,0.837913,0.038911,0.544295,14838.0,478.0,4164.0,-6.0,-9.0,-9.0
2885.0,2768.0,2815.0,3127.0,3039.0,0.877502,0.026794,-0.47876,0.00824,0.0,-2.0,0.0,7542.0,308.0,2115.0,655.0,-12.0,-2309.0,2294.0,107.0,-697.0,0.840667,0.039135,0.54015,15354.0,764.0,4546.0,13.0,-28.0,2.0
2869.0,2761.0,2821.0,3151.0,3031.0,0.876953,0.026917,-0.479797,0.00824,0.0,-1.0,-1.0,7584.0,320.0,2157.0,686.0,-1.0,-2251.0,2263.0,115.0,-633.0,0.841963,0.039302,0.538185,15450.0,722.0,4556.0,14.0,-20.0,-3.0
2877.0,2754.0,2839.0,3139.0,3014.0,0.875916,0.027161,-0.481567,0.00824,-1.0,1.0,0.0,7664.0,391.0,2220.0,749.0,66.0,-2159.0,2219.0,176.0,-519.0,0.844072,0.039645,0.534651,15440.0,972.0,4428.0,-9.0,26.0,2.0
2859.0,2751.0,2838.0,3159.0,3034.0,0.875549,0.0271,-0.4823,0.008179,-2.0,1.0,0.0,7659.0,380.0,2190.0,736.0,55.0,-2178.0,2229.0,166.0,-537.0,0.844998,0.039565,0.533306,15230.0,626.0,4130.0,-30.0,44.0,4.0
2879.0,2759.0,2829.0,3147.0,3039.0,0.874634,0.026855,-0.483948,0.008179,-1.0,1.0,0.0,7562.0,308.0,2054.0,623.0,-11.0,-2288.0,2267.0,107.0,-685.0,0.846993,0.039061,0.530124,14754.0,496.0,3656.0,-9.0,28.0,10.0
2877.0,2761.0,2827.0,3151.0,3023.0,0.874084,0.026855,-0.484863,0.00824,-1.0,0.0,0.0,7508.0,298.0,1988.0,560.0,-21.0,-2339.0,2278.0,101.0,-761.0,0.848065,0.038958,0.528278,14780.0,530.0,3638.0,-1.0,1.0,4.0
2869.0,2758.0,2832.0,3139.0,3025.0,0.872925,0.026978,-0.487,0.00824,0.0,-1.0,-1.0,7532.0,306.0,1972.0,563.0,-14.0,-2321.0,2268.0,107.0,-738.0,0.850672,0.039073,0.524169,15294.0,682.0,4024.0,2.0,-18.0,-3.0
2865.0,2763.0,2830.0,3153.0,3031.0,0.872375,0.027039,-0.487976,0.00824,0.0,0.0,-1.0,7594.0,314.0,2009.0,615.0,-6.0,-2269.0,2253.0,111.0,-661.0,0.851842,0.039134,0.522255,15576.0,696.0,4264.0,2.0,1.0,-8.0
2879.0,2762.0,2831.0,3139.0,3047.0,0.871582,0.027161,-0.48938,0.008118,-1.0,3.0,-1.0,7657.0,344.0,2074.0,665.0,21.0,-2181.0,2205.0,133.0,-564.0,0.85351,0.0394,0.519491,15280.0,802.0,4264.0,-13.0,70.0,-8.0
2867.0,2752.0,2831.0,3159.0,3057.0,0.871338,0.0271,-0.489868,0.008057,-2.0,3.0,-1.0,7644.0,356.0,2086.0,647.0,33.0,-2162.0,2179.0,144.0,-567.0,0.854118,0.039332,0.518589,15212.0,760.0,4252.0,-23.0,80.0,-2.0
2884.0,2746.0,2832.0,3135.0,3031.0,0.870728,0.026978,-0.490906,0.007935,-1.0,3.0,0.0,7608.0,342.0,2098.0,601.0,20.0,-2133.0,2132.0,129.0,-586.0,0.855318,0.03919,0.516513,15088.0,624.0,4208.0,-21.0,81.0,4.0
2879.0,2754.0,2829.0,3141.0,3039.0,0.870483,0.026917,-0.491394,0.007935,-1.0,3.0,0.0,7547.0,333.0,2083.0,535.0,12.0,-2140.0,2105.0,122.0,-645.0,0.855928,0.039063,0.515612,14626.0,588.0,4038.0,-10.0,74.0,5.0
2867.0,2757.0,2819.0,3147.0,3031.0,0.869568,0.027161,-0.49292,0.008057,1.0,-2.0,-1.0,7412.0,282.0,2074.0,385.0,-39.0,-2124.0,2019.0,73.0,-759.0,0.857692,0.039293,0.512505,14704.0,532.0,4264.0,45.0,-31.0,-2.0
2883.0,2755.0,2787.0,3134.0,3039.0,0.868958,0.027405,-0.494019,0.00824,2.0,-4.0,0.0,7451.0,330.0,2141.0,413.0,6.0,-2039.0,1960.0,114.0,-685.0,0.859014,0.039486,0.51035,15240.0,1038.0,4754.0,52.0,-69.0,10.0
2879.0,2757.0,2821.0,3153.0,3039.0,0.867798,0.027588,-0.496033,0.008423,-1.0,-2.0,1.0,7617.0,397.0,2262.0,560.0,73.0,-1885.0,1903.0,171.0,-469.0,0.861377,0.039525,0.506334,15668.0,790.0,4686.0,-10.0,-26.0,27.0
2866.0,2759.0,2810.0,3150.0,3019.0,0.867371,0.027588,-0.496826,0.008484,-1.0,0.0,0.0,7665.0,375.0,2271.0,600.0,52.0,-1864.0,1907.0,149.0,-421.0,0.862333,0.039428,0.504806,15566.0,606.0,4550.0,-3.0,13.0,22.0
2881.0,2767.0,2845.0,3151.0,3058.0,0.866638,0.027649,-0.498047,0.008667,0.0,2.0,0.0,7627.0,349.0,2178.0,551.0,27.0,-1937.0,1947.0,129.0,-496.0,0.863732,0.03929,0.502322,14966.0,622.0,3962.0,5.0,51.0,11.0
2879.0,2767.0,2838.0,3143.0,3023.0,0.866272,0.027588,-0.498718,0.008728,-1.0,1.0,0.0,7589.0,332.0,2113.0,506.0,11.0,-1991.0,1973.0,117.0,-559.0,0.864533,0.039092,0.501022,14946.0,548.0,3834.0,-9.0,36.0,20.0
2878.0,2743.0,2839.0,3139.0,3059.0,0.865295,0.027344,-0.500427,0.008789,-2.0,-1.0,0.0,7465.0,285.0,1991.0,366.0,-30.0,-2085.0,1988.0,82.0,-721.0,0.866515,0.038524,0.497638,14618.0,372.0,3756.0,-24.0,-20.0,5.0
2871.0,2762.0,2827.0,3147.0,3055.0,0.864685,0.027283,-0.501465,0.008789,-1.0,-3.0,-1.0,7471.0,248.0,1989.0,362.0,-66.0,-2070.0,1976.0,45.0,-714.0,0.867698,0.038367,0.495546,15100.0,288.0,4020.0,-12.0,-50.0,-6.0
2864.0,2768.0,2832.0,3143.0,3023.0,0.863525,0.027222,-0.503418,0.008728,-1.0,-2.0,-1.0,7589.0,274.0,2084.0,462.0,-39.0,-1943.0,1917.0,63.0,-554.0,0.869904,0.038226,0.491582,15592.0,692.0,4502.0,-14.0,-27.0,-3.0
2887.0,2747.0,2839.0,3183.0,2991.0,0.863098,0.027161,-0.504211,0.008667,-1.0,0.0,-1.0,7637.0,275.0,2123.0,503.0,-37.0,-1891.0,1893.0,61.0,-490.0,0.870839,0.038145,0.490047,15524.0,530.0,4466.0,-20.0,6.0,-7.0
2889.0,2753.0,2826.0,3111.0,3069.0,0.862488,0.027222,-0.50531,0.008545,-1.0,3.0,-1.0,7678.0,310.0,2165.0,533.0,-3.0,-1831.0,1856.0,91.0,-428.0,0.872113,0.038321,0.487879,15268.0,802.0,4342.0,-11.0,74.0,-12.0
2871.0,2763.0,2839.0,3159.0,3045.0,0.862244,0.027222,-0.505676,0.008423,-2.0,3.0,-1.0,7625.0,326.0,2135.0,477.0,11.0,-1855.0,1849.0,107.0,-486.0,0.872491,0.038425,0.487086,14864.0,702.0,4042.0,-24.0,86.0,-17.0
2871.0,2759.0,2832.0,3139.0,3043.0,0.861633,0.027039,-0.506653,0.008118,-2.0,1.0,-1.0,7491.0,322.0,2081.0,334.0,7.0,-1892.0,1813.0,106.0,-625.0,0.873537,0.038369,0.48505,14700.0,582.0,4080.0,-32.0,24.0,-8.0
2864.0,2743.0,2847.0,3165.0,3025.0,0.861206,0.026978,-0.507385,0.008057,-1.0,-1.0,-1.0,7461.0,315.0,2063.0,298.0,1.0,-1898.0,1802.0,100.0,-657.0,0.874361,0.038291,0.483573,14812.0,608.0,4028.0,-17.0,-7.0,-5.0
2887.0,2754.0,2806.0,3135.0,3031.0,0.860291,0.027039,-0.509033,0.007935,-1.0,-1.0,-1.0,7549.0,358.0,2117.0,370.0,43.0,-1817.0,1767.0,137.0,-546.0,0.876262,0.038444,0.480317,15430.0,840.0,4402.0,-15.0,-13.0,-1.0
2864.0,2758.0,2823.0,3151.0,3029.0,0.859863,0.027039,-0.509766,0.007874,-1.0,0.0,-1.0,7583.0,354.0,2133.0,397.0,38.0,-1789.0,1756.0,129.0,-506.0,0.877083,0.038472,0.478835,15294.0,672.0,4358.0,-14.0,9.0,-2.0
2883.0,2766.0,2833.0,3135.0,3031.0,0.859131,0.027039,-0.510986,0.007812,-1.0,1.0,0.0,7597.0,361.0,2145.0,400.0,45.0,-1757.0,1731.0,134.0,-483.0,0.878431,0.038475,0.476329,15180.0,840.0,4262.0,-1.0,31.0,0.0
2870.0,2730.0,2815.0,3155.0,3015.0,0.858765,0.0271,-0.511536,0.007812,-1.0,1.0,0.0,7587.0,374.0,2144.0,386.0,58.0,-1748.0,1716.0,147.0,-489.0,0.879001,0.038552,0.475135,15136.0,808.0,4292.0,-10.0,37.0,3.0
2859.0,2743.0,2850.0,3152.0,3029.0,0.858154,0.026978,-0.512573,0.007751,-1.0,0.0,0.0,7507.0,344.0,2120.0,296.0,29.0,-1755.0,1682.0,119.0,-568.0,0.880152,0.038355,0.47303,14716.0,536.0,4146.0,-15.0,18.0,5.0
2867.0,2758.0,2832.0,3152.0,3025.0,0.857727,0.026978,-0.513306,0.007812,0.0,-1.0,0.0,7485.0,319.0,2118.0,268.0,5.0,-1744.0,1661.0,95.0,-586.0,0.880974,0.038258,0.471546,14894.0,518.0,4266.0,7.0,-14.0,3.0
2865.0,2771.0,2822.0,3131.0,3034.0,0.85675,0.027161,-0.514954,0.007996,0.0,-3.0,0.0,7521.0,334.0,2163.0,289.0,20.0,-1672.0,1609.0,107.0,-526.0,0.882808,0.038305,0.46817,15264.0,752.0,4518.0,15.0,-46.0,13.0
2887.0,2747.0,2826.0,3133.0,3011.0,0.856201,0.027222,-0.515808,0.008057,0.0,-2.0,0.0,7569.0,335.0,2183.0,329.0,21.0,-1637.0,1598.0,106.0,-471.0,0.88371,0.038303,0.466346,15466.0,660.0,4460.0,7.0,-36.0,11.0
2863.0,2755.0,2843.0,3165.0,3055.0,0.855347,0.027222,-0.517273,0.008179,0.0,0.0,0.0,7637.0,321.0,2166.0,384.0,8.0,-1629.0,1618.0,92.0,-414.0,0.885341,0.038107,0.463373,15450.0,616.0,4260.0,6.0,5.0,12.0
2875.0,2759.0,2837.0,3151.0,3025.0,0.85498,0.027222,-0.517822,0.00824,0.0,1.0,0.0,7651.0,321.0,2149.0,393.0,9.0,-1637.0,1630.0,93.0,-408.0,0.885904,0.038015,0.462179,15308.0,664.0,4170.0,3.0,31.0,9.0
2879.0,2765.0,2837.0,3151.0,3039.0,0.854431,0.027283,-0.518799,0.00824,-1.0,2.0,-1.0,7598.0,312.0,2084.0,331.0,0.0,-1686.0,1646.0,88.0,-482.0,0.887005,0.038073,0.460224,14894.0,602.0,3988.0,-1.0,53.0,-6.0
2882.0,2768.0,2847.0,3131.0,3047.0,0.854126,0.027344,-0.519226,0.008179,-1.0,2.0,-1.0,7537.0,285.0,2041.0,267.0,-28.0,-1721.0,1649.0,63.0,-554.0,0.887416,0.038217,0.459255,14672.0,438.0,3740.0,-1.0,46.0,-19.0
2864.0,2747.0,2815.0,3119.0,3005.0,0.853394,0.027527,-0.520447,0.008118,0.0,-1.0,-1.0,7480.0,264.0,2052.0,199.0,-51.0,-1689.0,1592.0,39.0,-596.0,0.888739,0.038533,0.456724,14920.0,626.0,4338.0,18.0,-8.0,-15.0
2870.0,2767.0,2829.0,3150.0,3031.0,0.852966,0.02771,-0.521118,0.008118,0.0,-1.0,-1.0,7505.0,294.0,2103.0,218.0,-23.0,-1626.0,1545.0,64.0,-547.0,0.889442,0.038811,0.455285,15212.0,800.0,4514.0,16.0,-20.0,-8.0
2865.0,2759.0,2835.0,3152.0,3026.0,0.852173,0.027771,-0.5224,0.008118,-1.0,-1.0,0.0,7598.0,345.0,2227.0,300.0,26.0,-1480.0,1452.0,104.0,-401.0,0.890801,0.03885,0.452592,15462.0,746.0,4788.0,-4.0,-2.0,5.0
2879.0,2765.0,2837.0,3149.0,3039.0,0.851868,0.027832,-0.522888,0.008118,-1.0,1.0,0.0,7640.0,361.0,2263.0,338.0,42.0,-1436.0,1429.0,117.0,-345.0,0.891315,0.038929,0.451558,15472.0,844.0,4680.0,0.0,25.0,4.0
2879.0,2758.0,2826.0,3141.0,3021.0,0.85144,0.027893,-0.523682,0.008057,-1.0,1.0,-1.0,7567.0,360.0,2243.0,257.0,40.0,-1443.0,1400.0,116.0,-418.0,0.892217,0.03906,0.449995,14834.0,576.0,4324.0,-1.0,34.0,-2.0
2870.0,2763.0,2819.0,3155.0,3035.0,0.851135,0.027954,-0.52417,0.008118,0.0,0.0,0.0,7512.0,332.0,2212.0,198.0,11.0,-1465.0,1395.0,90.0,-480.0,0.892733,0.039075,0.448962,14734.0,526.0,4230.0,16.0,6.0,5.0
2867.0,2759.0,2823.0,3151.0,3039.0,0.85022,0.028198,-0.525574,0.008362,1.0,-2.0,0.0,7481.0,337.0,2185.0,155.0,16.0,-1467.0,1379.0,96.0,-514.0,0.894178,0.03916,0.445921,14912.0,700.0,4380.0,27.0,-40.0,13.0
2869.0,2750.0,2821.0,3139.0,3025.0,0.849731,0.02832,-0.526367,0.008484,1.0,-3.0,0.0,7481.0,328.0,2170.0,148.0,6.0,-1469.0,1379.0,87.0,-519.0,0.895022,0.039198,0.444251,15026.0,590.0,4318.0,24.0,-58.0,12.0
2867.0,2742.0,2815.0,3127.0,3021.0,0.848694,0.028503,-0.528015,0.008728,0.0,-2.0,0.0,7589.0,343.0,2181.0,242.0,22.0,-1429.0,1386.0,100.0,-411.0,0.896744,0.039164,0.440745,15552.0,714.0,4344.0,14.0,-37.0,19.0
2877.0,2763.0,2832.0,3157.0,3037.0,0.848328,0.028503,-0.528625,0.00885,0.0,-1.0,0.0,7640.0,331.0,2166.0,288.0,11.0,-1434.0,1411.0,89.0,-371.0,0.8974,0.039004,0.439481,15554.0,590.0,4238.0,8.0,0.0,18.0
2871.0,2754.0,2831.0,3153.0,3035.0,0.847778,0.028442,-0.529541,0.008972,-1.0,2.0,0.0,7631.0,305.0,2102.0,271.0,-12.0,-1482.0,1449.0,69.0,-405.0,0.898377,0.038723,0.437586,15026.0,496.0,3926.0,-3.0,57.0,11.0
2861.0,2742.0,2832.0,3151.0,3015.0,0.847534,0.028442,-0.529907,0.009033,-1.0,2.0,0.0,7571.0,296.0,2064.0,208.0,-20.0,-1514.0,1451.0,64.0,-475.0,0.898743,0.038638,0.436785,14792.0,558.0,3920.0,-3.0,52.0,6.0
2869.0,2750.0,2833.0,3135.0,3023.0,0.846985,0.02832,-0.530762,0.009033,-1.0,0.0,0.0,7527.0,282.0,2075.0,157.0,-32.0,-1488.0,1407.0,51.0,-507.0,0.899606,0.038385,0.434955,15132.0,506.0,4296.0,-14.0,16.0,7.0
2876.0,2755.0,2832.0,3147.0,3025.0,0.84668,0.028259,-0.53125,0.009094,-1.0,0.0,0.0,7536.0,272.0,2106.0,162.0,-40.0,-1448.0,1374.0,40.0,-484.0,0.900111,0.03819,0.433924,15126.0,482.0,4418.0,-16.0,13.0,10.0
2875.0,2763.0,2833.0,3151.0,3027.0,0.84613,0.028137,-0.532166,0.009155,0.0,0.0,0.0,7570.0,257.0,2185.0,188.0,-53.0,-1354.0,1302.0,22.0,-417.0,0.901078,0.037871,0.432029,15272.0,560.0,4624.0,12.0,10.0,3.0
2873.0,2745.0,2837.0,3135.0,3037.0,0.845886,0.028259,-0.532532,0.009216,0.0,0.0,0.0,7599.0,308.0,2244.0,214.0,-3.0,-1288.0,1252.0,68.0,-362.0,0.901443,0.037992,0.43122,15364.0,996.0,4802.0,12.0,21.0,7.0
2863.0,2751.0,2821.0,3142.0,3047.0,0.845459,0.028137,-0.533203,0.009155,-2.0,1.0,0.0,7625.0,336.0,2274.0,234.0,26.0,-1246.0,1222.0,94.0,-323.0,0.902118,0.037814,0.429787,15322.0,468.0,4514.0,-29.0,40.0,21.0
2867.0,2759.0,2832.0,3143.0,3031.0,0.845276,0.027954,-0.533508,0.009338,-1.0,2.0,1.0,7617.0,312.0,2247.0,224.0,6.0,-1268.0,1239.0,75.0,-341.0,0.902445,0.037294,0.429166,15098.0,572.0,4290.0,-6.0,55.0,42.0
2878.0,2757.0,2827.0,3147.0,3031.0,0.844666,0.027893,-0.534485,0.009644,0.0,-3.0,0.0,7399.0,324.0,2155.0,-2.0,22.0,-1343.0,1210.0,99.0,-574.0,0.90346,0.036812,0.427101,14468.0,498.0,4134.0,12.0,-51.0,14.0
2864.0,2755.0,2821.0,3143.0,3024.0,0.844116,0.027954,-0.535339,0.009766,1.0,-4.0,0.0,7413.0,296.0,2154.0,4.0,-4.0,-1329.0,1202.0,72.0,-561.0,0.904323,0.036737,0.425258,14998.0,432.0,4328.0,32.0,-91.0,16.0
2875.0,2773.0,2823.0,3134.0,3025.0,0.842896,0.02832,-0.537231,0.010193,1.0,-5.0,1.0,7506.0,334.0,2198.0,82.0,32.0,-1252.0,1166.0,104.0,-451.0,0.906237,0.03679,0.421157,15386.0,810.0,4506.0,43.0,-99.0,28.0
2867.0,2763.0,2829.0,3151.0,3035.0,0.842346,0.028442,-0.538086,0.010376,1.0,-4.0,1.0,7597.0,351.0,2230.0,166.0,49.0,-1204.0,1158.0,117.0,-352.0,0.907099,0.03675,0.419309,15778.0,772.0,4686.0,31.0,-75.0,24.0
2874.0,2763.0,2823.0,3149.0,3035.0,0.841675,0.028625,-0.539062,0.01062,0.0,2.0,0.0,7717.0,327.0,2197.0,278.0,26.0,-1220.0,1221.0,95.0,-255.0,0.908039,0.036737,0.417121,15442.0,480.0,4042.0,14.0,51.0,15.0
2879.0,2751.0,2815.0,3139.0,3024.0,0.841553,0.028625,-0.539246,0.010742,0.0,3.0,0.0,7692.0,317.0,2144.0,251.0,17.0,-1269.0,1255.0,89.0,-300.0,0.908222,0.036594,0.416721,15206.0,556.0,3976.0,8.0,81.0,8.0
2875.0,2759.0,2823.0,3139.0,3035.0,0.841431,0.028442,-0.539551,0.010803,-2.0,4.0,0.0,7583.0,292.0,2018.0,139.0,-4.0,-1391.0,1320.0,77.0,-452.0,0.908604,0.036207,0.416198,14648.0,438.0,3602.0,-32.0,97.0,18.0
2871.0,2759.0,2818.0,3153.0,3043.0,0.841248,0.028259,-0.539795,0.010742,-2.0,2.0,0.0,7460.0,232.0,1947.0,15.0,-62.0,-1457.0,1331.0,24.0,-594.0,0.908809,0.035949,0.415636,14158.0,28.0,3512.0,-30.0,55.0,2.0
2868.0,2758.0,2829.0,3149.0,3031.0,0.840454,0.028381,-0.540955,0.010925,2.0,-2.0,-1.0,7461.0,175.0,1987.0,6.0,-118.0,-1396.0,1276.0,-34.0,-575.0,0.909915,0.035886,0.413045,15334.0,592.0,4390.0,56.0,-35.0,-5.0
2869.0,2753.0,2832.0,3143.0,3030.0,0.840088,0.028625,-0.541565,0.011047,1.0,-2.0,-1.0,7532.0,241.0,2070.0,72.0,-54.0,-1303.0,1217.0,23.0,-472.0,0.910557,0.03613,0.411758,15508.0,862.0,4662.0,42.0,-23.0,-2.0
2871.0,2753.0,2823.0,3143.0,3031.0,0.839661,0.028809,-0.542236,0.011047,-1.0,1.0,0.0,7674.0,326.0,2238.0,209.0,27.0,-1123.0,1106.0,92.0,-269.0,0.911226,0.036398,0.410302,15570.0,812.0,4768.0,-15.0,43.0,1.0
2875.0,2759.0,2831.0,3151.0,3029.0,0.839539,0.028748,-0.542358,0.010925,-2.0,2.0,0.0,7659.0,332.0,2247.0,193.0,33.0,-1111.0,1088.0,97.0,-278.0,0.91129,0.036419,0.409965,15108.0,686.0,4458.0,-29.0,63.0,3.0
2877.0,2736.0,2833.0,3149.0,3029.0,0.839294,0.028625,-0.542786,0.010742,-2.0,1.0,-1.0,7549.0,325.0,2209.0,80.0,26.0,-1142.0,1071.0,93.0,-393.0,0.911729,0.036389,0.409095,14862.0,592.0,4282.0,-23.0,31.0,-4.0
2878.0,2751.0,2823.0,3147.0,3023.0,0.83905,0.028564,-0.543152,0.010681,-1.0,0.0,0.0,7518.0,319.0,2174.0,46.0,21.0,-1170.0,1083.0,90.0,-434.0,0.912074,0.036331,0.40829,14848.0,612.0,4146.0,-19.0,12.0,2.0
2864.0,2757.0,2819.0,3127.0,3025.0,-1.21228,-0.763245,-1.008545,-1.946106,-25099.0,31471.0,-26022.0,-14306.0,8908.0,20806.0,-18610.0,27127.0,-9154.0,-19055.0,10071.0,-17644.0,0.525432,5.776003,3.657247,14960.0,448.0,4232.0,11.0,-32.0,-5.0
2875.0,2767.0,2829.0,3151.0,3030.0,0.838013,0.028625,-0.5448,0.010742,1.0,-2.0,-1.0,7513.0,294.0,2150.0,27.0,-3.0,-1165.0,1074.0,66.0,-446.0,0.913713,0.036272,0.404754,15328.0,806.0,4462.0,24.0,-31.0,-2.0
2879.0,2763.0,2826.0,3167.0,3030.0,0.837524,0.028748,-0.545593,0.01062,-2.0,1.0,0.0,7609.0,348.0,2202.0,117.0,48.0,-1099.0,1048.0,111.0,-334.0,0.914506,0.036565,0.403062,15422.0,614.0,4498.0,-29.0,30.0,1.0
2879.0,2759.0,2822.0,3135.0,3031.0,0.837402,0.028564,-0.545776,0.010559,-2.0,2.0,-1.0,7603.0,322.0,2191.0,110.0,24.0,-1107.0,1054.0,88.0,-344.0,0.914672,0.036314,0.402666,15094.0,464.0,4268.0,-30.0,56.0,-2.0
2868.0,2751.0,2827.0,3143.0,3035.0,0.837036,0.028625,-0.546265,0.010559,0.0,0.0,-1.0,7502.0,263.0,2175.0,5.0,-35.0,-1114.0,1021.0,31.0,-443.0,0.915091,0.036385,0.401516,14822.0,474.0,4492.0,22.0,15.0,-8.0
2871.0,2753.0,2839.0,3155.0,3033.0,0.836792,0.028748,-0.546631,0.01062,0.0,-1.0,0.0,7495.0,295.0,2204.0,-4.0,-4.0,-1078.0,984.0,60.0,-435.0,0.915443,0.036501,0.400702,14934.0,844.0,4554.0,22.0,-9.0,0.0
2879.0,2762.0,2827.0,3147.0,3011.0,0.836121,0.028809,-0.547668,0.010559,-1.0,-3.0,0.0,7499.0,294.0,2230.0,-8.0,-5.0,-1034.0,943.0,56.0,-419.0,0.916442,0.036609,0.398439,15112.0,408.0,4496.0,-6.0,-54.0,3.0
2871.0,2757.0,2864.0,3286.0,3031.0,0.835693,0.028809,-0.548279,0.01062,0.0,-3.0,0.0,7553.0,280.0,2256.0,40.0,-19.0,-996.0,928.0,40.0,-359.0,0.916998,0.036505,0.397057,15468.0,550.0,4660.0,16.0,-48.0,1.0
2876.0,2751.0,2827.0,3142.0,3039.0,0.835083,0.028992,-0.549194,0.010681,0.0,-1.0,-1.0,7592.0,301.0,2246.0,72.0,0.0,-990.0,936.0,58.0,-324.0,0.917865,0.036689,0.395023,15182.0,576.0,4346.0,2.0,-5.0,-4.0
2878.0,2759.0,2829.0,3151.0,3035.0,0.834839,0.028992,-0.549561,0.01062,-1.0,0.0,0.0,7586.0,301.0,2223.0,64.0,0.0,-1006.0,947.0,59.0,-337.0,0.918205,0.036734,0.394211,15072.0,628.0,4266.0,-7.0,3.0,0.0
2871.0,2759.0,2823.0,3151.0,3039.0,0.834351,0.028931,-0.550354,0.010437,-2.0,0.0,-1.0,7542.0,300.0,2151.0,13.0,-1.0,-1064.0,981.0,62.0,-405.0,0.91898,0.036789,0.392523,14994.0,524.0,4154.0,-24.0,3.0,-11.0
2871.0,2754.0,2828.0,3147.0,3037.0,0.834106,0.02887,-0.550781,0.010376,-1.0,-1.0,-1.0,7522.0,277.0,2130.0,-9.0,-23.0,-1078.0,987.0,41.0,-431.0,0.919419,0.036731,0.391648,14890.0,430.0,4156.0,-12.0,-1.0,-12.0
2853.0,2763.0,2833.0,3147.0,3031.0,0.833435,0.028931,-0.551758,0.010254,-1.0,-2.0,-1.0,7509.0,285.0,2138.0,-30.0,-17.0,-1052.0,956.0,46.0,-437.0,0.920302,0.036908,0.389445,15176.0,692.0,4426.0,-3.0,-39.0,-7.0
2879.0,2759.0,2827.0,3151.0,3039.0,0.833069,0.028931,-0.552307,0.010193,-1.0,-2.0,0.0,7545.0,303.0,2176.0,1.0,0.0,-1004.0,923.0,59.0,-388.0,0.92081,0.036943,0.388227,15312.0,712.0,4534.0,-16.0,-37.0,2.0
2867.0,2763.0,2832.0,3152.0,3039.0,0.83252,0.028809,-0.553162,0.010071,-1.0,-1.0,-1.0,7615.0,292.0,2218.0,65.0,-9.0,-947.0,897.0,46.0,-306.0,0.921616,0.036826,0.386372,15444.0,564.0,4544.0,-12.0,-4.0,-6.0
2871.0,2757.0,2831.0,3135.0,3027.0,0.832336,0.028748,-0.553467,0.01001,-1.0,0.0,-1.0,7630.0,304.0,2223.0,77.0,2.0,-936.0,891.0,55.0,-289.0,0.921917,0.036775,0.385732,15294.0,688.0,4466.0,-15.0,21.0,-7.0
2871.0,2763.0,2829.0,3139.0,3035.0,0.83197,0.028687,-0.553955,0.009766,-1.0,0.0,-1.0,7529.0,275.0,2171.0,-26.0,-27.0,-979.0,893.0,30.0,-401.0,0.922309,0.036913,0.384581,14700.0,348.0,4224.0,-14.0,6.0,-18.0
2881.0,2757.0,2823.0,3143.0,3031.0,0.831665,0.028748,-0.554382,0.009705,0.0,-1.0,-1.0,7510.0,257.0,2164.0,-48.0,-46.0,-978.0,885.0,12.0,-421.0,0.922679,0.037057,0.383595,14940.0,480.0,4300.0,11.0,-20.0,-18.0
2871.0,2765.0,2829.0,3152.0,3026.0,0.831055,0.028992,-0.555359,0.009644,-1.0,-2.0,-1.0,7546.0,306.0,2196.0,-20.0,-1.0,-929.0,849.0,54.0,-372.0,0.923626,0.037476,0.381481,15212.0,744.0,4426.0,-1.0,-31.0,-16.0
2877.0,2759.0,2827.0,3139.0,3027.0,0.83075,0.028992,-0.555847,0.009521,-1.0,-2.0,-1.0,7551.0,296.0,2190.0,-19.0,-11.0,-926.0,847.0,43.0,-370.0,0.924092,0.037585,0.380429,15102.0,502.0,4340.0,-7.0,-33.0,-15.0
2871.0,2755.0,2821.0,3143.0,3038.0,0.830078,0.029175,-0.556824,0.009399,-1.0,-2.0,-1.0,7590.0,337.0,2199.0,12.0,25.0,-899.0,833.0,77.0,-327.0,0.924963,0.037967,0.378214,15374.0,956.0,4458.0,-2.0,-30.0,-17.0
2871.0,2757.0,2835.0,3151.0,3045.0,0.829834,0.029175,-0.55719,0.009216,-2.0,-1.0,-1.0,7613.0,360.0,2200.0,33.0,47.0,-891.0,833.0,98.0,-303.0,0.925288,0.03815,0.377398,15366.0,804.0,4376.0,-28.0,-6.0,-13.0
2877.0,2759.0,2826.0,3153.0,3029.0,0.829468,0.029053,-0.557678,0.00885,-2.0,1.0,-1.0,7559.0,342.0,2143.0,-24.0,28.0,-939.0,857.0,82.0,-374.0,0.925666,0.038326,0.376246,14782.0,490.0,4036.0,-35.0,30.0,-20.0
2871.0,2758.0,2869.0,3151.0,3023.0,0.829285,0.028992,-0.557983,0.008728,-1.0,0.0,-1.0,7514.0,309.0,2113.0,-71.0,-5.0,-963.0,864.0,51.0,-427.0,0.92596,0.038345,0.375603,14756.0,456.0,4038.0,-12.0,16.0,-20.0
2878.0,2761.0,2823.0,3149.0,3027.0,0.828735,0.029175,-0.558777,0.008606,0.0,-2.0,-1.0,7462.0,345.0,2104.0,-129.0,27.0,-958.0,837.0,84.0,-476.0,0.926658,0.038739,0.373794,14954.0,816.0,4272.0,5.0,-32.0,-10.0
2869.0,2757.0,2819.0,3138.0,3021.0,0.82843,0.029236,-0.559265,0.008545,-1.0,-2.0,0.0,7485.0,361.0,2132.0,-109.0,42.0,-921.0,810.0,97.0,-442.0,0.927124,0.038882,0.372737,15096.0,788.0,4402.0,-5.0,-42.0,0.0
2878.0,2749.0,2822.0,3161.0,3045.0,0.827759,0.029297,-0.560242,0.008545,0.0,-2.0,0.0,7557.0,346.0,2171.0,-45.0,27.0,-864.0,782.0,77.0,-360.0,0.927991,0.038927,0.370529,15396.0,694.0,4500.0,15.0,-35.0,4.0
2877.0,2753.0,2823.0,3137.0,3053.0,0.827515,0.029358,-0.560608,0.008606,0.0,-1.0,0.0,7621.0,368.0,2201.0,16.0,49.0,-827.0,770.0,96.0,-288.0,0.928328,0.038939,0.369711,15638.0,886.0,4630.0,14.0,-8.0,7.0
2879.0,2762.0,2826.0,3152.0,3038.0,0.827271,0.029358,-0.560974,0.008606,-1.0,2.0,0.0,7631.0,348.0,2158.0,23.0,29.0,-864.0,808.0,78.0,-296.0,0.92866,0.038918,0.368897,15070.0,526.0,4072.0,-9.0,49.0,9.0
2877.0,2767.0,2846.0,3152.0,3023.0,0.827148,0.029297,-0.561096,0.008667,-1.0,1.0,0.0,7572.0,330.0,2111.0,-36.0,12.0,-908.0,828.0,65.0,-367.0,0.928728,0.03874,0.368562,14724.0,576.0,3932.0,-4.0,45.0,6.0
2867.0,2765.0,2835.0,3158.0,3043.0,0.826843,0.029297,-0.561584,0.008728,0.0,0.0,0.0,7476.0,305.0,2072.0,-135.0,-11.0,-938.0,821.0,46.0,-470.0,0.929196,0.038645,0.367511,14638.0,528.0,4032.0,1.0,6.0,5.0
2871.0,2755.0,2831.0,3143.0,3031.0,0.826599,0.029297,-0.561951,0.008728,0.0,-2.0,0.0,7455.0,306.0,2089.0,-159.0,-10.0,-914.0,790.0,46.0,-483.0,0.929527,0.038624,0.366695,14874.0,672.0,4340.0,6.0,-25.0,6.0
2867.0,2763.0,2818.0,3151.0,3043.0,0.825989,0.029358,-0.562805,0.008789,0.0,-2.0,0.0,7520.0,329.0,2176.0,-100.0,12.0,-811.0,716.0,61.0,-388.0,0.930258,0.038606,0.364723,15320.0,716.0,4646.0,2.0,-35.0,10.0
2879.0,2766.0,2838.0,3135.0,3019.0,0.825745,0.029419,-0.563171,0.00885,0.0,-2.0,0.0,7568.0,325.0,2216.0,-55.0,8.0,-765.0,690.0,53.0,-329.0,0.930592,0.038617,0.363905,15442.0,580.0,4632.0,4.0,-24.0,11.0
2885.0,2755.0,2822.0,3139.0,3027.0,0.825439,0.02948,-0.563599,0.008972,0.0,1.0,0.0,7653.0,350.0,2263.0,26.0,34.0,-710.0,668.0,75.0,-232.0,0.930962,0.038554,0.362918,15406.0,808.0,4574.0,11.0,34.0,5.0
2874.0,2749.0,2829.0,3139.0,3023.0,0.825378,0.029541,-0.56366,0.008972,-1.0,2.0,0.0,7634.0,356.0,2242.0,7.0,39.0,-729.0,678.0,81.0,-256.0,0.930995,0.038651,0.362745,15060.0,756.0,4316.0,-1.0,53.0,5.0
2863.0,2767.0,2837.0,3165.0,3011.0,0.825378,0.02948,-0.563782,0.008972,-1.0,1.0,0.0,7574.0,346.0,2192.0,-54.0,30.0,-778.0,702.0,76.0,-331.0,0.931196,0.038548,0.362611,14736.0,582.0,4054.0,-14.0,44.0,4.0
2864.0,2745.0,2815.0,3167.0,3055.0,0.824951,0.029358,-0.564331,0.008911,-1.0,-1.0,0.0,7495.0,295.0,2134.0,-136.0,-19.0,-825.0,719.0,31.0,-425.0,0.931614,0.03838,0.361292,14870.0,474.0,4186.0,-14.0,-9.0,2.0
2865.0,2749.0,2835.0,3139.0,3031.0,0.824707,0.029297,-0.564697,0.008911,-1.0,-2.0,-1.0,7481.0,276.0,2112.0,-153.0,-37.0,-841.0,729.0,14.0,-447.0,0.931942,0.038258,0.36048,14932.0,420.0,4158.0,-6.0,-27.0,-2.0
2871.0,2757.0,2818.0,3143.0,3024.0,0.824097,0.029419,-0.565613,0.008972,0.0,-2.0,-1.0,7529.0,279.0,2150.0,-112.0,-35.0,-786.0,693.0,13.0,-387.0,0.932767,0.038339,0.358433,15358.0,668.0,4504.0,18.0,-45.0,-2.0
2883.0,2755.0,2815.0,3162.0,3023.0,0.823792,0.029541,-0.56604,0.008972,0.0,-2.0,0.0,7593.0,298.0,2184.0,-51.0,-17.0,-744.0,675.0,27.0,-314.0,0.933128,0.038514,0.357439,15570.0,738.0,4586.0,16.0,-27.0,0.0
2863.0,2747.0,2821.0,3123.0,3047.0,0.823547,0.029663,-0.566406,0.008972,-1.0,1.0,-1.0,7674.0,347.0,2204.0,27.0,30.0,-717.0,676.0,71.0,-229.0,0.933457,0.038694,0.356615,15414.0,800.0,4302.0,-7.0,45.0,-2.0
2879.0,2757.0,2823.0,3123.0,3011.0,0.823547,0.029602,-0.566406,0.008911,-1.0,2.0,-1.0,7647.0,342.0,2172.0,0.0,25.0,-749.0,697.0,69.0,-266.0,0.933452,0.038663,0.356617,15044.0,608.0,4144.0,-20.0,67.0,-6.0
2871.0,2747.0,2851.0,3159.0,3047.0,0.823486,0.02948,-0.566467,0.008789,-1.0,2.0,0.0,7577.0,322.0,2114.0,-70.0,5.0,-806.0,726.0,53.0,-352.0,0.933474,0.038595,0.356453,14886.0,704.0,4088.0,-18.0,64.0,5.0
2880.0,2758.0,2854.0,3153.0,3071.0,0.823425,0.029358,-0.566528,0.008728,-2.0,1.0,-1.0,7486.0,327.0,2076.0,-161.0,11.0,-842.0,727.0,63.0,-449.0,0.9335,0.038459,0.356289,14418.0,644.0,4002.0,-27.0,41.0,-1.0
2867.0,2747.0,2803.0,3143.0,3045.0,0.823059,0.029297,-0.567139,0.008545,-1.0,-1.0,-1.0,7502.0,312.0,2117.0,-149.0,-3.0,-791.0,685.0,45.0,-420.0,0.934078,0.038534,0.354995,15360.0,654.0,4546.0,-13.0,-17.0,-4.0
2871.0,2759.0,2827.0,3151.0,3051.0,0.822876,0.029236,-0.567383,0.008484,-1.0,-1.0,0.0,7533.0,329.0,2161.0,-120.0,13.0,-742.0,649.0,58.0,-374.0,0.934267,0.038488,0.354419,15182.0,720.0,4546.0,-15.0,-1.0,5.0
2883.0,2751.0,2845.0,3143.0,3023.0,0.82251,0.029175,-0.567871,0.008423,0.0,-1.0,0.0,7542.0,318.0,2220.0,-114.0,3.0,-673.0,587.0,43.0,-344.0,0.934651,0.038427,0.353265,15160.0,602.0,4582.0,1.0,-15.0,7.0
2879.0,2755.0,2815.0,3127.0,3043.0,0.822327,0.029236,-0.568176,0.008545,0.0,-1.0,0.0,7566.0,335.0,2251.0,-93.0,20.0,-637.0,561.0,58.0,-310.0,0.934953,0.038373,0.352615,15312.0,828.0,4744.0,17.0,-13.0,13.0
2871.0,2779.0,2822.0,3114.0,3038.0,0.822205,0.029297,-0.568359,0.008606,0.0,0.0,0.0,7599.0,369.0,2289.0,-61.0,54.0,-596.0,532.0,89.0,-264.0,0.93512,0.038393,0.352204,15360.0,928.0,4752.0,16.0,6.0,15.0
2879.0,2753.0,2800.0,3159.0,3031.0,0.82196,0.029358,-0.568726,0.008789,0.0,-1.0,0.0,7517.0,362.0,2240.0,-146.0,48.0,-638.0,542.0,87.0,-358.0,0.935456,0.038265,0.351386,14836.0,626.0,4296.0,11.0,-9.0,15.0
2866.0,2783.0,2853.0,3151.0,3035.0,0.821716,0.029419,-0.569031,0.008911,0.0,-2.0,1.0,7507.0,360.0,2227.0,-158.0,47.0,-645.0,544.0,87.0,-372.0,0.935688,0.038207,0.350636,14988.0,744.0,4396.0,17.0,-29.0,23.0
2895.0,2759.0,2804.0,3147.0,3037.0,0.821167,0.029358,-0.569885,0.009094,-1.0,-3.0,1.0,7484.0,363.0,2184.0,-187.0,52.0,-673.0,561.0,94.0,-407.0,0.936476,0.03785,0.348767,14886.0,608.0,4274.0,-10.0,-51.0,26.0
2871.0,2767.0,2838.0,3151.0,3031.0,0.820801,0.029236,-0.570374,0.009155,-1.0,-3.0,1.0,7495.0,350.0,2182.0,-179.0,42.0,-665.0,557.0,84.0,-397.0,0.936861,0.03755,0.347617,15092.0,656.0,4368.0,-13.0,-67.0,31.0
2885.0,2757.0,2837.0,3131.0,3055.0,0.820129,0.028931,-0.57135,0.009277,-1.0,-3.0,1.0,7546.0,330.0,2211.0,-135.0,28.0,-618.0,530.0,66.0,-339.0,0.937699,0.036853,0.34542,15200.0,564.0,4550.0,-20.0,-53.0,25.0
2875.0,2751.0,2837.0,3178.0,3023.0,0.819824,0.028809,-0.571777,0.009277,-1.0,-2.0,0.0,7570.0,313.0,2223.0,-114.0,12.0,-598.0,520.0,48.0,-312.0,0.938048,0.036627,0.344439,15322.0,506.0,4554.0,-17.0,-43.0,16.0
2891.0,2767.0,2846.0,3151.0,3011.0,0.819397,0.028564,-0.572388,0.009277,-2.0,-1.0,0.0,7638.0,316.0,2232.0,-50.0,19.0,-578.0,523.0,53.0,-244.0,0.938555,0.036191,0.343054,15408.0,652.0,4538.0,-26.0,-6.0,15.0
2878.0,2757.0,2811.0,3138.0,3015.0,0.819275,0.028442,-0.572571,0.009216,-2.0,0.0,0.0,7600.0,306.0,2195.0,-89.0,10.0,-611.0,541.0,46.0,-292.0,0.93871,0.03605,0.34265,14844.0,438.0,4108.0,-42.0,7.0,7.0
2865.0,2751.0,2805.0,3135.0,3031.0,0.458679,0.015686,0.13031,-1.21228,19591.0,24053.0,-1534.0,8513.0,17165.0,24938.0,9803.0,19635.0,11316.0,10330.0,26540.0,11350.0,-0.157573,-0.301555,1.662783,14560.0,294.0,3964.0,6.0,-60.0,-7.0
2849.0,2738.0,2839.0,3167.0,3013.0,0.818298,0.02832,-0.573975,0.009216,1.0,-5.0,-1.0,7456.0,227.0,2101.0,-243.0,-66.0,-679.0,557.0,-22.0,-461.0,0.939887,0.035769,0.339448,15060.0,570.0,4324.0,32.0,-100.0,-7.0
2865.0,2751.0,2843.0,3167.0,3021.0,0.817383,0.028564,-0.575256,0.009338,0.0,-5.0,0.0,7552.0,290.0,2166.0,-156.0,-4.0,-590.0,502.0,32.0,-345.0,0.940943,0.035952,0.336466,15528.0,646.0,4590.0,16.0,-102.0,14.0
2883.0,2769.0,2837.0,3151.0,3019.0,0.817017,0.028625,-0.575806,0.00946,0.0,-4.0,0.0,7623.0,315.0,2195.0,-89.0,21.0,-551.0,487.0,54.0,-267.0,0.941427,0.03588,0.335234,15676.0,798.0,4512.0,22.0,-71.0,20.0
2861.0,2755.0,2839.0,3150.0,3031.0,0.81665,0.028748,-0.576294,0.009644,-1.0,0.0,1.0,7706.0,392.0,2198.0,-9.0,98.0,-538.0,498.0,129.0,-184.0,0.941816,0.035838,0.33407,15390.0,1004.0,4294.0,-4.0,22.0,24.0
2858.0,2769.0,2839.0,3135.0,3027.0,0.816589,0.028625,-0.576355,0.009644,-2.0,1.0,1.0,7648.0,379.0,2148.0,-67.0,87.0,-587.0,525.0,121.0,-256.0,0.941843,0.035634,0.333907,14862.0,584.0,3950.0,-24.0,40.0,24.0
2877.0,2736.0,2843.0,3157.0,3023.0,0.816223,0.028442,-0.576965,0.009827,0.0,-3.0,0.0,7428.0,310.0,2003.0,-292.0,22.0,-721.0,580.0,68.0,-514.0,0.942424,0.035091,0.332619,14356.0,434.0,3666.0,3.0,-53.0,21.0
2879.0,2751.0,2832.0,3151.0,3043.0,0.815735,0.028442,-0.577576,0.009949,0.0,-5.0,0.0,7413.0,282.0,1976.0,-310.0,-3.0,-736.0,590.0,44.0,-536.0,0.942863,0.034911,0.33112,14850.0,414.0,3846.0,20.0,-104.0,20.0
2871.0,2759.0,2811.0,3127.0,3043.0,0.814636,0.028442,-0.579163,0.010376,0.0,-6.0,2.0,7545.0,297.0,2041.0,-189.0,15.0,-641.0,541.0,55.0,-387.0,0.944204,0.034322,0.327502,15674.0,786.0,4420.0,17.0,-124.0,46.0
2881.0,2758.0,2819.0,3147.0,3045.0,0.814209,0.02832,-0.579712,0.010559,-1.0,-4.0,2.0,7670.0,306.0,2098.0,-68.0,28.0,-574.0,517.0,62.0,-250.0,0.944611,0.033875,0.32618,16152.0,566.0,4542.0,-3.0,-75.0,49.0
2882.0,2747.0,2818.0,3135.0,3031.0,0.814087,0.028076,-0.579956,0.010986,0.0,3.0,1.0,7753.0,253.0,2102.0,12.0,-17.0,-566.0,538.0,15.0,-173.0,0.944886,0.03297,0.325721,15244.0,492.0,4032.0,21.0,74.0,30.0
2869.0,2751.0,2839.0,3155.0,3030.0,0.814209,0.028137,-0.579834,0.011108,0.0,3.0,0.0,7662.0,238.0,2074.0,-78.0,-31.0,-597.0,539.0,5.0,-269.0,0.944837,0.032937,0.32606,14706.0,374.0,3936.0,18.0,76.0,4.0
2865.0,2754.0,2823.0,3147.0,3019.0,0.813965,0.028198,-0.580139,0.01123,0.0,-2.0,0.0,7477.0,219.0,2048.0,-264.0,-50.0,-616.0,497.0,-9.0,-451.0,0.945059,0.032874,0.325308,14650.0,456.0,4144.0,6.0,-43.0,5.0
2864.0,2751.0,2811.0,3133.0,3031.0,0.813599,0.028198,-0.580688,0.01123,-1.0,-5.0,0.0,7464.0,218.0,2072.0,-281.0,-51.0,-582.0,460.0,-12.0,-455.0,0.945528,0.032841,0.324075,14940.0,410.0,4292.0,-5.0,-92.0,6.0
2859.0,2762.0,2831.0,3138.0,3019.0,0.812622,0.028137,-0.58197,0.011292,0.0,-5.0,0.0,7583.0,199.0,2140.0,-170.0,-67.0,-489.0,410.0,-35.0,-320.0,0.946479,0.032587,0.321001,15668.0,370.0,4472.0,15.0,-113.0,5.0
2874.0,2755.0,2823.0,3155.0,3031.0,0.812256,0.028198,-0.582458,0.011414,0.0,-4.0,0.0,7678.0,237.0,2183.0,-78.0,-29.0,-437.0,389.0,-2.0,-214.0,0.946854,0.032513,0.319837,15958.0,780.0,4622.0,19.0,-76.0,10.0
2881.0,2765.0,2839.0,3141.0,3045.0,0.812012,0.028259,-0.582825,0.011292,-1.0,1.0,-1.0,7725.0,274.0,2161.0,-34.0,5.0,-452.0,416.0,32.0,-176.0,0.947159,0.032732,0.319007,15242.0,460.0,4024.0,-18.0,34.0,-9.0
2861.0,2753.0,2815.0,3139.0,3031.0,0.812012,0.028259,-0.582825,0.01123,-1.0,1.0,-1.0,7644.0,252.0,2084.0,-115.0,-16.0,-529.0,464.0,16.0,-278.0,0.947156,0.032803,0.319006,14740.0,378.0,3692.0,-5.0,45.0,-22.0
2867.0,2753.0,2832.0,3135.0,3023.0,0.811707,0.028564,-0.583191,0.011047,0.0,-1.0,-2.0,7482.0,272.0,1968.0,-279.0,-2.0,-637.0,513.0,40.0,-466.0,0.947391,0.033486,0.318062,14620.0,674.0,3750.0,12.0,-19.0,-35.0
2879.0,2769.0,2823.0,3147.0,3031.0,0.811462,0.028687,-0.583618,0.010864,-1.0,-3.0,-2.0,7466.0,285.0,1964.0,-298.0,7.0,-634.0,504.0,49.0,-483.0,0.947792,0.033875,0.317156,14930.0,616.0,3904.0,-2.0,-55.0,-29.0
2879.0,2759.0,2815.0,3151.0,3011.0,0.81073,0.02887,-0.584595,0.01062,0.0,-4.0,-1.0,7515.0,315.0,2004.0,-255.0,33.0,-574.0,461.0,71.0,-421.0,0.94851,0.034394,0.314811,15260.0,776.0,4252.0,2.0,-76.0,-20.0
2870.0,2755.0,2831.0,3147.0,3043.0,0.810425,0.028992,-0.585022,0.010498,0.0,-3.0,-1.0,7564.0,336.0,2048.0,-208.0,51.0,-522.0,426.0,85.0,-359.0,0.948841,0.034708,0.313807,15396.0,732.0,4360.0,2.0,-66.0,-15.0
2879.0,2763.0,2839.0,3143.0,3039.0,0.809875,0.029114,-0.585754,0.010376,0.0,-2.0,0.0,7642.0,358.0,2100.0,-135.0,71.0,-456.0,386.0,100.0,-267.0,0.94938,0.035002,0.31205,15430.0,746.0,4306.0,4.0,-38.0,3.0
2867.0,2755.0,2815.0,3139.0,3045.0,0.809692,0.029114,-0.585999,0.010437,0.0,-2.0,0.0,7624.0,350.0,2082.0,-154.0,63.0,-469.0,393.0,93.0,-290.0,0.949565,0.034914,0.311469,15090.0,592.0,3982.0,2.0,-28.0,12.0
2879.0,2759.0,2819.0,3145.0,3027.0,0.809143,0.029297,-0.586731,0.010681,1.0,-3.0,0.0,7537.0,290.0,1994.0,-246.0,4.0,-543.0,438.0,40.0,-401.0,0.950124,0.034877,0.309715,14764.0,412.0,3664.0,42.0,-50.0,10.0
2879.0,2767.0,2815.0,3134.0,3047.0,0.808777,0.02948,-0.587219,0.010864,2.0,-4.0,0.0,7535.0,285.0,1970.0,-251.0,-1.0,-557.0,450.0,36.0,-410.0,0.950499,0.034926,0.308543,15170.0,568.0,3818.0,57.0,-70.0,4.0
2865.0,2757.0,2819.0,3135.0,3047.0,0.808228,0.029968,-0.588013,0.01123,2.0,-1.0,0.0,7649.0,282.0,1957.0,-142.0,-6.0,-555.0,483.0,30.0,-305.0,0.951169,0.035235,0.306701,15632.0,620.0,3892.0,50.0,-12.0,6.0
2867.0,2763.0,2831.0,3155.0,3023.0,0.808105,0.030151,-0.588135,0.011353,1.0,1.0,0.0,7671.0,301.0,1950.0,-121.0,11.0,-559.0,493.0,47.0,-285.0,0.951234,0.035377,0.306352,15380.0,708.0,3866.0,34.0,30.0,4.0
2901.0,2754.0,2833.0,3147.0,3023.0,0.808105,0.030334,-0.588135,0.011475,0.0,1.0,-1.0,7615.0,287.0,1934.0,-177.0,-4.0,-575.0,491.0,34.0,-344.0,0.951246,0.03553,0.306343,15044.0,476.0,3884.0,14.0,43.0,-4.0
2866.0,2762.0,2823.0,3143.0,3051.0,0.808105,0.030396,-0.588135,0.011536,0.0,1.0,-1.0,7582.0,277.0,1948.0,-210.0,-14.0,-561.0,468.0,24.0,-372.0,0.951251,0.035557,0.306341,14964.0,506.0,3984.0,21.0,34.0,-3.0
2887.0,2755.0,2834.0,3159.0,3039.0,0.807983,0.030701,-0.588318,0.011719,1.0,0.0,0.0,7580.0,306.0,2044.0,-214.0,12.0,-462.0,372.0,44.0,-344.0,0.951422,0.035823,0.305914,15176.0,812.0,4408.0,32.0,2.0,6.0
2871.0,2759.0,2830.0,3167.0,3019.0,0.807861,0.030823,-0.588379,0.01178,0.0,-1.0,0.0,7577.0,344.0,2097.0,-216.0,49.0,-406.0,316.0,78.0,-327.0,0.951383,0.035939,0.305639,15086.0,900.0,4496.0,22.0,-8.0,7.0
2870.0,2769.0,2823.0,3151.0,3051.0,0.807678,0.030884,-0.588684,0.01178,-1.0,-1.0,0.0,7629.0,368.0,2173.0,-167.0,72.0,-325.0,253.0,95.0,-255.0,0.951662,0.036019,0.30498,15462.0,608.0,4406.0,-10.0,-21.0,13.0
2887.0,2759.0,2832.0,3155.0,3027.0,0.807556,0.030823,-0.588867,0.01178,-1.0,-1.0,0.0,7651.0,355.0,2153.0,-146.0,60.0,-342.0,276.0,84.0,-240.0,0.951813,0.035909,0.304571,15432.0,674.0,4174.0,-10.0,-12.0,19.0
2871.0,2768.0,2831.0,3173.0,3035.0,0.807373,0.03064,-0.589111,0.01178,-2.0,0.0,0.0,7632.0,321.0,2035.0,-166.0,29.0,-455.0,380.0,60.0,-295.0,0.951987,0.035596,0.303999,15008.0,464.0,3534.0,-28.0,21.0,1.0
2883.0,2758.0,2832.0,3151.0,3037.0,0.807251,0.030457,-0.589294,0.011597,-2.0,0.0,-1.0,7612.0,323.0,1987.0,-187.0,32.0,-500.0,416.0,66.0,-328.0,0.952123,0.035504,0.303593,15132.0,700.0,3726.0,-44.0,16.0,-10.0
2853.0,2768.0,2855.0,3151.0,3039.0,0.80719,0.029785,-0.589478,0.010925,-5.0,2.0,-1.0,7625.0,297.0,1909.0,-176.0,8.0,-575.0,492.0,46.0,-341.0,0.952291,0.035204,0.303304,15260.0,420.0,3610.0,-114.0,47.0,-7.0
2866.0,2753.0,2799.0,3139.0,2995.0,0.80719,0.029297,-0.589417,0.010559,-6.0,2.0,-1.0,7637.0,272.0,1908.0,-163.0,-13.0,-577.0,499.0,24.0,-330.0,0.952161,0.034849,0.303397,15370.0,432.0,3888.0,-121.0,61.0,-14.0
2867.0,2759.0,2807.0,3127.0,2997.0,0.807495,0.028259,-0.58905,0.009827,-5.0,4.0,-1.0,7684.0,204.0,1953.0,-113.0,-75.0,-540.0,482.0,-41.0,-274.0,0.951866,0.034062,0.304366,15538.0,444.0,4200.0,-92.0,105.0,-9.0
2879.0,2759.0,2827.0,3171.0,3039.0,0.807861,0.027954,-0.588623,0.009583,-4.0,5.0,-1.0,7696.0,205.0,1989.0,-99.0,-72.0,-513.0,460.0,-41.0,-253.0,0.951587,0.033885,0.305473,15386.0,440.0,4144.0,-76.0,135.0,-9.0
2891.0,2755.0,2843.0,3155.0,3031.0,0.808411,0.027588,-0.587891,0.009094,-2.0,3.0,-2.0,7493.0,229.0,1996.0,-297.0,-48.0,-520.0,404.0,-13.0,-443.0,0.951016,0.033912,0.307234,14420.0,402.0,4140.0,-42.0,75.0,-26.0
2867.0,2731.0,2815.0,3167.0,3007.0,0.808411,0.027527,-0.587891,0.009033,-1.0,0.0,-1.0,7454.0,238.0,2042.0,-336.0,-39.0,-474.0,348.0,-6.0,-466.0,0.951011,0.033885,0.307236,14752.0,596.0,4346.0,-5.0,10.0,-12.0
2878.0,2751.0,2815.0,3126.0,3031.0,0.808044,0.027649,-0.588379,0.009033,0.0,-4.0,0.0,7449.0,326.0,2153.0,-344.0,47.0,-354.0,228.0,72.0,-434.0,0.951372,0.034053,0.306063,15052.0,826.0,4600.0,9.0,-72.0,16.0
2879.0,2765.0,2829.0,3143.0,3015.0,0.807739,0.02771,-0.588745,0.009155,0.0,-4.0,1.0,7520.0,353.0,2205.0,-275.0,74.0,-294.0,191.0,95.0,-348.0,0.951612,0.033985,0.305138,15568.0,906.0,4750.0,15.0,-86.0,28.0
2865.0,2739.0,2839.0,3157.0,3046.0,0.807373,0.027649,-0.589294,0.009338,-1.0,-1.0,1.0,7666.0,411.0,2235.0,-133.0,135.0,-254.0,194.0,151.0,-199.0,0.952077,0.03364,0.303906,15602.0,876.0,4372.0,-15.0,-11.0,36.0
2882.0,2746.0,2829.0,3135.0,3006.0,0.807373,0.027527,-0.589355,0.009338,-2.0,1.0,1.0,7664.0,383.0,2174.0,-136.0,109.0,-315.0,252.0,128.0,-221.0,0.952174,0.033442,0.303841,15204.0,524.0,3904.0,-26.0,26.0,30.0
2864.0,2767.0,2835.0,3155.0,3057.0,0.807251,0.027222,-0.589478,0.009521,0.0,1.0,0.0,7578.0,289.0,2029.0,-222.0,20.0,-457.0,366.0,48.0,-349.0,0.952231,0.032724,0.30352,14960.0,382.0,3724.0,2.0,30.0,17.0
2878.0,2759.0,2831.0,3147.0,3043.0,0.80719,0.027222,-0.589539,0.009583,0.0,1.0,0.0,7538.0,264.0,1975.0,-262.0,-3.0,-510.0,405.0,29.0,-404.0,0.952261,0.032648,0.303351,14836.0,380.0,3694.0,9.0,24.0,13.0
2867.0,2769.0,2835.0,3146.0,3031.0,0.806946,0.027283,-0.589905,0.009827,1.0,-1.0,0.0,7488.0,224.0,1955.0,-315.0,-41.0,-523.0,403.0,-6.0,-459.0,0.952579,0.032438,0.302526,15006.0,480.0,4038.0,29.0,-18.0,8.0
2887.0,2751.0,2832.0,3167.0,3047.0,0.806824,0.027344,-0.590088,0.009949,1.0,-1.0,0.0,7533.0,250.0,2006.0,-271.0,-15.0,-468.0,363.0,15.0,-400.0,0.952738,0.032382,0.302112,15350.0,674.0,4316.0,26.0,-22.0,14.0
2877.0,2766.0,2821.0,3143.0,3027.0,0.80658,0.027344,-0.590393,0.010193,-1.0,-1.0,1.0,7622.0,301.0,2134.0,-184.0,38.0,-334.0,260.0,59.0,-274.0,0.952955,0.032074,0.301363,15566.0,846.0,4690.0,-4.0,-10.0,28.0
2875.0,2763.0,2823.0,3135.0,3015.0,0.806519,0.027222,-0.590454,0.010193,-2.0,0.0,1.0,7626.0,312.0,2164.0,-180.0,50.0,-303.0,231.0,69.0,-261.0,0.952979,0.031873,0.301199,15218.0,588.0,4454.0,-29.0,3.0,32.0
2863.0,2761.0,2839.0,3139.0,3023.0,0.806335,0.026917,-0.590759,0.010376,0.0,-2.0,0.0,7572.0,236.0,2149.0,-237.0,-19.0,-313.0,227.0,2.0,-320.0,0.953259,0.031148,0.300564,15020.0,336.0,4196.0,11.0,-27.0,22.0
2865.0,2757.0,2832.0,3103.0,3039.0,0.806152,0.026917,-0.591003,0.010559,1.0,-2.0,0.0,7567.0,236.0,2133.0,-243.0,-17.0,-324.0,236.0,4.0,-329.0,0.953446,0.030917,0.299984,15154.0,508.0,4154.0,26.0,-38.0,17.0
2879.0,2747.0,2829.0,3141.0,3031.0,0.805725,0.027039,-0.591553,0.010803,0.0,-2.0,0.0,7588.0,238.0,2098.0,-225.0,-14.0,-348.0,264.0,8.0,-318.0,0.953842,0.03079,0.298644,15224.0,446.0,4124.0,14.0,-34.0,20.0
2883.0,2755.0,2817.0,3147.0,3039.0,0.805542,0.027039,-0.591858,0.010925,0.0,-2.0,0.0,7586.0,226.0,2064.0,-230.0,-24.0,-377.0,291.0,0.0,-332.0,0.954124,0.030629,0.29799,15164.0,402.0,3924.0,19.0,-28.0,15.0
2864.0,2743.0,2829.0,3135.0,3047.0,0.805359,0.0271,-0.592102,0.011047,1.0,-2.0,0.0,7599.0,229.0,2041.0,-218.0,-21.0,-395.0,312.0,4.0,-326.0,0.954308,0.030567,0.297406,15324.0,516.0,3974.0,28.0,-25.0,10.0
2867.0,2743.0,2832.0,3131.0,3030.0,0.805115,0.027222,-0.592346,0.01123,0.0,1.0,0.0,7656.0,264.0,2018.0,-162.0,13.0,-412.0,343.0,38.0,-276.0,0.954425,0.030529,0.296721,15464.0,634.0,3962.0,10.0,25.0,12.0
2875.0,2763.0,2838.0,3151.0,3035.0,0.805176,0.027283,-0.592285,0.011292,0.0,2.0,0.0,7678.0,286.0,2014.0,-140.0,35.0,-418.0,354.0,60.0,-256.0,0.954403,0.030559,0.296889,15480.0,736.0,4028.0,4.0,58.0,5.0
2877.0,2759.0,2826.0,3139.0,3025.0,0.805603,0.027222,-0.591675,0.011169,-2.0,5.0,0.0,7614.0,315.0,1995.0,-200.0,63.0,-448.0,363.0,91.0,-322.0,0.953918,0.030642,0.298301,14682.0,584.0,3824.0,-28.0,115.0,5.0
2874.0,2747.0,2811.0,3139.0,3035.0,0.805786,0.0271,-0.591431,0.011108,-1.0,3.0,0.0,7522.0,295.0,1994.0,-291.0,44.0,-454.0,342.0,73.0,-411.0,0.953735,0.030533,0.29889,14496.0,472.0,4020.0,-22.0,75.0,11.0
2866.0,2747.0,2826.0,3149.0,3035.0,0.805786,0.026917,-0.591492,0.011292,0.0,-1.0,1.0,7491.0,287.0,2039.0,-322.0,41.0,-409.0,290.0,68.0,-428.0,0.953839,0.03002,0.298832,15134.0,552.0,4314.0,10.0,-10.0,31.0
2879.0,2766.0,2831.0,3153.0,3027.0,0.805664,0.026917,-0.591675,0.011536,1.0,-1.0,1.0,7526.0,270.0,2068.0,-289.0,26.0,-376.0,270.0,51.0,-387.0,0.954003,0.029721,0.298424,15276.0,426.0,4336.0,28.0,-16.0,34.0
2874.0,2753.0,2831.0,3151.0,3031.0,0.80542,0.027222,-0.591919,0.012085,2.0,-1.0,1.0,7588.0,281.0,2119.0,-228.0,38.0,-320.0,234.0,59.0,-311.0,0.954145,0.029543,0.297738,15462.0,696.0,4460.0,53.0,-11.0,27.0
2871.0,2753.0,2823.0,3141.0,3019.0,0.805359,0.027344,-0.59198,0.012268,1.0,0.0,1.0,7641.0,322.0,2144.0,-175.0,80.0,-293.0,222.0,99.0,-251.0,0.954184,0.029518,0.297565,15600.0,910.0,4412.0,33.0,13.0,34.0
2874.0,2759.0,2823.0,3147.0,3031.0,0.805603,0.027222,-0.591675,0.012512,-1.0,3.0,1.0,7688.0,288.0,2104.0,-127.0,49.0,-339.0,282.0,70.0,-220.0,0.953991,0.029053,0.298333,15470.0,242.0,3952.0,-4.0,87.0,30.0
2871.0,2759.0,2813.0,3149.0,3035.0,0.805847,0.027161,-0.59137,0.012695,0.0,5.0,1.0,7668.0,263.0,2037.0,-145.0,27.0,-413.0,348.0,52.0,-261.0,0.953797,0.028759,0.299095,15152.0,438.0,3638.0,13.0,122.0,25.0
2864.0,2767.0,2819.0,3154.0,3031.0,0.806213,0.027222,-0.59082,0.013062,1.0,3.0,0.0,7488.0,240.0,1932.0,-321.0,6.0,-528.0,405.0,40.0,-464.0,0.953366,0.028459,0.300341,14438.0,462.0,3704.0,24.0,82.0,16.0
2871.0,2751.0,2831.0,3146.0,3027.0,0.806274,0.027222,-0.59082,0.013184,1.0,1.0,0.0,7447.0,243.0,1943.0,-363.0,11.0,-518.0,383.0,45.0,-501.0,0.953444,0.028318,0.300443,14802.0,542.0,4032.0,24.0,29.0,21.0
2859.0,2753.0,2817.0,3142.0,3027.0,0.806213,0.027222,-0.590881,0.013489,-1.0,0.0,1.0,7493.0,301.0,2052.0,-317.0,72.0,-407.0,288.0,99.0,-422.0,0.953487,0.027952,0.30028,15060.0,712.0,4424.0,-1.0,11.0,40.0
2875.0,2759.0,2815.0,3153.0,3035.0,0.806152,0.0271,-0.590942,0.013611,-1.0,-1.0,1.0,7517.0,293.0,2104.0,-294.0,66.0,-354.0,244.0,90.0,-384.0,0.953517,0.027606,0.30012,15274.0,490.0,4570.0,-10.0,-1.0,42.0
2875.0,2763.0,2830.0,3151.0,3039.0,0.806213,0.026855,-0.59082,0.014038,0.0,2.0,2.0,7632.0,301.0,2218.0,-178.0,82.0,-242.0,172.0,97.0,-240.0,0.953408,0.026715,0.300387,15458.0,710.0,4658.0,7.0,49.0,55.0
2870.0,2755.0,2823.0,3143.0,3027.0,0.806396,0.026733,-0.590576,0.014282,-1.0,3.0,2.0,7604.0,300.0,2211.0,-204.0,84.0,-254.0,175.0,100.0,-268.0,0.953241,0.026246,0.300984,14954.0,520.0,4312.0,-4.0,69.0,53.0
2870.0,2753.0,2819.0,3147.0,3035.0,0.80658,0.026489,-0.590393,0.014771,0.0,1.0,2.0,7495.0,242.0,2147.0,-313.0,34.0,-323.0,210.0,55.0,-394.0,0.95318,0.025291,0.301523,14722.0,388.0,4120.0,19.0,26.0,51.0
2878.0,2763.0,2833.0,3151.0,3055.0,0.806519,0.026367,-0.590454,0.015015,0.0,0.0,2.0,7471.0,251.0,2133.0,-337.0,47.0,-335.0,214.0,69.0,-421.0,0.953216,0.0248,0.301366,14824.0,582.0,4176.0,18.0,1.0,58.0
2879.0,2793.0,2827.0,3153.0,3039.0,0.806213,0.026062,-0.590881,0.015503,-1.0,-2.0,2.0,7494.0,224.0,2120.0,-317.0,29.0,-340.0,226.0,51.0,-403.0,0.953561,0.023702,0.3004,15178.0,290.0,4260.0,-2.0,-35.0,60.0
2877.0,2759.0,2827.0,3143.0,3030.0,0.80603,0.025879,-0.591125,0.015808,0.0,-2.0,2.0,7527.0,224.0,2126.0,-286.0,35.0,-330.0,226.0,56.0,-370.0,0.953748,0.023029,0.299836,15238.0,484.0,4306.0,4.0,-34.0,58.0
2863.0,2763.0,2832.0,3143.0,3029.0,0.805786,0.025513,-0.591492,0.016174,-1.0,0.0,2.0,7673.0,218.0,2174.0,-142.0,37.0,-275.0,217.0,54.0,-216.0,0.954057,0.021982,0.29904,15890.0,416.0,4574.0,-16.0,5.0,61.0
2865.0,2765.0,2823.0,3153.0,3039.0,0.805847,0.025208,-0.59137,0.016357,-2.0,2.0,2.0,7719.0,216.0,2176.0,-95.0,41.0,-275.0,231.0,57.0,-172.0,0.953932,0.02128,0.299304,15558.0,394.0,4250.0,-26.0,61.0,62.0
2879.0,2759.0,2839.0,3155.0,3039.0,0.806152,0.024719,-0.590942,0.016663,-1.0,2.0,1.0,7582.0,177.0,2074.0,-229.0,11.0,-386.0,297.0,34.0,-334.0,0.953603,0.020162,0.300335,14618.0,286.0,3826.0,-21.0,67.0,41.0
2875.0,2757.0,2829.0,3143.0,3035.0,0.806152,0.024475,-0.590942,0.016785,-2.0,0.0,1.0,7504.0,170.0,2050.0,-307.0,9.0,-410.0,297.0,33.0,-415.0,0.953601,0.019624,0.300351,14608.0,306.0,4024.0,-31.0,22.0,38.0
2875.0,2753.0,2823.0,3143.0,3031.0,0.805969,0.023865,-0.591248,0.016846,-2.0,-2.0,1.0,7484.0,138.0,2096.0,-330.0,-13.0,-359.0,243.0,8.0,-422.0,0.953859,0.018549,0.299727,14878.0,156.0,4404.0,-42.0,-24.0,36.0
2875.0,2759.0,2830.0,3151.0,3038.0,0.805786,0.02356,-0.591492,0.016846,-2.0,-2.0,0.0,7494.0,109.0,2140.0,-321.0,-38.0,-310.0,201.0,-19.0,-399.0,0.954025,0.01804,0.299158,15106.0,16.0,4570.0,-32.0,-45.0,22.0
2879.0,2759.0,2823.0,3151.0,3039.0,0.805481,0.023254,-0.591858,0.01709,0.0,-2.0,1.0,7582.0,70.0,2290.0,-235.0,-71.0,-153.0,79.0,-62.0,-271.0,0.954255,0.017232,0.298255,15266.0,218.0,5088.0,8.0,-31.0,26.0
2875.0,2759.0,2827.0,3143.0,3023.0,0.805481,0.023254,-0.591919,0.017151,0.0,-2.0,0.0,7579.0,102.0,2377.0,-239.0,-38.0,-65.0,-7.0,-34.0,-248.0,0.954357,0.017158,0.298185,15166.0,378.0,5304.0,4.0,-35.0,15.0
2869.0,2751.0,2826.0,3143.0,3035.0,0.805298,0.02301,-0.592163,0.017151,-2.0,-3.0,0.0,7593.0,75.0,2474.0,-226.0,-62.0,35.0,-97.0,-63.0,-206.0,0.954525,0.016748,0.297612,15140.0,-166.0,5008.0,-25.0,-55.0,16.0
2875.0,2767.0,2831.0,3151.0,3031.0,0.805115,0.022827,-0.592407,0.017273,0.0,-4.0,0.0,7573.0,2.0,2458.0,-247.0,-131.0,24.0,-89.0,-132.0,-230.0,0.9547,0.016292,0.297041,15024.0,-440.0,4786.0,10.0,-76.0,18.0
2877.0,2763.0,2823.0,3158.0,3039.0,0.804382,0.023132,-0.593384,0.018005,4.0,-6.0,0.0,7558.0,-74.0,2381.0,-269.0,-203.0,-33.0,-36.0,-201.0,-269.0,0.955448,0.015846,0.294716,15216.0,-288.0,4526.0,95.0,-135.0,4.0
2871.0,2755.0,2821.0,3135.0,3031.0,0.803894,0.02356,-0.593994,0.018372,4.0,-7.0,-1.0,7554.0,-50.0,2329.0,-276.0,-181.0,-72.0,-1.0,-176.0,-287.0,0.955882,0.016054,0.293199,15006.0,56.0,4296.0,113.0,-141.0,-2.0
2875.0,2755.0,2831.0,3139.0,3031.0,0.802612,0.024414,-0.595703,0.01886,3.0,-10.0,-1.0,7487.0,20.0,2207.0,-354.0,-116.0,-161.0,58.0,-106.0,-387.0,0.957158,0.01672,0.289084,14972.0,308.0,4106.0,82.0,-219.0,-18.0
2875.0,2759.0,2833.0,3141.0,3039.0,0.801819,0.024841,-0.596741,0.018982,3.0,-11.0,-2.0,7548.0,33.0,2172.0,-299.0,-107.0,-175.0,87.0,-96.0,-338.0,0.957899,0.017182,0.286557,15490.0,150.0,4070.0,71.0,-232.0,-25.0
2878.0,2759.0,2819.0,3153.0,3039.0,0.800537,0.025574,-0.59845,0.018921,1.0,-6.0,-2.0,7730.0,138.0,2132.0,-127.0,-11.0,-181.0,137.0,0.0,-173.0,0.95913,0.018299,0.282422,15780.0,522.0,4100.0,27.0,-126.0,-40.0
2871.0,2757.0,2831.0,3142.0,3027.0,0.800171,0.025879,-0.598938,0.018738,0.0,-4.0,-3.0,7683.0,118.0,2045.0,-177.0,-37.0,-258.0,199.0,-20.0,-243.0,0.959475,0.01897,0.281228,14994.0,18.0,3572.0,20.0,-86.0,-64.0
2870.0,2751.0,2827.0,3143.0,3023.0,0.799377,0.026733,-0.599915,0.018494,2.0,-4.0,-3.0,7649.0,165.0,1949.0,-216.0,-3.0,-334.0,259.0,19.0,-300.0,0.960105,0.020551,0.278734,15346.0,792.0,3742.0,68.0,-78.0,-63.0
2871.0,2763.0,2831.0,3150.0,3015.0,0.799072,0.027283,-0.600281,0.018311,1.0,-3.0,-3.0,7673.0,229.0,1922.0,-194.0,51.0,-353.0,281.0,74.0,-283.0,0.960335,0.021619,0.27777,15482.0,762.0,3684.0,40.0,-49.0,-60.0
2871.0,2762.0,2833.0,3153.0,3026.0,0.798645,0.028015,-0.600891,0.018005,2.0,-3.0,-3.0,7553.0,210.0,1809.0,-317.0,20.0,-454.0,346.0,51.0,-429.0,0.960806,0.02311,0.276303,14878.0,326.0,3450.0,49.0,-56.0,-56.0
2871.0,2761.0,2826.0,3143.0,3031.0,0.79834,0.028442,-0.601257,0.018005,2.0,-3.0,-2.0,7597.0,264.0,1836.0,-275.0,69.0,-419.0,321.0,98.0,-378.0,0.96104,0.023762,0.275351,15598.0,968.0,3850.0,60.0,-61.0,-31.0
2871.0,2755.0,2829.0,3147.0,3037.0,0.798096,0.028809,-0.601562,0.017761,-2.0,1.0,-1.0,7721.0,374.0,1858.0,-153.0,172.0,-391.0,322.0,198.0,-250.0,0.961232,0.024615,0.274565,15566.0,736.0,3574.0,-29.0,36.0,-3.0
2879.0,2762.0,2823.0,3151.0,3027.0,0.798157,0.028748,-0.601501,0.017578,-2.0,2.0,-1.0,7689.0,314.0,1817.0,-185.0,111.0,-433.0,357.0,140.0,-294.0,0.961196,0.024744,0.274733,15102.0,192.0,3374.0,-24.0,67.0,-5.0
2879.0,2747.0,2827.0,3125.0,3037.0,0.79834,0.028931,-0.601196,0.017761,1.0,3.0,0.0,7611.0,297.0,1808.0,-261.0,93.0,-447.0,350.0,124.0,-371.0,0.960946,0.024837,0.275388,15032.0,780.0,3728.0,34.0,70.0,2.0
2878.0,2758.0,2829.0,3141.0,3022.0,0.798523,0.029114,-0.601013,0.017822,1.0,2.0,0.0,7557.0,301.0,1826.0,-314.0,95.0,-434.0,323.0,126.0,-419.0,0.960883,0.025073,0.275892,14770.0,606.0,3802.0,28.0,63.0,8.0
2871.0,2757.0,2829.0,3135.0,3031.0,0.798523,0.029358,-0.600952,0.018066,1.0,-1.0,0.0,7522.0,297.0,1941.0,-348.0,90.0,-319.0,203.0,113.0,-420.0,0.960809,0.025172,0.27596,15212.0,622.0,4386.0,35.0,-3.0,19.0
2863.0,2757.0,2838.0,3147.0,3047.0,0.798523,0.02948,-0.600952,0.018311,1.0,-1.0,1.0,7584.0,309.0,2032.0,-287.0,103.0,-228.0,132.0,120.0,-336.0,0.960828,0.025073,0.275962,15550.0,628.0,4576.0,31.0,-3.0,34.0
2869.0,2766.0,2843.0,3159.0,3027.0,0.798645,0.029419,-0.60083,0.018799,0.0,1.0,2.0,7673.0,305.0,2123.0,-197.0,105.0,-140.0,72.0,115.0,-225.0,0.960806,0.024401,0.276325,15600.0,560.0,4474.0,16.0,26.0,53.0
2871.0,2755.0,2832.0,3152.0,3047.0,0.798767,0.029297,-0.600647,0.018982,0.0,2.0,2.0,7703.0,301.0,2127.0,-166.0,104.0,-140.0,81.0,114.0,-195.0,0.960666,0.024,0.276754,15552.0,610.0,4218.0,1.0,53.0,47.0
2867.0,2757.0,2831.0,3147.0,3025.0,0.799194,0.028809,-0.600037,0.019104,-3.0,4.0,1.0,7655.0,204.0,2044.0,-210.0,14.0,-235.0,165.0,31.0,-266.0,0.960192,0.023121,0.278203,14724.0,-84.0,3590.0,-46.0,99.0,29.0
2877.0,2766.0,2841.0,3143.0,3031.0,0.799316,0.028503,-0.599915,0.019165,-1.0,2.0,0.0,7517.0,85.0,1956.0,-348.0,-99.0,-325.0,220.0,-75.0,-426.0,0.960136,0.022572,0.278564,14210.0,-592.0,3430.0,-13.0,53.0,5.0
2867.0,2750.0,2819.0,3153.0,3035.0,0.799011,0.02887,-0.600281,0.019592,3.0,-4.0,-1.0,7447.0,41.0,1985.0,-420.0,-144.0,-289.0,169.0,-122.0,-486.0,0.960393,0.022613,0.277632,15038.0,394.0,4282.0,74.0,-70.0,-18.0
2871.0,2762.0,2831.0,3135.0,3027.0,0.798706,0.029175,-0.600647,0.019653,1.0,-5.0,-1.0,7506.0,86.0,2053.0,-363.0,-102.0,-213.0,110.0,-85.0,-409.0,0.960627,0.022995,0.27669,15424.0,406.0,4530.0,45.0,-93.0,-15.0
2871.0,2759.0,2830.0,3151.0,3039.0,0.798157,0.02948,-0.601379,0.019775,1.0,-4.0,-1.0,7687.0,142.0,2194.0,-186.0,-48.0,-58.0,7.0,-43.0,-195.0,0.961156,0.023274,0.274919,16104.0,630.0,4794.0,28.0,-77.0,-11.0
2871.0,2753.0,2837.0,3152.0,3023.0,0.798096,0.029602,-0.601501,0.019714,0.0,-1.0,-1.0,7788.0,208.0,2231.0,-86.0,15.0,-19.0,-6.0,16.0,-87.0,0.961279,0.023534,0.274665,16052.0,834.0,4580.0,3.0,-14.0,-9.0
2867.0,2762.0,2831.0,3151.0,3038.0,0.798279,0.029541,-0.601257,0.019348,-2.0,2.0,-1.0,7732.0,214.0,2090.0,-141.0,18.0,-164.0,117.0,30.0,-180.0,0.961085,0.023898,0.27524,15054.0,278.0,3586.0,-41.0,52.0,-17.0
2861.0,2763.0,2827.0,3143.0,3035.0,0.79834,0.029419,-0.601196,0.019104,-2.0,2.0,-2.0,7644.0,193.0,1979.0,-228.0,-3.0,-277.0,202.0,17.0,-295.0,0.961042,0.024002,0.275409,14752.0,268.0,3262.0,-40.0,46.0,-23.0
2878.0,2759.0,2831.0,3151.0,3029.0,0.798157,0.029297,-0.60144,0.018738,-1.0,-1.0,-2.0,7451.0,118.0,1797.0,-423.0,-80.0,-454.0,323.0,-46.0,-533.0,0.961185,0.024228,0.274816,14280.0,-162.0,3182.0,-18.0,-18.0,-36.0
2887.0,2750.0,2819.0,3163.0,3055.0,0.797852,0.029419,-0.601868,0.018677,1.0,-4.0,-2.0,7430.0,91.0,1797.0,-446.0,-109.0,-446.0,312.0,-75.0,-553.0,0.961501,0.024462,0.273806,14938.0,162.0,3714.0,28.0,-71.0,-39.0
2883.0,2739.0,2821.0,3151.0,3024.0,0.797363,0.029968,-0.602478,0.018555,0.0,-2.0,-1.0,7586.0,247.0,1935.0,-293.0,38.0,-295.0,200.0,60.0,-361.0,0.9619,0.025434,0.272255,15640.0,984.0,4248.0,8.0,-44.0,-19.0
2879.0,2750.0,2823.0,3152.0,3027.0,0.797302,0.030029,-0.602539,0.018372,-2.0,-1.0,-1.0,7672.0,311.0,2011.0,-208.0,100.0,-217.0,144.0,116.0,-256.0,0.961915,0.025746,0.272073,15846.0,982.0,4492.0,-24.0,-10.0,-10.0
2879.0,2767.0,2831.0,3139.0,3055.0,0.797546,0.029785,-0.602234,0.017883,-3.0,3.0,-1.0,7731.0,345.0,2044.0,-147.0,132.0,-191.0,134.0,145.0,-190.0,0.961684,0.02597,0.272827,15378.0,634.0,3964.0,-55.0,72.0,-3.0
2865.0,2753.0,2819.0,3149.0,3019.0,0.797729,0.029602,-0.60199,0.0177,-3.0,3.0,0.0,7665.0,323.0,1998.0,-211.0,110.0,-241.0,166.0,127.0,-265.0,0.961498,0.025918,0.273418,14842.0,520.0,3658.0,-48.0,77.0,3.0
2879.0,2763.0,2843.0,3167.0,3049.0,0.797852,0.029358,-0.601868,0.017517,-1.0,0.0,0.0,7495.0,257.0,1892.0,-381.0,45.0,-350.0,228.0,71.0,-460.0,0.961431,0.025761,0.273767,14446.0,190.0,3442.0,-18.0,15.0,3.0
2854.0,2759.0,2835.0,3149.0,3023.0,0.797729,0.029358,-0.602051,0.017578,0.0,-2.0,0.0,7449.0,211.0,1887.0,-428.0,0.0,-352.0,220.0,27.0,-507.0,0.961579,0.025673,0.273354,14712.0,178.0,3816.0,22.0,-31.0,4.0
2895.0,2755.0,2819.0,3139.0,3055.0,0.797302,0.029785,-0.602539,0.017883,1.0,-2.0,0.0,7550.0,286.0,1998.0,-329.0,73.0,-230.0,126.0,91.0,-377.0,0.961877,0.025945,0.27207,15514.0,952.0,4382.0,39.0,-44.0,12.0
2877.0,2769.0,2827.0,3159.0,3071.0,0.797241,0.029846,-0.602661,0.017944,0.0,-1.0,0.0,7618.0,320.0,2058.0,-262.0,107.0,-168.0,82.0,120.0,-294.0,0.962004,0.025961,0.271824,15642.0,818.0,4484.0,5.0,-22.0,17.0
2887.0,2756.0,2771.0,3151.0,3007.0,0.797302,0.029663,-0.602539,0.017883,-2.0,1.0,0.0,7712.0,340.0,2096.0,-167.0,129.0,-132.0,72.0,138.0,-193.0,0.961872,0.02575,0.272077,15518.0,616.0,4164.0,-40.0,45.0,22.0
2881.0,2767.0,2829.0,3171.0,3039.0,0.797485,0.029419,-0.602356,0.017822,-3.0,2.0,0.0,7662.0,296.0,2054.0,-216.0,87.0,-179.0,107.0,100.0,-254.0,0.961789,0.025452,0.272602,14886.0,298.0,3806.0,-50.0,62.0,14.0
2869.0,2767.0,2839.0,3155.0,3029.0,0.797546,0.029114,-0.602295,0.017761,-1.0,0.0,-1.0,7550.0,168.0,1971.0,-328.0,-37.0,-263.0,164.0,-16.0,-388.0,0.96175,0.025044,0.272789,14846.0,-26.0,3764.0,-1.0,6.0,-1.0
2885.0,2755.0,2842.0,3131.0,3055.0,0.797424,0.029114,-0.602417,0.017883,1.0,-2.0,-1.0,7496.0,126.0,1946.0,-383.0,-77.0,-285.0,173.0,-54.0,-447.0,0.961805,0.024886,0.272451,14678.0,46.0,3798.0,29.0,-25.0,-3.0
2871.0,2733.0,2833.0,3119.0,3029.0,0.796936,0.029541,-0.603027,0.018127,2.0,-4.0,-1.0,7534.0,156.0,2012.0,-348.0,-50.0,-207.0,107.0,-33.0,-392.0,0.962219,0.025222,0.270921,15446.0,564.0,4352.0,51.0,-73.0,-6.0
2863.0,2770.0,2831.0,3155.0,3043.0,0.796753,0.029724,-0.603271,0.018188,1.0,-3.0,-1.0,7609.0,200.0,2062.0,-274.0,-8.0,-152.0,72.0,4.0,-304.0,0.962398,0.02542,0.270326,15672.0,638.0,4430.0,31.0,-53.0,-1.0
2867.0,2759.0,2839.0,3152.0,3039.0,0.796692,0.029846,-0.603333,0.01825,-1.0,1.0,0.0,7737.0,242.0,2106.0,-147.0,32.0,-107.0,60.0,40.0,-169.0,0.96243,0.025535,0.27015,15722.0,654.0,4250.0,-7.0,25.0,6.0
2855.0,2747.0,2815.0,3119.0,3039.0,0.796875,0.029785,-0.603149,0.018188,-1.0,2.0,0.0,7731.0,243.0,2067.0,-152.0,33.0,-150.0,100.0,44.0,-186.0,0.962353,0.025529,0.270664,15346.0,456.0,3848.0,-20.0,64.0,2.0
2864.0,2743.0,2813.0,3131.0,3035.0,0.79718,0.029663,-0.602722,0.018066,-1.0,3.0,-1.0,7632.0,191.0,1932.0,-248.0,-18.0,-293.0,214.0,4.0,-318.0,0.962028,0.025516,0.271669,14886.0,342.0,3428.0,-1.0,78.0,-11.0
2893.0,2768.0,2827.0,3131.0,3055.0,0.797302,0.029724,-0.6026,0.018066,0.0,2.0,-1.0,7578.0,204.0,1886.0,-302.0,-5.0,-342.0,246.0,20.0,-383.0,0.961983,0.025625,0.272007,14870.0,494.0,3554.0,1.0,58.0,-15.0
2867.0,2750.0,2843.0,3143.0,3019.0,0.797363,0.029785,-0.602478,0.017883,-1.0,1.0,-1.0,7548.0,221.0,1898.0,-331.0,8.0,-332.0,227.0,33.0,-408.0,0.961853,0.025951,0.272241,15176.0,456.0,4034.0,-7.0,26.0,-8.0
2881.0,2753.0,2835.0,3165.0,3027.0,0.797424,0.029785,-0.602417,0.017822,-1.0,1.0,-1.0,7559.0,230.0,1939.0,-320.0,16.0,-292.0,191.0,38.0,-386.0,0.961826,0.02603,0.27241,15172.0,542.0,4130.0,-6.0,26.0,-3.0
2850.0,2747.0,2820.0,3115.0,3047.0,0.797546,0.029785,-0.602234,0.017822,-1.0,1.0,0.0,7596.0,268.0,2044.0,-282.0,54.0,-190.0,101.0,69.0,-321.0,0.961681,0.026044,0.272825,15388.0,688.0,4446.0,-4.0,26.0,5.0
2861.0,2757.0,2815.0,3155.0,3031.0,0.797668,0.029724,-0.602051,0.017761,-1.0,1.0,0.0,7630.0,279.0,2085.0,-246.0,65.0,-153.0,75.0,77.0,-276.0,0.96153,0.026034,0.273242,15428.0,580.0,4412.0,-15.0,37.0,10.0
2879.0,2761.0,2839.0,3159.0,3030.0,0.797974,0.029663,-0.601685,0.017822,0.0,1.0,0.0,7607.0,275.0,2122.0,-268.0,62.0,-124.0,41.0,72.0,-290.0,0.961314,0.025894,0.274175,15164.0,678.0,4394.0,6.0,44.0,8.0
2877.0,2768.0,2814.0,3163.0,3051.0,0.798096,0.029724,-0.601501,0.017822,-1.0,1.0,0.0,7592.0,297.0,2139.0,-281.0,83.0,-110.0,22.0,92.0,-298.0,0.961171,0.026005,0.274587,15058.0,714.0,4316.0,-7.0,41.0,10.0
2874.0,2763.0,2807.0,3135.0,3047.0,0.798218,0.029541,-0.601379,0.017822,-1.0,0.0,0.0,7550.0,245.0,2104.0,-323.0,34.0,-148.0,50.0,46.0,-350.0,0.961116,0.025724,0.274939,15100.0,236.0,4202.0,-7.0,6.0,12.0
2885.0,2763.0,2815.0,3135.0,3039.0,0.798218,0.02948,-0.601379,0.017883,0.0,-1.0,0.0,7554.0,228.0,2097.0,-319.0,18.0,-155.0,59.0,30.0,-348.0,0.961118,0.025554,0.274945,15130.0,394.0,4138.0,13.0,-2.0,11.0
2864.0,2751.0,2832.0,3149.0,3021.0,0.798096,0.029663,-0.601501,0.018066,0.0,-1.0,0.0,7563.0,222.0,2092.0,-311.0,12.0,-157.0,64.0,24.0,-341.0,0.961183,0.025614,0.274599,15046.0,420.0,4128.0,21.0,-7.0,4.0
2865.0,2759.0,2839.0,3139.0,3027.0,0.798035,0.029724,-0.601624,0.018127,1.0,-1.0,0.0,7578.0,218.0,2091.0,-297.0,8.0,-156.0,67.0,20.0,-328.0,0.961311,0.02563,0.274354,15308.0,410.0,4208.0,26.0,-20.0,4.0
2891.0,2750.0,2833.0,3159.0,3047.0,0.797974,0.029907,-0.601685,0.01825,0.0,0.0,-1.0,7623.0,235.0,2097.0,-252.0,23.0,-149.0,72.0,35.0,-282.0,0.961348,0.025769,0.274176,15242.0,448.0,4152.0,10.0,16.0,-2.0
2866.0,2755.0,2834.0,3155.0,3021.0,0.797974,0.029968,-0.601624,0.01825,0.0,0.0,-1.0,7585.0,207.0,2067.0,-289.0,-4.0,-179.0,92.0,10.0,-326.0,0.961253,0.025869,0.274246,14908.0,216.0,3956.0,7.0,17.0,-6.0
2863.0,2747.0,2832.0,3171.0,3043.0,0.797852,0.030029,-0.601807,0.018372,0.0,-1.0,0.0,7558.0,169.0,2046.0,-317.0,-42.0,-197.0,104.0,-25.0,-359.0,0.961408,0.025806,0.273832,15158.0,302.0,4038.0,19.0,-19.0,1.0
2854.0,2751.0,2811.0,3151.0,3019.0,0.797729,0.03009,-0.601929,0.018433,0.0,-1.0,0.0,7549.0,162.0,2038.0,-327.0,-49.0,-202.0,107.0,-32.0,-370.0,0.961462,0.025818,0.273488,14942.0,258.0,3922.0,12.0,-19.0,2.0
2865.0,2747.0,2821.0,3139.0,3024.0,0.797363,0.030212,-0.602417,0.018555,1.0,-2.0,-1.0,7590.0,129.0,2029.0,-289.0,-82.0,-201.0,119.0,-65.0,-334.0,0.961812,0.025825,0.272313,15578.0,280.0,4170.0,29.0,-43.0,-8.0
2867.0,2754.0,2833.0,3139.0,3023.0,0.797302,0.030334,-0.602539,0.018616,0.0,-1.0,-1.0,7644.0,160.0,2047.0,-236.0,-52.0,-181.0,112.0,-37.0,-277.0,0.961941,0.025938,0.272064,15600.0,490.0,4210.0,20.0,-9.0,-9.0
2869.0,2753.0,2835.0,3151.0,3043.0,0.797424,0.030334,-0.602417,0.018433,-2.0,1.0,-1.0,7659.0,209.0,2050.0,-220.0,-5.0,-181.0,113.0,9.0,-261.0,0.961882,0.026171,0.272399,15156.0,518.0,4012.0,-25.0,39.0,-10.0
2885.0,2762.0,2831.0,3142.0,3027.0,0.797485,0.030273,-0.602295,0.01825,-2.0,1.0,-1.0,7622.0,207.0,2033.0,-256.0,-8.0,-200.0,122.0,7.0,-300.0,0.961748,0.026302,0.27264,14988.0,388.0,3936.0,-38.0,33.0,-12.0
2864.0,2741.0,2827.0,3147.0,3034.0,0.797485,0.03009,-0.602356,0.017944,-1.0,-1.0,-1.0,7540.0,196.0,2041.0,-339.0,-20.0,-191.0,91.0,-4.0,-378.0,0.96182,0.026375,0.272567,14964.0,394.0,4232.0,-18.0,-16.0,-19.0
2870.0,2761.0,2827.0,3153.0,3027.0,0.797363,0.03009,-0.602417,0.017883,-1.0,-2.0,-1.0,7549.0,201.0,2065.0,-329.0,-15.0,-165.0,69.0,0.0,-361.0,0.961767,0.026439,0.272296,15148.0,430.0,4256.0,-9.0,-26.0,-15.0
2871.0,2763.0,2823.0,3143.0,3051.0,0.797119,0.030273,-0.602722,0.017761,0.0,-2.0,-1.0,7564.0,208.0,2100.0,-316.0,-11.0,-124.0,33.0,0.0,-337.0,0.961958,0.026853,0.271524,15368.0,522.0,4400.0,20.0,-44.0,-13.0
2866.0,2763.0,2834.0,3147.0,3021.0,0.797058,0.030396,-0.602844,0.017822,0.0,-2.0,-1.0,7610.0,250.0,2131.0,-271.0,29.0,-91.0,11.0,37.0,-284.0,0.962087,0.026966,0.271274,15468.0,790.0,4428.0,19.0,-27.0,-5.0
2867.0,2743.0,2831.0,3151.0,3035.0,0.797058,0.030518,-0.602905,0.017578,-2.0,0.0,-1.0,7643.0,292.0,2142.0,-239.0,67.0,-79.0,6.0,74.0,-249.0,0.962174,0.027453,0.271185,15284.0,562.0,4216.0,-23.0,9.0,-7.0
2864.0,2759.0,2846.0,3148.0,3030.0,0.797058,0.030457,-0.602844,0.017456,-1.0,0.0,-1.0,7609.0,267.0,2100.0,-272.0,41.0,-122.0,40.0,51.0,-293.0,0.962067,0.027505,0.271258,15014.0,354.0,3966.0,-18.0,12.0,-16.0
2878.0,2748.0,2831.0,3167.0,3039.0,0.796997,0.030579,-0.602966,0.017334,0.0,-1.0,-1.0,7541.0,255.0,2036.0,-341.0,26.0,-184.0,82.0,41.0,-377.0,0.962185,0.027839,0.271001,14664.0,566.0,3822.0,5.0,-9.0,-14.0
2902.0,2759.0,2815.0,3150.0,3015.0,0.796814,0.03064,-0.60321,0.017273,-1.0,-3.0,-1.0,7501.0,249.0,2020.0,-382.0,19.0,-195.0,82.0,36.0,-419.0,0.962352,0.02799,0.270409,14890.0,410.0,4030.0,-4.0,-55.0,-17.0
2869.0,2747.0,2831.0,3167.0,3007.0,0.796326,0.030762,-0.603821,0.017212,0.0,-3.0,-1.0,7571.0,246.0,2028.0,-315.0,14.0,-174.0,81.0,29.0,-349.0,0.962735,0.028207,0.268885,15394.0,594.0,4090.0,6.0,-64.0,-3.0
2867.0,2753.0,2831.0,3139.0,3047.0,0.796143,0.030762,-0.604126,0.017151,-1.0,-2.0,-1.0,7608.0,257.0,2029.0,-280.0,25.0,-168.0,84.0,39.0,-313.0,0.962996,0.028259,0.268223,15432.0,570.0,4056.0,-2.0,-45.0,-7.0
2864.0,2751.0,2832.0,3153.0,3047.0,0.796021,0.030762,-0.604248,0.017029,-1.0,1.0,-1.0,7699.0,265.0,2041.0,-190.0,32.0,-153.0,93.0,44.0,-223.0,0.963035,0.028395,0.267877,15530.0,536.0,4052.0,-14.0,24.0,-3.0
2883.0,2762.0,2832.0,3141.0,3047.0,0.796143,0.030762,-0.604126,0.016907,-1.0,2.0,-1.0,7662.0,252.0,2012.0,-226.0,18.0,-185.0,115.0,33.0,-266.0,0.962981,0.028554,0.268214,15024.0,402.0,3820.0,-17.0,46.0,-7.0
2871.0,2737.0,2832.0,3135.0,3039.0,0.796143,0.030762,-0.604065,0.016785,0.0,-1.0,-1.0,7523.0,218.0,1966.0,-364.0,-17.0,-231.0,124.0,2.0,-412.0,0.962876,0.028703,0.268284,14768.0,360.0,3948.0,8.0,-13.0,-18.0
2883.0,2755.0,2815.0,3153.0,3007.0,0.796021,0.030884,-0.604248,0.016785,1.0,-2.0,-1.0,7509.0,218.0,1981.0,-380.0,-18.0,-213.0,103.0,0.0,-423.0,0.963024,0.028884,0.267861,14958.0,484.0,4102.0,23.0,-43.0,-15.0
2879.0,2763.0,2823.0,3149.0,2995.0,0.795654,0.031128,-0.604736,0.016724,-1.0,-3.0,-1.0,7582.0,290.0,2077.0,-309.0,49.0,-107.0,16.0,59.0,-324.0,0.963363,0.029307,0.26667,15488.0,802.0,4446.0,-1.0,-62.0,-4.0
2861.0,2767.0,2823.0,3139.0,3047.0,0.795471,0.031128,-0.604919,0.016602,-1.0,-2.0,-1.0,7621.0,300.0,2103.0,-271.0,58.0,-77.0,-2.0,66.0,-279.0,0.963426,0.029438,0.266154,15442.0,592.0,4302.0,-21.0,-45.0,-3.0
2887.0,2754.0,2838.0,3165.0,3026.0,0.795288,0.031067,-0.605164,0.016479,-1.0,-1.0,-1.0,7660.0,288.0,2100.0,-233.0,46.0,-75.0,6.0,53.0,-243.0,0.963583,0.029469,0.265567,15426.0,592.0,4166.0,-7.0,-16.0,-3.0
2886.0,2757.0,2822.0,3151.0,3027.0,0.795288,0.031067,-0.605164,0.016418,-1.0,0.0,-1.0,7671.0,310.0,2079.0,-222.0,67.0,-96.0,28.0,76.0,-237.0,0.963579,0.029543,0.265565,15372.0,772.0,4032.0,-12.0,9.0,-4.0
2859.0,2746.0,2815.0,3125.0,3029.0,0.795349,0.031067,-0.605103,0.016296,-2.0,1.0,-1.0,7626.0,301.0,2041.0,-267.0,57.0,-135.0,54.0,69.0,-291.0,0.963548,0.029696,0.265732,14874.0,442.0,3778.0,-29.0,29.0,-10.0
2887.0,2763.0,2807.0,3135.0,3039.0,0.795288,0.031067,-0.605225,0.016174,0.0,-2.0,-1.0,7509.0,254.0,1964.0,-385.0,9.0,-210.0,98.0,28.0,-426.0,0.963661,0.029836,0.265483,14886.0,520.0,3822.0,14.0,-24.0,-14.0
2871.0,2759.0,2838.0,3175.0,3039.0,0.795105,0.031189,-0.605408,0.016113,0.0,-2.0,-1.0,7513.0,272.0,1974.0,-381.0,25.0,-196.0,85.0,43.0,-418.0,0.963731,0.030087,0.26496,15046.0,664.0,4018.0,17.0,-41.0,-7.0
2875.0,2754.0,2839.0,3139.0,3047.0,0.7948,0.031372,-0.605835,0.016113,0.0,-2.0,0.0,7584.0,284.0,2014.0,-313.0,35.0,-148.0,57.0,49.0,-339.0,0.964046,0.030345,0.263946,15474.0,604.0,4162.0,5.0,-45.0,2.0
2863.0,2766.0,2843.0,3143.0,3031.0,0.794678,0.031372,-0.606018,0.016113,0.0,-2.0,0.0,7621.0,296.0,2027.0,-277.0,47.0,-131.0,49.0,59.0,-300.0,0.964189,0.030331,0.26353,15438.0,658.0,4124.0,2.0,-23.0,2.0
2873.0,2767.0,2810.0,3141.0,3039.0,0.794556,0.031372,-0.60614,0.016113,-1.0,-1.0,0.0,7645.0,293.0,2005.0,-254.0,44.0,-151.0,75.0,57.0,-283.0,0.964235,0.03032,0.263188,15356.0,560.0,3920.0,-4.0,-6.0,8.0
2865.0,2764.0,2833.0,3162.0,3045.0,0.794556,0.031311,-0.606201,0.016113,-1.0,0.0,0.0,7649.0,284.0,1989.0,-250.0,36.0,-166.0,91.0,50.0,-283.0,0.96433,0.030221,0.263118,15288.0,510.0,3850.0,-12.0,2.0,11.0
2879.0,2762.0,2833.0,3163.0,3031.0,0.794495,0.031128,-0.606262,0.016113,-1.0,-1.0,-1.0,7590.0,214.0,1926.0,-309.0,-31.0,-228.0,139.0,-11.0,-358.0,0.964347,0.029924,0.262959,14912.0,122.0,3602.0,-6.0,0.0,-3.0
2863.0,2762.0,2805.0,3153.0,3043.0,0.794373,0.031189,-0.606445,0.016113,0.0,-1.0,-1.0,7562.0,187.0,1919.0,-339.0,-58.0,-231.0,136.0,-37.0,-389.0,0.964492,0.030008,0.262539,15042.0,294.0,3850.0,19.0,-21.0,-13.0
2867.0,2742.0,2829.0,3151.0,3055.0,0.794128,0.031433,-0.606689,0.016174,0.0,-1.0,-1.0,7613.0,247.0,1966.0,-288.0,-1.0,-179.0,96.0,15.0,-324.0,0.964595,0.030298,0.261841,15320.0,698.0,4046.0,2.0,-18.0,-4.0
2879.0,2752.0,2833.0,3143.0,3043.0,0.794067,0.031372,-0.60675,0.016052,-2.0,-1.0,-1.0,7617.0,270.0,1983.0,-285.0,21.0,-160.0,77.0,35.0,-316.0,0.964609,0.030344,0.26167,15240.0,634.0,4036.0,-23.0,-16.0,-1.0
2877.0,2762.0,2833.0,3167.0,3039.0,0.016724,0.122009,-1.21228,-0.727966,15966.0,-25362.0,7827.0,-3132.0,31470.0,8583.0,-2008.0,16977.0,16400.0,-4202.0,-20309.0,14658.0,-0.13709,1.769079,-0.954295,15528.0,472.0,4034.0,-24.0,11.0,3.0
2869.0,2745.0,2799.0,3133.0,3003.0,0.794128,0.031128,-0.60675,0.015808,-1.0,1.0,-1.0,7672.0,263.0,1999.0,-230.0,15.0,-145.0,78.0,27.0,-259.0,0.96466,0.030256,0.261775,15228.0,490.0,3914.0,-12.0,40.0,-4.0
2879.0,2737.0,2813.0,3139.0,3039.0,0.79425,0.03125,-0.606628,0.015747,0.0,0.0,-1.0,7565.0,246.0,1969.0,-337.0,-4.0,-178.0,82.0,12.0,-371.0,0.964614,0.030535,0.262107,14934.0,524.0,3982.0,17.0,7.0,-14.0
2875.0,2751.0,2828.0,3159.0,3055.0,0.794189,0.031372,-0.606628,0.015747,0.0,-1.0,-1.0,7550.0,270.0,1978.0,-351.0,18.0,-168.0,68.0,34.0,-382.0,0.964544,0.030725,0.262003,14996.0,698.0,4002.0,18.0,-9.0,-7.0
2885.0,2759.0,2822.0,3143.0,3019.0,0.794006,0.031555,-0.606873,0.015747,0.0,-3.0,-1.0,7541.0,290.0,2040.0,-361.0,36.0,-101.0,0.0,47.0,-373.0,0.964715,0.030997,0.261404,15132.0,584.0,4346.0,12.0,-47.0,-3.0
2863.0,2745.0,2823.0,3135.0,3025.0,0.793884,0.031677,-0.607056,0.015747,0.0,-3.0,0.0,7572.0,319.0,2074.0,-332.0,63.0,-63.0,-30.0,71.0,-334.0,0.964862,0.031177,0.26098,15406.0,856.0,4366.0,8.0,-53.0,5.0
2879.0,2755.0,2811.0,3139.0,3003.0,0.793701,0.031555,-0.6073,0.015686,-2.0,-1.0,0.0,7665.0,303.0,2103.0,-240.0,48.0,-30.0,-36.0,53.0,-237.0,0.965019,0.031039,0.260399,15520.0,348.0,4122.0,-23.0,-18.0,13.0
2879.0,2765.0,2826.0,3143.0,3029.0,0.79364,0.031433,-0.607361,0.015686,-1.0,-1.0,0.0,7667.0,258.0,2067.0,-238.0,5.0,-64.0,0.0,12.0,-246.0,0.965038,0.030839,0.260235,15260.0,282.0,3884.0,-4.0,0.0,10.0
2871.0,2759.0,2827.0,3143.0,3039.0,0.465515,0.014709,0.123413,-1.21228,26905.0,-25584.0,8193.0,3351.0,22887.0,-31475.0,4584.0,25226.0,20374.0,24365.0,22777.0,26149.0,-0.150565,-0.285528,1.670881,15152.0,296.0,3768.0,8.0,-11.0,-8.0
2867.0,2755.0,2815.0,3143.0,3023.0,0.793457,0.031494,-0.607544,0.015808,0.0,-1.0,-1.0,7609.0,197.0,1954.0,-297.0,-55.0,-173.0,92.0,-38.0,-333.0,0.965116,0.03077,0.259722,15256.0,278.0,3752.0,13.0,-16.0,-7.0
2866.0,2741.0,2815.0,3127.0,3039.0,0.793274,0.031616,-0.607849,0.015808,0.0,-1.0,-1.0,7593.0,200.0,1930.0,-315.0,-53.0,-192.0,106.0,-35.0,-355.0,0.965381,0.030943,0.259053,15202.0,438.0,3858.0,6.0,-22.0,-17.0
2879.0,2765.0,2831.0,3151.0,3039.0,0.793152,0.031677,-0.607971,0.015747,-1.0,-1.0,-1.0,7607.0,213.0,1930.0,-301.0,-41.0,-189.0,106.0,-23.0,-340.0,0.965425,0.031102,0.258705,15306.0,514.0,3878.0,-3.0,-22.0,-17.0
2878.0,2763.0,2831.0,3151.0,3044.0,0.79303,0.031677,-0.608154,0.015503,-1.0,-1.0,-1.0,7645.0,222.0,1953.0,-264.0,-35.0,-162.0,89.0,-20.0,-297.0,0.965551,0.031386,0.258281,15464.0,424.0,4024.0,-11.0,-7.0,-18.0
2867.0,2743.0,2826.0,3143.0,3031.0,0.793091,0.031738,-0.608093,0.015442,-1.0,0.0,-1.0,7682.0,234.0,1975.0,-227.0,-24.0,-142.0,79.0,-10.0,-256.0,0.965527,0.031562,0.258447,15570.0,576.0,4082.0,-5.0,19.0,-19.0
2871.0,2751.0,2831.0,3135.0,3043.0,0.793274,0.03186,-0.607788,0.015198,-1.0,1.0,-2.0,7623.0,268.0,1965.0,-284.0,5.0,-157.0,76.0,19.0,-314.0,0.965253,0.032074,0.259093,14934.0,568.0,3864.0,-3.0,42.0,-23.0
2873.0,2759.0,2823.0,3143.0,3034.0,0.793335,0.031921,-0.607727,0.015076,0.0,0.0,-1.0,7574.0,276.0,1958.0,-333.0,11.0,-165.0,71.0,27.0,-363.0,0.965225,0.032325,0.259256,14892.0,626.0,3916.0,1.0,17.0,-18.0
2871.0,2747.0,2831.0,3130.0,3039.0,0.793335,0.031982,-0.607727,0.015076,0.0,-1.0,-1.0,7553.0,295.0,1958.0,-354.0,29.0,-165.0,64.0,45.0,-383.0,0.965227,0.032422,0.259253,15016.0,730.0,3914.0,3.0,-6.0,-8.0
2878.0,2741.0,2823.0,3147.0,3027.0,0.793152,0.032043,-0.607971,0.014893,-1.0,-2.0,0.0,7567.0,332.0,1978.0,-341.0,63.0,-140.0,42.0,77.0,-363.0,0.965381,0.032722,0.258656,15352.0,714.0,4038.0,-18.0,-34.0,1.0
2875.0,2741.0,2831.0,3151.0,3035.0,0.793091,0.031982,-0.608093,0.014771,-1.0,-1.0,0.0,7625.0,332.0,1992.0,-284.0,63.0,-124.0,41.0,75.0,-304.0,0.965491,0.032766,0.258411,15616.0,658.0,4078.0,-20.0,-22.0,3.0
2877.0,2762.0,2833.0,3139.0,3039.0,0.793213,0.03186,-0.60791,0.014587,-1.0,2.0,-1.0,7699.0,332.0,1996.0,-209.0,63.0,-124.0,61.0,74.0,-231.0,0.965334,0.032808,0.25883,15484.0,650.0,3964.0,-22.0,57.0,-11.0
2866.0,2751.0,2822.0,3139.0,3027.0,0.793457,0.031799,-0.607666,0.014465,-2.0,3.0,-1.0,7685.0,329.0,1969.0,-222.0,59.0,-156.0,88.0,72.0,-252.0,0.965234,0.032883,0.259514,15240.0,650.0,3782.0,-29.0,85.0,-14.0
2871.0,2753.0,2827.0,3135.0,3039.0,0.794006,0.031616,-0.606934,0.014038,-3.0,4.0,-1.0,7634.0,312.0,1921.0,-268.0,40.0,-219.0,138.0,58.0,-314.0,0.964706,0.033167,0.261275,15158.0,462.0,3664.0,-49.0,100.0,-22.0
2875.0,2751.0,2830.0,3151.0,3035.0,0.79425,0.031433,-0.606567,0.013794,-3.0,4.0,-1.0,7627.0,296.0,1925.0,-273.0,24.0,-222.0,140.0,43.0,-320.0,0.9644,0.033198,0.262112,15136.0,520.0,3832.0,-55.0,107.0,-8.0
2869.0,2751.0,2827.0,3143.0,3031.0,0.794678,0.031128,-0.606079,0.01355,-1.0,0.0,-1.0,7454.0,215.0,1926.0,-444.0,-55.0,-231.0,107.0,-32.0,-490.0,0.964119,0.033049,0.263395,14550.0,134.0,3990.0,-10.0,17.0,-19.0
2873.0,2751.0,2822.0,3139.0,3031.0,0.794617,0.031189,-0.606201,0.013611,1.0,-2.0,-1.0,7494.0,237.0,2017.0,-405.0,-33.0,-138.0,27.0,-17.0,-427.0,0.964244,0.033065,0.263148,15416.0,774.0,4716.0,31.0,-37.0,-7.0
2870.0,2752.0,2825.0,3141.0,3023.0,0.794556,0.031311,-0.606201,0.013489,-2.0,-1.0,0.0,7614.0,354.0,2165.0,-284.0,80.0,10.0,-89.0,83.0,-268.0,0.964166,0.033403,0.26304,15436.0,798.0,4614.0,-30.0,-20.0,7.0
2870.0,2759.0,2831.0,3147.0,3035.0,0.794556,0.031189,-0.606262,0.013367,-2.0,-1.0,0.0,7640.0,328.0,2181.0,-259.0,54.0,26.0,-96.0,56.0,-241.0,0.964252,0.033355,0.262971,15426.0,466.0,4428.0,-30.0,-13.0,9.0
2874.0,2762.0,2813.0,3147.0,3025.0,0.794556,0.031128,-0.606201,0.013428,0.0,-1.0,0.0,7607.0,290.0,2132.0,-291.0,18.0,-22.0,-56.0,24.0,-285.0,0.964157,0.033186,0.26305,15014.0,526.0,4018.0,16.0,-3.0,3.0
2865.0,2750.0,2827.0,3135.0,3031.0,0.794495,0.03125,-0.606323,0.01355,1.0,-1.0,0.0,7573.0,289.0,2076.0,-326.0,16.0,-76.0,-13.0,26.0,-333.0,0.964288,0.033225,0.262801,14964.0,580.0,3834.0,26.0,-13.0,2.0
2875.0,2757.0,2829.0,3149.0,3035.0,0.79425,0.031555,-0.606628,0.013672,1.0,-2.0,-1.0,7559.0,277.0,1977.0,-342.0,2.0,-169.0,72.0,18.0,-374.0,0.964493,0.033538,0.262027,15116.0,478.0,3702.0,32.0,-26.0,-5.0
2875.0,2757.0,2823.0,3142.0,3031.0,0.794128,0.031677,-0.606812,0.013733,1.0,-2.0,-1.0,7574.0,265.0,1938.0,-328.0,-10.0,-205.0,111.0,9.0,-370.0,0.964643,0.033645,0.261605,15264.0,424.0,3668.0,33.0,-24.0,-6.0
2871.0,2759.0,2807.0,3151.0,3035.0,0.793884,0.032043,-0.607056,0.013916,1.0,-1.0,-1.0,7613.0,212.0,1903.0,-290.0,-66.0,-234.0,153.0,-45.0,-343.0,0.964756,0.033982,0.260903,15486.0,180.0,3810.0,43.0,-9.0,-18.0
2849.0,2753.0,2823.0,3143.0,3035.0,0.793884,0.032349,-0.607056,0.014099,2.0,1.0,-1.0,7663.0,239.0,1925.0,-240.0,-41.0,-212.0,143.0,-22.0,-288.0,0.964776,0.034244,0.260888,15594.0,766.0,3924.0,63.0,28.0,-22.0
2871.0,2753.0,2827.0,3183.0,3035.0,0.79425,0.032776,-0.606567,0.014038,0.0,3.0,-2.0,7666.0,286.0,1959.0,-234.0,-1.0,-187.0,118.0,16.0,-274.0,0.964453,0.035034,0.262033,15222.0,506.0,3982.0,14.0,78.0,-24.0
2879.0,2763.0,2830.0,3151.0,3031.0,0.794495,0.032959,-0.606201,0.014038,1.0,3.0,-1.0,7638.0,261.0,1970.0,-260.0,-28.0,-183.0,109.0,-10.0,-299.0,0.964172,0.035352,0.262853,15044.0,414.0,4008.0,26.0,81.0,-22.0
2875.0,2759.0,2827.0,3153.0,3037.0,0.794861,0.033508,-0.605713,0.01416,2.0,1.0,-2.0,7547.0,273.0,2019.0,-348.0,-22.0,-143.0,46.0,-5.0,-373.0,0.963864,0.036115,0.263993,14910.0,736.0,4270.0,66.0,39.0,-29.0
2870.0,2757.0,2831.0,3146.0,3035.0,0.794922,0.033875,-0.605591,0.014221,2.0,0.0,-1.0,7513.0,328.0,2065.0,-382.0,27.0,-99.0,-8.0,40.0,-393.0,0.963758,0.036631,0.264215,14828.0,1024.0,4450.0,55.0,11.0,-20.0
2875.0,2763.0,2827.0,3152.0,3055.0,0.794922,0.03418,-0.605591,0.014221,1.0,-2.0,-1.0,7501.0,373.0,2113.0,-394.0,68.0,-51.0,-60.0,78.0,-390.0,0.963767,0.037116,0.264195,15006.0,980.0,4478.0,26.0,-25.0,-11.0
2874.0,2765.0,2834.0,3153.0,3039.0,0.794678,0.034302,-0.605835,0.014099,-1.0,-3.0,0.0,7551.0,428.0,2188.0,-344.0,121.0,29.0,-126.0,125.0,-319.0,0.963854,0.037434,0.263499,15340.0,962.0,4504.0,-15.0,-60.0,9.0
2871.0,2758.0,2831.0,3143.0,3031.0,0.794556,0.034241,-0.606018,0.014038,-2.0,-3.0,0.0,7595.0,428.0,2184.0,-302.0,121.0,28.0,-114.0,124.0,-279.0,0.963992,0.037398,0.263085,15452.0,848.0,4308.0,-26.0,-52.0,19.0
2871.0,2755.0,2829.0,3147.0,3031.0,0.794373,0.033936,-0.606323,0.013977,-1.0,-1.0,0.0,7642.0,380.0,2121.0,-257.0,77.0,-28.0,-45.0,83.0,-252.0,0.964242,0.036966,0.262444,15372.0,536.0,4000.0,-19.0,-19.0,13.0
2878.0,2763.0,2831.0,3153.0,3031.0,0.794312,0.033875,-0.606384,0.013977,-1.0,0.0,-1.0,7612.0,338.0,2055.0,-287.0,36.0,-93.0,11.0,47.0,-299.0,0.964263,0.036863,0.262277,14976.0,404.0,3672.0,-2.0,2.0,-1.0
2879.0,2759.0,2832.0,3151.0,3029.0,-1.21228,0.245667,0.648376,0.651855,16000.0,-13768.0,-14578.0,31202.0,-23888.0,21960.0,15700.0,-25933.0,10378.0,14048.0,24249.0,-27629.0,1.892306,0.249662,1.413795,15066.0,534.0,3936.0,41.0,-28.0,-12.0
2877.0,2755.0,2827.0,3143.0,3039.0,0.793945,0.034363,-0.606812,0.01416,1.0,-2.0,-1.0,7558.0,304.0,1965.0,-343.0,-2.0,-174.0,77.0,17.0,-376.0,0.964523,0.037379,0.261149,15242.0,758.0,3922.0,38.0,-30.0,-4.0
2871.0,2754.0,2827.0,3139.0,3031.0,0.793762,0.034485,-0.607056,0.014221,-1.0,-1.0,0.0,7615.0,338.0,1966.0,-287.0,30.0,-168.0,84.0,47.0,-319.0,0.964697,0.037479,0.260555,15424.0,662.0,3900.0,-9.0,-13.0,6.0
2875.0,2759.0,2832.0,3151.0,3043.0,0.793762,0.034363,-0.607117,0.01416,-2.0,0.0,0.0,7643.0,321.0,1960.0,-260.0,14.0,-173.0,97.0,31.0,-295.0,0.964786,0.037358,0.260487,15452.0,512.0,3894.0,-24.0,2.0,7.0
2878.0,2757.0,2832.0,3119.0,3039.0,0.793823,0.034119,-0.606995,0.01416,-1.0,1.0,0.0,7644.0,248.0,1916.0,-258.0,-54.0,-220.0,147.0,-33.0,-308.0,0.964659,0.036978,0.260749,15174.0,246.0,3704.0,-9.0,38.0,2.0
2871.0,2758.0,2827.0,3139.0,3031.0,0.793884,0.034119,-0.606934,0.014221,0.0,1.0,-1.0,7613.0,215.0,1900.0,-289.0,-87.0,-237.0,157.0,-64.0,-343.0,0.96464,0.03691,0.260922,15048.0,258.0,3732.0,12.0,37.0,-7.0
2875.0,2758.0,2818.0,3147.0,3029.0,0.794006,0.034363,-0.60675,0.014282,0.0,1.0,-1.0,7609.0,271.0,1964.0,-292.0,-34.0,-176.0,94.0,-15.0,-328.0,0.964509,0.037237,0.261323,15326.0,892.0,4262.0,15.0,33.0,-16.0
2879.0,2759.0,2834.0,3151.0,3039.0,0.794189,0.034424,-0.606567,0.01416,-1.0,1.0,-1.0,7595.0,311.0,2003.0,-305.0,3.0,-141.0,55.0,19.0,-330.0,0.964434,0.0375,0.261828,15044.0,802.0,4216.0,-18.0,38.0,-12.0
2871.0,2757.0,2831.0,3155.0,3035.0,0.794312,0.034241,-0.606323,0.013794,-2.0,0.0,-1.0,7584.0,344.0,2077.0,-314.0,35.0,-71.0,-16.0,46.0,-320.0,0.964164,0.037668,0.262321,15268.0,738.0,4458.0,-43.0,8.0,-7.0
2878.0,2758.0,2815.0,3151.0,3039.0,0.794434,0.034058,-0.606262,0.013611,-2.0,0.0,-1.0,7617.0,348.0,2120.0,-281.0,39.0,-31.0,-46.0,46.0,-277.0,0.964197,0.03761,0.262596,15456.0,776.0,4516.0,-39.0,12.0,-6.0
2869.0,2766.0,2831.0,3147.0,3027.0,0.794739,0.033875,-0.605835,0.013306,-2.0,2.0,-1.0,7639.0,348.0,2152.0,-256.0,38.0,-7.0,-63.0,43.0,-247.0,0.963863,0.037721,0.263603,15130.0,540.0,4170.0,-31.0,49.0,-6.0
2875.0,2759.0,2835.0,3153.0,3024.0,0.794861,0.033813,-0.605652,0.013245,-1.0,1.0,-1.0,7593.0,323.0,2138.0,-301.0,14.0,-24.0,-57.0,21.0,-295.0,0.963714,0.037711,0.264022,14920.0,504.0,4200.0,-4.0,31.0,-10.0
2873.0,2767.0,2831.0,3155.0,3023.0,0.794861,0.034058,-0.605713,0.013306,0.0,-2.0,-1.0,7512.0,344.0,2087.0,-383.0,32.0,-75.0,-31.0,44.0,-387.0,0.963821,0.038023,0.263933,14920.0,824.0,4018.0,18.0,-29.0,-4.0
2871.0,2759.0,2833.0,3147.0,3031.0,0.794678,0.034119,-0.605896,0.013245,0.0,-3.0,0.0,7526.0,361.0,2085.0,-370.0,48.0,-72.0,-31.0,60.0,-373.0,0.963888,0.038177,0.263414,15200.0,778.0,4188.0,2.0,-52.0,2.0
2879.0,2763.0,2822.0,3139.0,3021.0,0.794312,0.034058,-0.606384,0.013245,-1.0,-3.0,0.0,7549.0,342.0,2061.0,-349.0,30.0,-87.0,-10.0,43.0,-358.0,0.964218,0.038042,0.262244,15076.0,576.0,3998.0,-3.0,-62.0,4.0
2868.0,2758.0,2827.0,3147.0,3039.0,0.794128,0.034119,-0.606689,0.013245,0.0,-3.0,-1.0,7590.0,333.0,2065.0,-311.0,20.0,-77.0,-9.0,31.0,-319.0,0.964482,0.038118,0.261579,15482.0,678.0,4158.0,11.0,-63.0,-1.0
2869.0,2769.0,2839.0,3155.0,3030.0,0.793945,0.034119,-0.606873,0.013245,-1.0,0.0,0.0,7695.0,357.0,2077.0,-206.0,44.0,-61.0,1.0,52.0,-212.0,0.964551,0.038101,0.261066,15586.0,762.0,4168.0,-6.0,8.0,6.0
2871.0,2768.0,2835.0,3151.0,3042.0,0.794067,0.034119,-0.60675,0.013184,-1.0,1.0,0.0,7668.0,344.0,2041.0,-233.0,31.0,-100.0,32.0,42.0,-249.0,0.964501,0.038187,0.261407,15072.0,596.0,3804.0,-12.0,44.0,0.0
2871.0,2751.0,2825.0,3147.0,3031.0,0.794189,0.034058,-0.606567,0.013062,-1.0,0.0,-1.0,7558.0,334.0,1976.0,-341.0,20.0,-168.0,70.0,38.0,-372.0,0.964349,0.038251,0.261824,14848.0,654.0,3824.0,-10.0,20.0,-7.0
2881.0,2751.0,2832.0,3163.0,3047.0,0.794189,0.034058,-0.606567,0.013062,-1.0,-1.0,-1.0,7517.0,317.0,1963.0,-382.0,3.0,-181.0,73.0,23.0,-415.0,0.964349,0.038251,0.261824,14810.0,522.0,3860.0,-6.0,-2.0,-2.0
2882.0,2763.0,2841.0,3167.0,3047.0,0.793884,0.03418,-0.606934,0.013123,1.0,-3.0,0.0,7496.0,311.0,1973.0,-405.0,-3.0,-164.0,51.0,16.0,-433.0,0.964567,0.03834,0.260888,15170.0,696.0,4204.0,26.0,-67.0,1.0
2865.0,2755.0,2833.0,3183.0,3039.0,0.79364,0.034302,-0.607239,0.013184,1.0,-4.0,0.0,7541.0,335.0,2005.0,-362.0,20.0,-125.0,24.0,36.0,-380.0,0.964763,0.038435,0.260123,15408.0,830.0,4230.0,29.0,-78.0,7.0
2871.0,2765.0,2827.0,3139.0,3035.0,0.793396,0.034424,-0.607605,0.013367,-1.0,-1.0,1.0,7709.0,394.0,2090.0,-196.0,79.0,-34.0,-23.0,85.0,-194.0,0.965063,0.03838,0.259287,15836.0,940.0,4282.0,-1.0,-13.0,23.0
2855.0,2755.0,2835.0,3171.0,3047.0,0.793457,0.034363,-0.607483,0.013367,-1.0,1.0,0.0,7735.0,388.0,2093.0,-169.0,74.0,-33.0,-17.0,79.0,-168.0,0.964942,0.038291,0.259536,15522.0,670.0,4156.0,-17.0,41.0,16.0
2883.0,2742.0,2845.0,3167.0,3039.0,0.793823,0.03418,-0.606995,0.013367,-1.0,2.0,0.0,7590.0,326.0,1970.0,-312.0,14.0,-165.0,76.0,31.0,-343.0,0.964607,0.038038,0.260723,14474.0,490.0,3438.0,-4.0,65.0,1.0
2879.0,2759.0,2829.0,3151.0,3039.0,0.793884,0.03418,-0.606934,0.013367,0.0,0.0,-1.0,7506.0,306.0,1933.0,-395.0,-5.0,-204.0,92.0,17.0,-434.0,0.964584,0.038044,0.260894,14610.0,498.0,3736.0,2.0,19.0,-6.0
2871.0,2753.0,2827.0,3147.0,3039.0,0.793701,0.034241,-0.607178,0.013367,-1.0,-2.0,0.0,7492.0,315.0,1957.0,-411.0,2.0,-175.0,60.0,22.0,-441.0,0.964751,0.038122,0.260303,15146.0,692.0,4180.0,0.0,-38.0,2.0
2865.0,2755.0,2825.0,3155.0,3047.0,0.793579,0.034241,-0.607361,0.013367,-1.0,-2.0,0.0,7554.0,329.0,2013.0,-350.0,16.0,-115.0,18.0,31.0,-366.0,0.964893,0.038109,0.259887,15566.0,778.0,4384.0,-2.0,-42.0,6.0
2873.0,2769.0,2831.0,3133.0,3023.0,0.793579,0.03418,-0.6073,0.013367,-1.0,0.0,0.0,7684.0,364.0,2103.0,-219.0,52.0,-26.0,-35.0,58.0,-216.0,0.964795,0.038013,0.259965,15584.0,850.0,4350.0,-10.0,17.0,12.0
2871.0,2771.0,2845.0,3153.0,3027.0,0.793762,0.034119,-0.607178,0.013367,-1.0,1.0,0.0,7706.0,364.0,2120.0,-197.0,53.0,-13.0,-42.0,57.0,-191.0,0.964822,0.037932,0.260408,15508.0,678.0,4296.0,-10.0,41.0,12.0
2871.0,2762.0,2815.0,3147.0,3055.0,0.794128,0.033875,-0.606628,0.013367,-2.0,2.0,0.0,7677.0,362.0,2057.0,-223.0,54.0,-86.0,20.0,64.0,-235.0,0.964387,0.037584,0.261673,15270.0,672.0,3858.0,-25.0,68.0,19.0
2866.0,2768.0,2799.0,3151.0,3035.0,0.794312,0.033691,-0.606384,0.013367,-2.0,3.0,0.0,7643.0,333.0,1997.0,-255.0,27.0,-151.0,76.0,42.0,-284.0,0.964217,0.037312,0.262272,15012.0,462.0,3600.0,-33.0,79.0,16.0
2879.0,2762.0,2783.0,3153.0,3025.0,0.794678,0.033325,-0.605957,0.013367,-2.0,2.0,0.0,7568.0,250.0,1912.0,-328.0,-51.0,-245.0,151.0,-27.0,-382.0,0.963972,0.036766,0.263397,14944.0,292.0,3684.0,-23.0,67.0,13.0
2854.0,2758.0,2841.0,3155.0,3071.0,0.7948,0.033203,-0.605774,0.013367,-1.0,2.0,0.0,7538.0,244.0,1907.0,-357.0,-55.0,-254.0,152.0,-30.0,-413.0,0.963826,0.036585,0.263821,14896.0,468.0,3834.0,-8.0,62.0,3.0
2867.0,2755.0,2831.0,3143.0,3047.0,0.795105,0.033264,-0.605408,0.013367,0.0,1.0,-1.0,7550.0,252.0,1979.0,-343.0,-48.0,-189.0,93.0,-28.0,-382.0,0.963615,0.036712,0.264746,15188.0,674.0,4268.0,12.0,44.0,-12.0
2866.0,2759.0,2801.0,3149.0,3007.0,0.795227,0.033325,-0.605225,0.013367,0.0,1.0,-1.0,7544.0,242.0,1983.0,-348.0,-59.0,-189.0,92.0,-39.0,-387.0,0.963473,0.036822,0.265157,15124.0,504.0,4106.0,16.0,34.0,-12.0
2877.0,2768.0,2839.0,3147.0,3039.0,0.79541,0.033447,-0.605042,0.013367,-1.0,1.0,-1.0,7602.0,301.0,2049.0,-290.0,-2.0,-127.0,44.0,12.0,-313.0,0.963406,0.037034,0.265662,15332.0,808.0,4168.0,-8.0,26.0,-2.0
2875.0,2751.0,2825.0,3151.0,3043.0,0.795471,0.033386,-0.604919,0.013245,-2.0,1.0,0.0,7636.0,327.0,2084.0,-255.0,23.0,-94.0,20.0,34.0,-269.0,0.963276,0.037092,0.265908,15490.0,782.0,4432.0,-33.0,34.0,0.0
2875.0,2767.0,2823.0,3151.0,2997.0,0.795837,0.033081,-0.604431,0.012939,-2.0,2.0,-1.0,7599.0,306.0,2079.0,-289.0,2.0,-109.0,26.0,15.0,-307.0,0.962914,0.037012,0.267093,15006.0,570.0,4182.0,-36.0,54.0,-12.0
2879.0,2768.0,2832.0,3142.0,3035.0,0.796021,0.03302,-0.604248,0.012817,-1.0,2.0,-1.0,7563.0,306.0,2079.0,-324.0,2.0,-113.0,21.0,16.0,-342.0,0.962834,0.037079,0.267607,14898.0,660.0,4186.0,-21.0,48.0,-10.0
2875.0,2765.0,2823.0,3167.0,3039.0,0.796265,0.032898,-0.603943,0.012512,-2.0,0.0,-1.0,7519.0,362.0,2117.0,-366.0,56.0,-81.0,-24.0,68.0,-371.0,0.96262,0.037278,0.268365,14916.0,838.0,4324.0,-41.0,22.0,-1.0
2861.0,2763.0,2833.0,3157.0,3023.0,0.796326,0.032776,-0.603821,0.01239,-2.0,0.0,0.0,7514.0,353.0,2137.0,-370.0,47.0,-63.0,-42.0,58.0,-371.0,0.962488,0.037238,0.268614,15030.0,624.0,4406.0,-36.0,7.0,0.0
2879.0,2743.0,2833.0,3155.0,3022.0,0.796387,0.032654,-0.60376,0.012329,0.0,-1.0,0.0,7546.0,346.0,2195.0,-338.0,41.0,-6.0,-88.0,47.0,-325.0,0.962458,0.037122,0.268792,15170.0,734.0,4532.0,6.0,0.0,2.0
2871.0,2753.0,2830.0,3119.0,3024.0,0.796448,0.032776,-0.603699,0.012329,0.0,-1.0,0.0,7553.0,355.0,2220.0,-331.0,49.0,16.0,-107.0,54.0,-312.0,0.962437,0.037322,0.268955,15154.0,758.0,4588.0,15.0,-3.0,1.0
2883.0,2755.0,2861.0,3143.0,3011.0,0.796509,0.032898,-0.603577,0.012329,-1.0,0.0,0.0,7576.0,392.0,2245.0,-307.0,84.0,39.0,-125.0,87.0,-281.0,0.962319,0.037524,0.269191,15112.0,832.0,4436.0,-1.0,2.0,7.0
2867.0,2759.0,2827.0,3151.0,2995.0,0.79657,0.032898,-0.603577,0.012329,-1.0,-1.0,0.0,7568.0,382.0,2226.0,-315.0,74.0,19.0,-108.0,78.0,-295.0,0.962393,0.037528,0.269288,15092.0,660.0,4328.0,-11.0,-3.0,9.0
2858.0,2751.0,2832.0,3163.0,3027.0,0.796509,0.032776,-0.603577,0.01239,0.0,-1.0,0.0,7548.0,327.0,2145.0,-335.0,21.0,-60.0,-34.0,31.0,-337.0,0.96232,0.037256,0.269201,14934.0,412.0,3962.0,4.0,-6.0,8.0
2881.0,2768.0,2790.0,3127.0,3059.0,0.796448,0.032837,-0.603699,0.012512,0.0,-1.0,0.0,7523.0,294.0,2100.0,-361.0,-10.0,-103.0,1.0,4.0,-375.0,0.962451,0.037199,0.268955,14876.0,410.0,3912.0,20.0,-21.0,5.0
2867.0,2751.0,2834.0,3135.0,3051.0,0.796326,0.032898,-0.603882,0.012573,1.0,-2.0,0.0,7548.0,295.0,2098.0,-337.0,-9.0,-101.0,6.0,4.0,-351.0,0.9626,0.037209,0.268537,15318.0,622.0,4136.0,29.0,-28.0,3.0
2865.0,2755.0,2831.0,3163.0,3058.0,0.796204,0.032959,-0.603943,0.012634,-1.0,0.0,-1.0,7607.0,311.0,2097.0,-278.0,6.0,-100.0,20.0,18.0,-294.0,0.962556,0.037223,0.268267,15300.0,546.0,4144.0,-8.0,9.0,-1.0
2895.0,2765.0,2815.0,3135.0,3023.0,0.796265,0.032959,-0.603882,0.012573,-1.0,1.0,-1.0,7614.0,292.0,2099.0,-271.0,-13.0,-100.0,23.0,0.0,-288.0,0.962528,0.037303,0.268436,15224.0,466.0,4182.0,-9.0,24.0,-5.0
2869.0,2751.0,2806.0,3143.0,3046.0,0.796448,0.032898,-0.603699,0.012512,-1.0,1.0,-1.0,7581.0,278.0,2071.0,-303.0,-27.0,-132.0,46.0,-12.0,-328.0,0.962452,0.037296,0.268951,15096.0,580.0,4158.0,-6.0,23.0,-10.0
2879.0,2757.0,2835.0,3127.0,3034.0,0.796509,0.032898,-0.603638,0.012451,-1.0,0.0,-1.0,7576.0,293.0,2082.0,-308.0,-13.0,-122.0,34.0,1.0,-329.0,0.962425,0.037375,0.269121,15162.0,680.0,4216.0,-12.0,15.0,-7.0
2874.0,2762.0,2818.0,3135.0,3023.0,0.796631,0.032837,-0.603455,0.012329,-1.0,0.0,-1.0,7562.0,303.0,2123.0,-320.0,-3.0,-85.0,-5.0,9.0,-330.0,0.962271,0.037438,0.269537,15064.0,674.0,4416.0,-7.0,13.0,-3.0
2881.0,2747.0,2832.0,3143.0,3027.0,0.796631,0.032837,-0.603394,0.012329,-1.0,0.0,-1.0,7547.0,319.0,2137.0,-335.0,12.0,-71.0,-23.0,23.0,-341.0,0.962174,0.037439,0.269611,15004.0,730.0,4334.0,-4.0,8.0,-3.0
2867.0,2745.0,2807.0,3143.0,3030.0,0.796631,0.032837,-0.603394,0.012207,-1.0,-1.0,0.0,7533.0,347.0,2160.0,-349.0,39.0,-48.0,-50.0,49.0,-347.0,0.962166,0.037587,0.269608,15006.0,778.0,4384.0,-7.0,-21.0,5.0
2873.0,2753.0,2827.0,3145.0,3035.0,0.79657,0.032837,-0.603516,0.012207,-1.0,-2.0,0.0,7530.0,350.0,2157.0,-353.0,42.0,-49.0,-51.0,52.0,-351.0,0.962286,0.03758,0.269363,15058.0,700.0,4308.0,-4.0,-33.0,5.0
2874.0,2767.0,2826.0,3147.0,3037.0,0.796387,0.032959,-0.60376,0.012268,0.0,-2.0,0.0,7565.0,369.0,2165.0,-319.0,60.0,-36.0,-55.0,68.0,-314.0,0.962461,0.037682,0.26877,15302.0,854.0,4308.0,15.0,-30.0,6.0
2878.0,2759.0,2850.0,3135.0,3043.0,0.796326,0.03302,-0.603821,0.012268,0.0,-1.0,0.0,7592.0,370.0,2171.0,-292.0,60.0,-29.0,-54.0,67.0,-286.0,0.962486,0.037774,0.268595,15310.0,722.0,4362.0,13.0,-14.0,6.0
2871.0,2747.0,2832.0,3155.0,3030.0,0.796265,0.033142,-0.603882,0.012451,0.0,-1.0,0.0,7570.0,342.0,2112.0,-315.0,32.0,-86.0,-4.0,44.0,-325.0,0.962525,0.037742,0.268421,14978.0,578.0,3988.0,18.0,-2.0,8.0
2886.0,2767.0,2838.0,3115.0,3051.0,0.796204,0.033203,-0.604004,0.012512,0.0,-1.0,0.0,7542.0,335.0,2080.0,-344.0,25.0,-116.0,17.0,39.0,-361.0,0.962651,0.037758,0.268174,14958.0,670.0,3982.0,21.0,-17.0,7.0
2875.0,2755.0,2837.0,3153.0,3047.0,0.795959,0.033264,-0.604248,0.012695,0.0,-2.0,0.0,7540.0,304.0,2059.0,-346.0,-4.0,-132.0,33.0,11.0,-368.0,0.962759,0.037612,0.26749,15092.0,438.0,4060.0,14.0,-34.0,8.0
2867.0,2751.0,2835.0,3151.0,3019.0,0.795837,0.033325,-0.604492,0.012817,1.0,-2.0,0.0,7539.0,279.0,2055.0,-349.0,-28.0,-132.0,34.0,-11.0,-372.0,0.963009,0.037547,0.267,15074.0,442.0,4090.0,33.0,-45.0,6.0
2876.0,2759.0,2839.0,3151.0,3026.0,0.795471,0.033691,-0.604858,0.013062,1.0,-2.0,0.0,7597.0,307.0,2111.0,-293.0,-2.0,-67.0,-13.0,8.0,-300.0,0.963175,0.0378,0.265956,15434.0,726.0,4388.0,35.0,-44.0,5.0
2879.0,2759.0,2827.0,3135.0,3047.0,0.79541,0.033752,-0.60498,0.013123,0.0,-2.0,0.0,7642.0,333.0,2145.0,-249.0,23.0,-31.0,-38.0,30.0,-247.0,0.963301,0.037816,0.265709,15568.0,816.0,4488.0,13.0,-26.0,9.0
2886.0,2759.0,2839.0,3155.0,3031.0,0.795471,0.03363,-0.604919,0.013062,-2.0,1.0,0.0,7665.0,341.0,2125.0,-226.0,32.0,-53.0,-11.0,40.0,-230.0,0.96327,0.037702,0.265886,15284.0,654.0,4128.0,-24.0,26.0,7.0
2878.0,2763.0,2819.0,3127.0,3045.0,0.795593,0.033569,-0.604797,0.013,-2.0,1.0,0.0,7625.0,321.0,2086.0,-265.0,12.0,-94.0,18.0,23.0,-279.0,0.963218,0.03769,0.266231,14966.0,514.0,3890.0,-24.0,38.0,2.0
2867.0,2753.0,2839.0,3151.0,3023.0,0.795654,0.033508,-0.604675,0.013,0.0,0.0,-1.0,7514.0,290.0,2027.0,-375.0,-18.0,-156.0,50.0,0.0,-403.0,0.963096,0.0376,0.26648,14698.0,600.0,3938.0,10.0,2.0,-3.0
2864.0,2763.0,2813.0,3159.0,3027.0,0.795532,0.033569,-0.604797,0.013062,0.0,-2.0,-1.0,7491.0,292.0,2014.0,-399.0,-16.0,-166.0,53.0,3.0,-429.0,0.963149,0.037612,0.266135,14944.0,582.0,3996.0,17.0,-29.0,-4.0
2871.0,2755.0,2831.0,3143.0,3027.0,0.795288,0.033752,-0.605164,0.013123,0.0,-2.0,0.0,7560.0,301.0,2040.0,-332.0,-8.0,-133.0,39.0,7.0,-355.0,0.963445,0.037803,0.265293,15384.0,552.0,4200.0,21.0,-37.0,0.0
2878.0,2762.0,2835.0,3151.0,3039.0,0.795166,0.033875,-0.605286,0.013245,1.0,-1.0,-1.0,7601.0,291.0,2055.0,-292.0,-18.0,-115.0,33.0,-4.0,-312.0,0.963502,0.037838,0.264946,15490.0,552.0,4214.0,32.0,-22.0,-3.0
2878.0,2767.0,2819.0,3153.0,3023.0,0.795288,0.034241,-0.605164,0.013367,0.0,2.0,-1.0,7698.0,335.0,2093.0,-194.0,21.0,-80.0,23.0,30.0,-207.0,0.963474,0.038284,0.265266,15546.0,818.0,4178.0,17.0,48.0,-6.0
2875.0,2763.0,2823.0,3135.0,3031.0,0.795471,0.034241,-0.604858,0.013306,-1.0,3.0,-1.0,7685.0,339.0,2060.0,-205.0,24.0,-118.0,57.0,36.0,-227.0,0.963206,0.038379,0.265925,15222.0,670.0,3896.0,-6.0,73.0,-3.0
2867.0,2759.0,2829.0,3155.0,3015.0,0.795654,0.03418,-0.604614,0.013245,-1.0,3.0,-1.0,7635.0,319.0,2014.0,-254.0,4.0,-169.0,93.0,21.0,-289.0,0.963033,0.038375,0.266515,14954.0,490.0,3724.0,-21.0,76.0,-8.0
2876.0,2735.0,2847.0,3150.0,3027.0,0.796021,0.034119,-0.604187,0.013123,-1.0,2.0,-1.0,7545.0,275.0,1959.0,-342.0,-40.0,-233.0,134.0,-16.0,-393.0,0.962786,0.038461,0.267615,14716.0,526.0,3826.0,-2.0,61.0,-15.0
2879.0,2768.0,2825.0,3135.0,3027.0,0.796143,0.03418,-0.604004,0.013062,0.0,1.0,-2.0,7508.0,265.0,1974.0,-377.0,-51.0,-221.0,113.0,-27.0,-424.0,0.962639,0.038645,0.268025,14730.0,442.0,3866.0,8.0,42.0,-23.0
2885.0,2755.0,2847.0,3151.0,3039.0,0.796143,0.034607,-0.604004,0.013245,3.0,-1.0,-2.0,7498.0,226.0,2061.0,-388.0,-94.0,-134.0,29.0,-76.0,-413.0,0.962663,0.039104,0.268,15168.0,610.0,4600.0,80.0,-15.0,-23.0
2871.0,2767.0,2841.0,3143.0,3011.0,0.796082,0.035034,-0.604004,0.013428,3.0,-1.0,-1.0,7549.0,326.0,2160.0,-336.0,1.0,-34.0,-58.0,10.0,-332.0,0.962614,0.039559,0.267878,15452.0,1368.0,4940.0,75.0,-15.0,-20.0
2862.0,2754.0,2835.0,3127.0,3025.0,0.796326,0.0354,-0.603699,0.013184,-2.0,0.0,-1.0,7634.0,444.0,2284.0,-250.0,112.0,83.0,-154.0,111.0,-213.0,0.962415,0.040463,0.268603,15406.0,974.0,4758.0,-27.0,18.0,-1.0
2869.0,2751.0,2836.0,3163.0,3019.0,0.796448,0.035278,-0.603516,0.013062,-2.0,0.0,0.0,7603.0,439.0,2266.0,-279.0,107.0,62.0,-141.0,108.0,-247.0,0.962259,0.040429,0.269024,14930.0,820.0,4362.0,-35.0,22.0,7.0
2882.0,2767.0,2832.0,3163.0,3039.0,0.796448,0.035095,-0.603577,0.012939,-1.0,-2.0,0.0,7489.0,395.0,2185.0,-394.0,65.0,-18.0,-93.0,74.0,-381.0,0.962343,0.040283,0.26896,14730.0,628.0,4124.0,-8.0,-37.0,2.0
2859.0,2751.0,2814.0,3143.0,3035.0,0.796204,0.035095,-0.603821,0.012939,0.0,-3.0,0.0,7479.0,381.0,2148.0,-405.0,51.0,-49.0,-65.0,63.0,-400.0,0.962437,0.04026,0.268276,14978.0,714.0,4122.0,10.0,-68.0,4.0
2869.0,2755.0,2827.0,3119.0,3043.0,0.795654,0.035217,-0.604553,0.013,0.0,-4.0,0.0,7501.0,378.0,2122.0,-387.0,47.0,-61.0,-48.0,59.0,-387.0,0.962946,0.040323,0.26651,15116.0,750.0,4204.0,7.0,-91.0,10.0
2880.0,2762.0,2832.0,3133.0,3035.0,0.795349,0.035217,-0.604919,0.013062,0.0,-4.0,0.0,7541.0,380.0,2121.0,-349.0,50.0,-54.0,-44.0,61.0,-348.0,0.963164,0.040218,0.265583,15354.0,818.0,4316.0,9.0,-91.0,12.0
2864.0,2763.0,2819.0,3143.0,3025.0,0.795044,0.035217,-0.605408,0.013062,-1.0,-2.0,0.0,7647.0,424.0,2138.0,-246.0,94.0,-28.0,-44.0,101.0,-240.0,0.963571,0.040183,0.264507,15646.0,948.0,4234.0,-19.0,-35.0,11.0
2879.0,2743.0,2823.0,3119.0,3007.0,0.794983,0.035095,-0.605469,0.012939,-2.0,0.0,0.0,7658.0,410.0,2112.0,-235.0,81.0,-53.0,-16.0,89.0,-237.0,0.963583,0.040131,0.264341,15240.0,652.0,4004.0,-35.0,4.0,14.0
2877.0,2740.0,2832.0,3141.0,3039.0,0.794922,0.034851,-0.60553,0.012939,0.0,-1.0,0.0,7584.0,313.0,2007.0,-309.0,-12.0,-157.0,69.0,5.0,-339.0,0.9636,0.039737,0.264187,15068.0,398.0,3792.0,9.0,-7.0,7.0
2861.0,2769.0,2819.0,3154.0,3035.0,0.794861,0.034912,-0.605652,0.013062,1.0,-1.0,0.0,7545.0,303.0,1985.0,-349.0,-22.0,-177.0,78.0,-1.0,-383.0,0.96373,0.039679,0.263941,14798.0,566.0,3866.0,26.0,-16.0,8.0
2879.0,2762.0,2832.0,3157.0,3056.0,0.794495,0.035095,-0.60614,0.013367,1.0,-3.0,0.0,7520.0,274.0,2004.0,-377.0,-50.0,-148.0,45.0,-31.0,-404.0,0.964088,0.039562,0.262763,15192.0,512.0,4224.0,43.0,-68.0,11.0
2873.0,2758.0,2810.0,3133.0,3015.0,0.79425,0.035217,-0.606384,0.013611,1.0,-3.0,1.0,7557.0,299.0,2049.0,-341.0,-24.0,-97.0,4.0,-9.0,-355.0,0.964201,0.039436,0.262077,15352.0,784.0,4360.0,43.0,-65.0,25.0
2875.0,2750.0,2803.0,3153.0,3043.0,0.793945,0.035217,-0.60675,0.014038,0.0,-3.0,2.0,7620.0,374.0,2119.0,-280.0,55.0,-20.0,-58.0,62.0,-273.0,0.964442,0.038886,0.26116,15466.0,1070.0,4432.0,12.0,-48.0,47.0
2871.0,2757.0,2827.0,3147.0,3035.0,0.793884,0.035156,-0.606873,0.014099,-1.0,-1.0,1.0,7673.0,391.0,2153.0,-228.0,73.0,15.0,-79.0,76.0,-213.0,0.964565,0.038707,0.260921,15718.0,772.0,4402.0,-13.0,-21.0,26.0
2883.0,2759.0,2822.0,3142.0,3035.0,0.794067,0.035034,-0.606628,0.014221,0.0,1.0,0.0,7655.0,364.0,2091.0,-245.0,49.0,-51.0,-18.0,57.0,-247.0,0.964404,0.038385,0.26152,14888.0,764.0,3810.0,4.0,42.0,12.0
2858.0,2751.0,2830.0,3126.0,3047.0,0.794067,0.035095,-0.606628,0.014221,0.0,0.0,0.0,7554.0,343.0,2025.0,-346.0,27.0,-117.0,19.0,42.0,-363.0,0.964406,0.038482,0.261516,14524.0,496.0,3736.0,6.0,13.0,6.0
2875.0,2751.0,2823.0,3159.0,3035.0,0.79364,0.035278,-0.607239,0.014587,3.0,-6.0,0.0,7353.0,242.0,1958.0,-551.0,-71.0,-172.0,25.0,-47.0,-579.0,0.964887,0.038281,0.260094,14220.0,130.0,3938.0,69.0,-124.0,13.0
2871.0,2767.0,2833.0,3141.0,3035.0,0.792969,0.035706,-0.607971,0.015076,6.0,-10.0,0.0,7307.0,199.0,1983.0,-600.0,-114.0,-131.0,-22.0,-92.0,-617.0,0.965281,0.038296,0.258123,14484.0,270.0,4226.0,140.0,-210.0,14.0
2871.0,2763.0,2827.0,3147.0,3027.0,0.791443,0.037048,-0.609863,0.016357,6.0,-12.0,2.0,7538.0,386.0,2270.0,-380.0,69.0,194.0,-289.0,60.0,-315.0,0.966556,0.038692,0.253344,16218.0,1628.0,5574.0,156.0,-264.0,57.0
2871.0,2757.0,2835.0,3135.0,3035.0,0.790894,0.037292,-0.610596,0.016846,2.0,-9.0,4.0,7726.0,500.0,2375.0,-196.0,185.0,314.0,-365.0,163.0,-103.0,0.967089,0.038417,0.251579,16568.0,1564.0,5250.0,68.0,-204.0,105.0
2878.0,2751.0,2819.0,3153.0,3023.0,0.790405,0.036804,-0.611206,0.0177,-1.0,-2.0,4.0,7922.0,486.0,2353.0,-3.0,186.0,303.0,-306.0,161.0,79.0,0.967504,0.036544,0.250126,16020.0,646.0,4352.0,-1.0,-25.0,106.0
2883.0,2763.0,2827.0,3152.0,3035.0,0.790527,0.036621,-0.611084,0.018127,1.0,1.0,3.0,7825.0,421.0,2202.0,-100.0,128.0,149.0,-178.0,117.0,-54.0,0.967485,0.035745,0.250497,14782.0,484.0,3344.0,23.0,43.0,82.0
2865.0,2751.0,2831.0,3139.0,3035.0,0.790527,0.03656,-0.611084,0.018494,1.0,0.0,2.0,7657.0,385.0,2031.0,-268.0,96.0,-21.0,-54.0,101.0,-261.0,0.967509,0.035201,0.250515,14350.0,602.0,3074.0,45.0,15.0,53.0
2874.0,2749.0,2821.0,3139.0,3035.0,0.790039,0.036743,-0.611633,0.019043,1.0,-3.0,1.0,7488.0,279.0,1749.0,-440.0,-5.0,-291.0,170.0,25.0,-498.0,0.967828,0.034762,0.249079,14452.0,8.0,2636.0,39.0,-49.0,25.0
2870.0,2759.0,2831.0,3149.0,3037.0,0.789612,0.036865,-0.612183,0.019348,2.0,-5.0,0.0,7382.0,185.0,1619.0,-549.0,-97.0,-410.0,266.0,-55.0,-636.0,0.9682,0.034529,0.247735,14214.0,-150.0,2606.0,66.0,-106.0,20.0
2867.0,2762.0,2833.0,3151.0,3035.0,0.78833,0.037476,-0.61377,0.020142,4.0,-8.0,0.0,7514.0,211.0,1679.0,-425.0,-70.0,-317.0,207.0,-37.0,-491.0,0.969216,0.034362,0.243753,15854.0,812.0,3866.0,95.0,-162.0,15.0
2879.0,2751.0,2813.0,3139.0,3031.0,0.787903,0.037781,-0.614258,0.020386,2.0,-5.0,0.0,7679.0,269.0,1788.0,-263.0,-13.0,-198.0,128.0,7.0,-303.0,0.969491,0.034491,0.242466,16376.0,872.0,4318.0,53.0,-99.0,11.0
2879.0,2753.0,2831.0,3133.0,3023.0,0.788025,0.037903,-0.614136,0.020569,-1.0,3.0,0.0,7895.0,319.0,1932.0,-46.0,36.0,-57.0,40.0,41.0,-57.0,0.969468,0.034473,0.242807,15916.0,720.0,3998.0,-5.0,72.0,15.0
2875.0,2765.0,2823.0,3151.0,3027.0,0.78833,0.037781,-0.613708,0.020508,-2.0,4.0,0.0,7802.0,280.0,1898.0,-137.0,-1.0,-99.0,62.0,9.0,-156.0,0.969159,0.034396,0.243819,14876.0,268.0,3544.0,-26.0,103.0,1.0
2879.0,2755.0,2821.0,3139.0,3031.0,0.788574,0.03772,-0.613464,0.020447,-1.0,2.0,-2.0,7650.0,202.0,1839.0,-288.0,-79.0,-163.0,92.0,-60.0,-321.0,0.969067,0.034403,0.244506,14414.0,-62.0,3326.0,-9.0,63.0,-28.0
2871.0,2751.0,2827.0,3135.0,3026.0,0.788513,0.037964,-0.613464,0.020325,0.0,-1.0,-2.0,7552.0,171.0,1828.0,-385.0,-115.0,-174.0,82.0,-94.0,-419.0,0.968993,0.034933,0.244386,14724.0,286.0,3594.0,17.0,-10.0,-44.0
2873.0,2753.0,2830.0,3143.0,3039.0,0.78833,0.038208,-0.613708,0.020142,0.0,-3.0,-4.0,7468.0,141.0,1805.0,-471.0,-149.0,-191.0,80.0,-125.0,-508.0,0.969149,0.035519,0.243772,14576.0,102.0,3614.0,19.0,-63.0,-71.0
2879.0,2759.0,2821.0,3153.0,3038.0,0.787781,0.038879,-0.61438,0.019958,2.0,-3.0,-2.0,7679.0,153.0,1937.0,-263.0,-147.0,-45.0,-9.0,-138.0,-271.0,0.969545,0.036733,0.242023,16148.0,452.0,4170.0,46.0,-68.0,-40.0
2877.0,2756.0,2827.0,3143.0,3031.0,0.78772,0.039062,-0.614441,0.020081,1.0,-2.0,0.0,7763.0,205.0,1994.0,-179.0,-96.0,12.0,-47.0,-93.0,-174.0,0.969583,0.036864,0.241842,15878.0,770.0,4330.0,43.0,-23.0,6.0
2875.0,2753.0,2819.0,3135.0,3031.0,0.787842,0.039429,-0.614258,0.020264,1.0,0.0,-1.0,7762.0,317.0,2024.0,-179.0,11.0,39.0,-82.0,10.0,-163.0,0.969474,0.037233,0.242238,15610.0,906.0,4196.0,32.0,21.0,-9.0
2878.0,2736.0,2823.0,3147.0,3029.0,0.788025,0.039673,-0.614014,0.020264,1.0,2.0,-1.0,7745.0,357.0,2007.0,-195.0,48.0,17.0,-68.0,49.0,-183.0,0.969324,0.037642,0.242807,15258.0,920.0,3804.0,23.0,47.0,-18.0
2875.0,2755.0,2832.0,3151.0,3035.0,0.788025,0.040222,-0.613953,0.020142,2.0,-2.0,-3.0,7469.0,297.0,1845.0,-471.0,-19.0,-144.0,25.0,2.0,-492.0,0.96924,0.03866,0.242833,14312.0,332.0,3326.0,56.0,-39.0,-53.0
2871.0,2751.0,2827.0,3147.0,3030.0,0.78772,0.04071,-0.61438,0.020203,3.0,-5.0,-2.0,7468.0,315.0,1847.0,-474.0,-7.0,-133.0,13.0,13.0,-492.0,0.969563,0.039313,0.24179,15084.0,932.0,3806.0,90.0,-103.0,-43.0
2877.0,2754.0,2823.0,3141.0,3027.0,0.787048,0.041504,-0.615173,0.020081,0.0,-4.0,-2.0,7590.0,434.0,1906.0,-356.0,101.0,-57.0,-39.0,112.0,-354.0,0.970009,0.040625,0.239688,15502.0,876.0,3858.0,16.0,-88.0,-25.0
2871.0,2769.0,2830.0,3151.0,3031.0,0.786804,0.041687,-0.615417,0.02002,1.0,-3.0,-1.0,7625.0,418.0,1900.0,-322.0,82.0,-57.0,-29.0,93.0,-322.0,0.970095,0.040958,0.238985,15464.0,742.0,3732.0,25.0,-66.0,-19.0
2877.0,2763.0,2832.0,3155.0,3039.0,0.786682,0.042114,-0.615601,0.020081,1.0,1.0,0.0,7800.0,465.0,1930.0,-148.0,124.0,-24.0,-22.0,128.0,-144.0,0.970255,0.041538,0.238534,16092.0,1214.0,3868.0,29.0,29.0,8.0
2874.0,2755.0,2815.0,3139.0,3026.0,0.786865,0.042175,-0.615295,0.020142,-1.0,3.0,0.0,7767.0,460.0,1857.0,-179.0,119.0,-102.0,45.0,131.0,-193.0,0.970008,0.041586,0.239195,15130.0,734.0,3152.0,0.0,89.0,11.0
2874.0,2750.0,2829.0,3143.0,3035.0,0.786926,0.042358,-0.615234,0.020325,2.0,-2.0,-1.0,7488.0,355.0,1689.0,-458.0,13.0,-271.0,149.0,47.0,-508.0,0.97001,0.041657,0.239359,14638.0,668.0,3346.0,50.0,-30.0,-4.0
2877.0,2777.0,2830.0,3152.0,3027.0,0.786743,0.042542,-0.615479,0.020508,1.0,-3.0,0.0,7522.0,389.0,1727.0,-425.0,47.0,-228.0,113.0,76.0,-464.0,0.970192,0.041694,0.238762,15354.0,1006.0,3706.0,37.0,-61.0,13.0
2881.0,2755.0,2827.0,3149.0,3071.0,0.786316,0.04248,-0.616028,0.020691,0.0,-3.0,1.0,7606.0,344.0,1788.0,-344.0,5.0,-156.0,67.0,26.0,-370.0,0.970543,0.041314,0.237426,15574.0,412.0,3820.0,16.0,-60.0,24.0
2875.0,2762.0,2831.0,3141.0,3019.0,0.786133,0.042542,-0.616211,0.020996,2.0,-2.0,1.0,7672.0,334.0,1846.0,-279.0,-1.0,-94.0,24.0,13.0,-293.0,0.970634,0.04101,0.23692,15820.0,690.0,4102.0,47.0,-40.0,23.0
2869.0,2755.0,2826.0,3143.0,3031.0,0.786377,0.042786,-0.615845,0.02124,-1.0,3.0,0.0,7824.0,444.0,1958.0,-125.0,107.0,10.0,-48.0,107.0,-114.0,0.97039,0.04113,0.237744,15764.0,1052.0,3932.0,-2.0,83.0,17.0
2877.0,2758.0,2829.0,3152.0,3039.0,0.786743,0.042664,-0.615417,0.021179,-2.0,4.0,0.0,7746.0,391.0,1898.0,-201.0,54.0,-58.0,2.0,63.0,-206.0,0.970158,0.041062,0.238854,14884.0,336.0,3408.0,-27.0,110.0,5.0
2877.0,2759.0,2832.0,3151.0,3031.0,0.786987,0.042603,-0.615112,0.021179,0.0,0.0,-1.0,7518.0,290.0,1795.0,-428.0,-45.0,-167.0,61.0,-21.0,-457.0,0.969976,0.041,0.239619,14670.0,414.0,3484.0,16.0,5.0,-15.0
2879.0,2751.0,2819.0,3139.0,3030.0,0.786926,0.042725,-0.615234,0.02124,1.0,-2.0,-1.0,7484.0,270.0,1795.0,-463.0,-66.0,-165.0,53.0,-41.0,-491.0,0.970103,0.041107,0.239365,14776.0,412.0,3582.0,29.0,-34.0,-11.0
2875.0,2755.0,2827.0,3142.0,3031.0,0.786377,0.043152,-0.615845,0.021484,2.0,-5.0,-1.0,7565.0,321.0,1885.0,-384.0,-18.0,-62.0,-30.0,-4.0,-388.0,0.970426,0.041405,0.237723,15716.0,1070.0,4196.0,47.0,-94.0,-6.0
2875.0,2755.0,2827.0,3151.0,3035.0,0.786194,0.043335,-0.616089,0.021423,0.0,-3.0,0.0,7718.0,399.0,1974.0,-233.0,57.0,31.0,-90.0,58.0,-216.0,0.970587,0.041742,0.237116,16420.0,1210.0,4448.0,6.0,-62.0,4.0
2851.0,2751.0,2823.0,3141.0,3035.0,0.786255,0.043274,-0.616028,0.021301,-2.0,0.0,0.0,7835.0,422.0,1995.0,-115.0,79.0,51.0,-83.0,76.0,-96.0,0.970553,0.041804,0.237288,16278.0,878.0,4030.0,-38.0,19.0,9.0
2867.0,2758.0,2832.0,3135.0,3026.0,0.786926,0.042908,-0.615173,0.020996,-2.0,6.0,-1.0,7841.0,377.0,1913.0,-105.0,35.0,-48.0,17.0,41.0,-111.0,0.969994,0.041698,0.239415,15242.0,644.0,3428.0,-45.0,149.0,-20.0
2875.0,2761.0,2832.0,3153.0,3031.0,0.787354,0.042786,-0.614624,0.020752,-3.0,6.0,-2.0,7667.0,318.0,1794.0,-276.0,-24.0,-178.0,106.0,-1.0,-311.0,0.969629,0.041866,0.240763,14174.0,178.0,2902.0,-47.0,141.0,-40.0
2871.0,2758.0,2831.0,3155.0,3043.0,0.787476,0.042908,-0.614502,0.02063,1.0,-2.0,-2.0,7424.0,199.0,1714.0,-518.0,-146.0,-261.0,138.0,-110.0,-571.0,0.969581,0.042223,0.24109,14536.0,460.0,3476.0,40.0,-25.0,-32.0
2879.0,2759.0,2823.0,3151.0,3024.0,0.787231,0.043213,-0.614807,0.02063,1.0,-4.0,-2.0,7431.0,268.0,1778.0,-513.0,-81.0,-190.0,65.0,-52.0,-546.0,0.969774,0.04267,0.240304,15014.0,994.0,4038.0,43.0,-84.0,-26.0
2879.0,2739.0,2827.0,3139.0,3039.0,0.786621,0.04364,-0.61554,0.020508,0.0,-5.0,-1.0,7618.0,366.0,1935.0,-329.0,10.0,-17.0,-63.0,18.0,-322.0,0.970183,0.04341,0.2384,16176.0,1064.0,4458.0,19.0,-111.0,-14.0
2877.0,2758.0,2832.0,3151.0,3043.0,0.786499,0.043762,-0.615723,0.020447,-1.0,-2.0,-1.0,7808.0,449.0,2041.0,-140.0,91.0,91.0,-129.0,85.0,-110.0,0.97032,0.043659,0.237969,16714.0,1440.0,4640.0,-3.0,-35.0,-2.0
2875.0,2763.0,2829.0,3155.0,3041.0,0.787109,0.043579,-0.614929,0.019958,-3.0,5.0,-1.0,7784.0,445.0,1979.0,-160.0,84.0,13.0,-58.0,85.0,-148.0,0.969773,0.044057,0.239902,14726.0,458.0,3332.0,-48.0,120.0,-18.0
2871.0,2755.0,2823.0,3139.0,3029.0,0.787354,0.043518,-0.614624,0.019897,-1.0,3.0,-2.0,7619.0,393.0,1880.0,-323.0,31.0,-91.0,6.0,46.0,-333.0,0.969585,0.044069,0.240665,14260.0,574.0,3240.0,-10.0,77.0,-24.0
2871.0,2758.0,2833.0,3135.0,3035.0,0.787231,0.043701,-0.614746,0.019653,-1.0,-3.0,-1.0,7436.0,433.0,1804.0,-507.0,67.0,-164.0,29.0,93.0,-528.0,0.969613,0.044642,0.240297,14788.0,936.0,3618.0,-14.0,-56.0,-8.0
2890.0,2765.0,2819.0,3159.0,3026.0,0.786987,0.04364,-0.615112,0.019531,-1.0,-4.0,0.0,7472.0,430.0,1835.0,-473.0,64.0,-126.0,1.0,86.0,-486.0,0.969876,0.044661,0.239463,15196.0,826.0,3856.0,-20.0,-84.0,11.0
2869.0,2751.0,2835.0,3165.0,3035.0,0.78656,0.043762,-0.615662,0.019653,1.0,-3.0,0.0,7587.0,407.0,1912.0,-361.0,41.0,-38.0,-53.0,52.0,-357.0,0.97023,0.044644,0.238109,15350.0,776.0,3940.0,34.0,-56.0,0.0
2877.0,2763.0,2831.0,3139.0,3024.0,0.786377,0.044006,-0.615845,0.019714,2.0,-3.0,-1.0,7628.0,440.0,1951.0,-320.0,71.0,4.0,-86.0,77.0,-306.0,0.970307,0.044929,0.237576,15622.0,1160.0,4248.0,50.0,-57.0,-2.0
2879.0,2768.0,2813.0,3143.0,3025.0,0.786316,0.044189,-0.615906,0.019775,1.0,-2.0,0.0,7735.0,511.0,2031.0,-214.0,141.0,86.0,-146.0,137.0,-180.0,0.970341,0.045134,0.237391,16144.0,1472.0,4502.0,25.0,-26.0,5.0
2885.0,2767.0,2839.0,3151.0,3038.0,0.786621,0.044067,-0.61554,0.019653,-2.0,1.0,0.0,7715.0,447.0,1949.0,-232.0,77.0,-3.0,-59.0,82.0,-222.0,0.970125,0.045134,0.238328,14968.0,380.0,3342.0,-27.0,41.0,10.0
2877.0,2761.0,2832.0,3143.0,3042.0,0.786621,0.044006,-0.61554,0.019714,0.0,0.0,0.0,7612.0,379.0,1846.0,-335.0,10.0,-106.0,20.0,27.0,-349.0,0.970128,0.044963,0.238336,14564.0,420.0,3022.0,6.0,13.0,8.0
2877.0,2749.0,2826.0,3147.0,3035.0,0.786255,0.044189,-0.615967,0.019958,1.0,-2.0,0.0,7568.0,321.0,1734.0,-381.0,-46.0,-209.0,114.0,-17.0,-421.0,0.970378,0.044901,0.237227,15218.0,598.0,3326.0,38.0,-41.0,2.0
2879.0,2759.0,2826.0,3142.0,3035.0,0.786072,0.04425,-0.616211,0.020081,1.0,-2.0,0.0,7580.0,327.0,1724.0,-370.0,-40.0,-214.0,121.0,-11.0,-411.0,0.970549,0.04482,0.236638,15194.0,702.0,3402.0,25.0,-35.0,5.0
2874.0,2758.0,2831.0,3151.0,3035.0,0.785889,0.044312,-0.616455,0.020081,-1.0,-1.0,0.0,7683.0,373.0,1783.0,-269.0,5.0,-150.0,80.0,25.0,-296.0,0.97071,0.04489,0.236044,15836.0,976.0,3830.0,-11.0,0.0,3.0
2879.0,2751.0,2829.0,3141.0,3047.0,0.786011,0.04425,-0.616272,0.019958,-2.0,2.0,-1.0,7721.0,397.0,1820.0,-229.0,28.0,-117.0,55.0,44.0,-248.0,0.970559,0.044963,0.236462,15584.0,860.0,3814.0,-35.0,53.0,-3.0
2867.0,2765.0,2814.0,3135.0,3023.0,0.786499,0.044006,-0.615662,0.019714,-1.0,3.0,-1.0,7671.0,364.0,1852.0,-276.0,-4.0,-97.0,27.0,11.0,-291.0,0.97017,0.044947,0.237994,15056.0,676.0,3740.0,-21.0,72.0,-8.0
2869.0,2765.0,2810.0,3143.0,3035.0,0.786743,0.044006,-0.615417,0.019653,-1.0,2.0,-1.0,7607.0,367.0,1870.0,-339.0,-2.0,-85.0,0.0,13.0,-349.0,0.970081,0.045053,0.238676,14826.0,790.0,3828.0,-1.0,46.0,-12.0
2873.0,2769.0,2846.0,3179.0,3017.0,0.786743,0.04425,-0.615356,0.019653,0.0,-2.0,-1.0,7565.0,388.0,1934.0,-381.0,15.0,-21.0,-73.0,25.0,-373.0,0.969994,0.04544,0.238729,15304.0,822.0,4204.0,16.0,-39.0,-5.0
2875.0,2761.0,2831.0,3142.0,3026.0,0.786682,0.044373,-0.615479,0.019714,1.0,-3.0,-1.0,7591.0,390.0,1951.0,-356.0,16.0,-2.0,-85.0,24.0,-345.0,0.970121,0.045547,0.238475,15338.0,780.0,3956.0,28.0,-46.0,-2.0
2867.0,2747.0,2843.0,3133.0,3051.0,0.786316,0.0448,-0.615845,0.019958,2.0,-3.0,0.0,7668.0,410.0,1973.0,-280.0,34.0,28.0,-97.0,37.0,-263.0,0.970285,0.045871,0.237419,15784.0,1160.0,4122.0,55.0,-51.0,3.0
2871.0,2769.0,2829.0,3147.0,3023.0,0.786316,0.044983,-0.615845,0.02002,0.0,-1.0,0.0,7727.0,465.0,1976.0,-221.0,87.0,31.0,-90.0,88.0,-203.0,0.970298,0.046084,0.237405,15708.0,1218.0,3918.0,20.0,-1.0,9.0
2883.0,2751.0,2830.0,3147.0,3022.0,0.786499,0.044983,-0.615662,0.019897,-1.0,1.0,-1.0,7665.0,417.0,1857.0,-283.0,38.0,-91.0,16.0,53.0,-294.0,0.970225,0.046258,0.237914,15134.0,558.0,3280.0,-12.0,41.0,-7.0
2877.0,2768.0,2807.0,3142.0,3011.0,0.78656,0.044983,-0.61554,0.019897,0.0,1.0,-1.0,7618.0,396.0,1811.0,-329.0,16.0,-140.0,54.0,37.0,-351.0,0.970108,0.046268,0.23816,14956.0,692.0,3408.0,2.0,36.0,-8.0
2897.0,2751.0,2819.0,3121.0,3031.0,0.786621,0.045105,-0.615479,0.019897,0.0,0.0,-1.0,7539.0,380.0,1770.0,-407.0,0.0,-182.0,77.0,27.0,-438.0,0.970092,0.046468,0.23832,14734.0,678.0,3486.0,13.0,6.0,-7.0
2887.0,2765.0,2815.0,3117.0,3029.0,0.786499,0.045166,-0.615601,0.019897,0.0,-2.0,-1.0,7519.0,374.0,1788.0,-428.0,-7.0,-161.0,52.0,18.0,-453.0,0.970136,0.046548,0.237973,15060.0,704.0,3766.0,12.0,-42.0,-3.0
2855.0,2753.0,2842.0,3158.0,3011.0,0.786194,0.045349,-0.615967,0.02002,0.0,-2.0,0.0,7650.0,409.0,1884.0,-299.0,26.0,-57.0,-19.0,38.0,-302.0,0.970354,0.046644,0.23703,15620.0,904.0,3990.0,17.0,-35.0,13.0
2864.0,2759.0,2830.0,3151.0,3035.0,0.786133,0.045349,-0.616028,0.020142,0.0,-1.0,0.0,7670.0,420.0,1909.0,-279.0,39.0,-31.0,-40.0,48.0,-276.0,0.970386,0.046485,0.236864,15408.0,878.0,3958.0,10.0,-20.0,17.0
2883.0,2751.0,2839.0,3139.0,3027.0,0.786194,0.045288,-0.615967,0.020203,-1.0,0.0,0.0,7701.0,451.0,1940.0,-248.0,71.0,-1.0,-64.0,76.0,-237.0,0.970369,0.046322,0.237043,15398.0,882.0,3836.0,-17.0,16.0,21.0
2879.0,2755.0,2835.0,3135.0,3019.0,0.786255,0.045166,-0.615906,0.020203,-1.0,1.0,0.0,7685.0,418.0,1918.0,-264.0,40.0,-25.0,-42.0,48.0,-260.0,0.970343,0.046138,0.237225,15304.0,586.0,3724.0,-10.0,31.0,15.0
2865.0,2761.0,2807.0,3159.0,3007.0,0.786499,0.045166,-0.61554,0.020325,0.0,1.0,0.0,7595.0,399.0,1829.0,-351.0,21.0,-121.0,30.0,40.0,-368.0,0.970078,0.046025,0.238065,14580.0,690.0,3242.0,7.0,44.0,4.0
2873.0,2759.0,2823.0,3143.0,3056.0,0.786499,0.045227,-0.615601,0.020386,0.0,-1.0,-1.0,7530.0,362.0,1784.0,-417.0,-15.0,-165.0,60.0,10.0,-444.0,0.970182,0.046043,0.237987,14856.0,534.0,3448.0,14.0,-14.0,-1.0
2882.0,2751.0,2801.0,3159.0,3047.0,0.786316,0.04541,-0.615845,0.020569,0.0,-1.0,0.0,7599.0,384.0,1837.0,-350.0,6.0,-107.0,18.0,24.0,-364.0,0.970365,0.046079,0.237389,15230.0,914.0,3762.0,21.0,-15.0,6.0
2871.0,2757.0,2833.0,3119.0,3053.0,0.786255,0.045471,-0.615906,0.02063,0.0,-1.0,0.0,7607.0,391.0,1875.0,-342.0,13.0,-68.0,-17.0,27.0,-347.0,0.970394,0.046092,0.237215,15284.0,830.0,4008.0,15.0,-21.0,4.0
2869.0,2765.0,2823.0,3159.0,3023.0,0.786255,0.04541,-0.615845,0.02063,-1.0,0.0,0.0,7727.0,452.0,1974.0,-221.0,75.0,30.0,-88.0,76.0,-203.0,0.970295,0.045998,0.237296,15848.0,970.0,4160.0,-22.0,14.0,20.0
2895.0,2768.0,2800.0,3139.0,3039.0,0.786499,0.045227,-0.615601,0.02063,-2.0,2.0,0.0,7762.0,426.0,1978.0,-185.0,51.0,28.0,-76.0,52.0,-170.0,0.970205,0.045743,0.237997,15644.0,646.0,3940.0,-32.0,58.0,19.0
2881.0,2770.0,2825.0,3163.0,3039.0,0.786743,0.045105,-0.615234,0.020752,1.0,-1.0,-1.0,7515.0,321.0,1848.0,-430.0,-51.0,-108.0,4.0,-30.0,-445.0,0.969935,0.045437,0.238848,14288.0,396.0,3428.0,23.0,-1.0,-4.0
2895.0,2753.0,2799.0,3135.0,3045.0,0.78656,0.045227,-0.615479,0.020874,1.0,-4.0,-1.0,7470.0,314.0,1847.0,-477.0,-58.0,-104.0,-9.0,-36.0,-490.0,0.97011,0.045453,0.238253,14782.0,656.0,3774.0,40.0,-72.0,-2.0
2878.0,2759.0,2802.0,3167.0,3003.0,0.785767,0.045593,-0.616455,0.021118,2.0,-7.0,-1.0,7478.0,288.0,1893.0,-474.0,-85.0,-38.0,-68.0,-69.0,-472.0,0.970705,0.045615,0.235779,15140.0,424.0,4096.0,55.0,-154.0,-4.0
2895.0,2767.0,2791.0,3135.0,3031.0,0.785217,0.045898,-0.617126,0.021301,3.0,-8.0,-1.0,7557.0,329.0,1943.0,-398.0,-46.0,25.0,-114.0,-38.0,-382.0,0.971112,0.045789,0.234068,15820.0,950.0,4400.0,72.0,-176.0,-5.0
2883.0,2755.0,2797.0,3165.0,3043.0,0.784729,0.046265,-0.617737,0.021423,0.0,-2.0,0.0,7863.0,432.0,2056.0,-95.0,54.0,151.0,-173.0,40.0,-54.0,0.971494,0.046142,0.232519,16378.0,948.0,4178.0,1.0,-36.0,9.0
2861.0,2751.0,2847.0,3155.0,3057.0,0.78479,0.046265,-0.617615,0.021362,-1.0,1.0,-1.0,7870.0,409.0,2006.0,-87.0,30.0,99.0,-119.0,22.0,-60.0,0.971372,0.046229,0.232763,15492.0,582.0,3540.0,-14.0,45.0,-4.0
2865.0,2733.0,2831.0,3151.0,3031.0,0.784912,0.046387,-0.617432,0.021301,1.0,0.0,-2.0,7689.0,312.0,1793.0,-267.0,-69.0,-117.0,56.0,-50.0,-289.0,0.971235,0.046515,0.233167,15244.0,530.0,3102.0,31.0,18.0,-34.0
2887.0,2771.0,2833.0,3127.0,3037.0,0.784912,0.04657,-0.617493,0.021301,0.0,0.0,-2.0,7616.0,337.0,1701.0,-341.0,-46.0,-208.0,124.0,-16.0,-381.0,0.971339,0.0468,0.233075,14694.0,808.0,2860.0,19.0,17.0,-30.0
2875.0,2763.0,2838.0,3143.0,3035.0,0.784546,0.046753,-0.61792,0.020996,0.0,-3.0,-2.0,7530.0,277.0,1632.0,-428.0,-111.0,-268.0,168.0,-73.0,-483.0,0.971536,0.047412,0.231942,15208.0,418.0,3342.0,11.0,-62.0,-36.0
2875.0,2754.0,2831.0,3150.0,3031.0,0.784302,0.046936,-0.618225,0.020935,1.0,-3.0,-2.0,7596.0,317.0,1686.0,-364.0,-74.0,-207.0,121.0,-43.0,-405.0,0.971715,0.047739,0.231162,15578.0,974.0,3756.0,25.0,-54.0,-31.0
2869.0,2758.0,2832.0,3133.0,3035.0,0.784119,0.047363,-0.618469,0.020874,1.0,-2.0,-2.0,7719.0,366.0,1797.0,-242.0,-30.0,-91.0,34.0,-14.0,-257.0,0.971884,0.048457,0.23053,16122.0,1040.0,4206.0,25.0,-25.0,-24.0
2887.0,2768.0,2826.0,3131.0,3047.0,0.78418,0.047546,-0.618347,0.020752,0.0,1.0,-1.0,7794.0,437.0,1859.0,-166.0,36.0,-31.0,-12.0,43.0,-166.0,0.971764,0.048906,0.230755,15978.0,1322.0,4058.0,7.0,33.0,-22.0
2879.0,2769.0,2835.0,3135.0,3039.0,0.784851,0.047607,-0.617554,0.020264,-2.0,4.0,-2.0,7744.0,465.0,1885.0,-212.0,57.0,-21.0,-34.0,64.0,-207.0,0.971305,0.049702,0.232763,14988.0,792.0,3572.0,-38.0,95.0,-32.0
2867.0,2767.0,2818.0,3153.0,3031.0,0.785095,0.047607,-0.617249,0.020081,-1.0,2.0,-2.0,7653.0,433.0,1849.0,-302.0,23.0,-63.0,-12.0,37.0,-306.0,0.97111,0.049963,0.233516,14762.0,678.0,3522.0,-11.0,66.0,-34.0
2879.0,2751.0,2815.0,3159.0,3015.0,0.785217,0.048035,-0.617004,0.019897,1.0,-1.0,-2.0,7544.0,441.0,1818.0,-409.0,24.0,-98.0,-4.0,45.0,-418.0,0.970877,0.050882,0.23396,14934.0,1086.0,3664.0,34.0,-6.0,-32.0
2879.0,2768.0,2818.0,3151.0,3039.0,0.785095,0.048279,-0.617126,0.019836,0.0,-2.0,-1.0,7531.0,480.0,1818.0,-422.0,59.0,-95.0,-13.0,80.0,-428.0,0.970921,0.051324,0.233592,14984.0,1180.0,3658.0,15.0,-34.0,-17.0
2871.0,2750.0,2830.0,3147.0,3023.0,0.784851,0.048401,-0.617432,0.019714,-1.0,-2.0,0.0,7629.0,505.0,1859.0,-326.0,82.0,-48.0,-38.0,95.0,-323.0,0.971092,0.05163,0.232815,15600.0,984.0,3760.0,-3.0,-27.0,3.0
2877.0,2755.0,2815.0,3143.0,3023.0,0.784851,0.048462,-0.617432,0.019714,0.0,0.0,0.0,7675.0,500.0,1868.0,-280.0,76.0,-39.0,-35.0,87.0,-277.0,0.971095,0.051726,0.23281,15632.0,984.0,3792.0,5.0,2.0,5.0
2864.0,2751.0,2815.0,3149.0,3015.0,0.785034,0.048645,-0.617188,0.019897,1.0,1.0,0.0,7641.0,499.0,1849.0,-313.0,74.0,-62.0,-21.0,88.0,-314.0,0.970962,0.051815,0.233388,15216.0,1208.0,3728.0,32.0,26.0,1.0
2875.0,2761.0,2822.0,3142.0,3047.0,0.785095,0.048767,-0.617065,0.019897,-1.0,0.0,0.0,7603.0,525.0,1845.0,-350.0,98.0,-68.0,-26.0,114.0,-350.0,0.970851,0.052018,0.233622,14910.0,1152.0,3586.0,-1.0,21.0,8.0
2879.0,2763.0,2845.0,3131.0,3045.0,0.785034,0.048645,-0.617249,0.019897,0.0,-2.0,0.0,7561.0,426.0,1825.0,-393.0,1.0,-86.0,-10.0,20.0,-401.0,0.971058,0.051813,0.233312,15016.0,568.0,3586.0,11.0,-33.0,5.0
2879.0,2755.0,2843.0,3157.0,3025.0,0.784851,0.048767,-0.617432,0.02002,1.0,-3.0,-1.0,7579.0,416.0,1856.0,-376.0,-8.0,-51.0,-38.0,8.0,-377.0,0.971136,0.051828,0.232792,15376.0,880.0,3942.0,40.0,-56.0,-4.0
2879.0,2763.0,2832.0,3135.0,3037.0,0.784607,0.049011,-0.617676,0.020081,0.0,-2.0,0.0,7679.0,460.0,1909.0,-277.0,33.0,7.0,-75.0,40.0,-265.0,0.971234,0.052103,0.232086,15574.0,856.0,3826.0,3.0,-33.0,3.0
2881.0,2760.0,2831.0,3157.0,3030.0,0.784546,0.049011,-0.617737,0.020081,0.0,-1.0,0.0,7753.0,450.0,1930.0,-203.0,23.0,30.0,-79.0,25.0,-189.0,0.971254,0.052094,0.231915,16106.0,888.0,4096.0,4.0,-11.0,5.0
2867.0,2749.0,2807.0,3143.0,3030.0,0.784729,0.049011,-0.617554,0.020081,-1.0,2.0,-1.0,7786.0,455.0,1913.0,-170.0,28.0,8.0,-50.0,31.0,-161.0,0.971193,0.052119,0.232428,15572.0,878.0,3594.0,-15.0,52.0,-1.0
2869.0,2753.0,2815.0,3135.0,3039.0,0.785156,0.04895,-0.617065,0.019958,0.0,3.0,-2.0,7673.0,374.0,1806.0,-280.0,-53.0,-108.0,42.0,-33.0,-299.0,0.97094,0.052236,0.233703,14892.0,760.0,3384.0,13.0,76.0,-26.0
2877.0,2764.0,2795.0,3157.0,3015.0,0.785278,0.049133,-0.616821,0.019836,0.0,1.0,-2.0,7584.0,398.0,1773.0,-367.0,-33.0,-145.0,55.0,-7.0,-391.0,0.970702,0.052696,0.234173,14692.0,948.0,3404.0,1.0,43.0,-39.0
2862.0,2755.0,2841.0,3159.0,3031.0,0.785217,0.049133,-0.616943,0.019409,-2.0,-2.0,-2.0,7534.0,380.0,1764.0,-418.0,-55.0,-152.0,52.0,-26.0,-444.0,0.970776,0.053212,0.23391,15034.0,610.0,3500.0,-26.0,-36.0,-25.0
2871.0,2752.0,2815.0,3135.0,3025.0,0.785034,0.049133,-0.617188,0.019287,-1.0,-3.0,-2.0,7582.0,367.0,1800.0,-371.0,-69.0,-111.0,25.0,-46.0,-389.0,0.970922,0.053335,0.233316,15524.0,682.0,3814.0,-1.0,-56.0,-23.0
2855.0,2739.0,2831.0,3153.0,3039.0,0.784912,0.049377,-0.617371,0.019226,0.0,0.0,-1.0,7738.0,452.0,1874.0,-216.0,11.0,-33.0,-20.0,20.0,-216.0,0.971062,0.053775,0.232872,15890.0,1218.0,3920.0,7.0,1.0,-13.0
2867.0,2753.0,2830.0,3149.0,3023.0,0.785034,0.0495,-0.617188,0.019104,-1.0,2.0,-1.0,7782.0,485.0,1877.0,-171.0,41.0,-33.0,-12.0,49.0,-171.0,0.970918,0.054136,0.233273,15792.0,1174.0,3758.0,-6.0,47.0,-10.0
2875.0,2751.0,2832.0,3152.0,3029.0,0.785583,0.049377,-0.616516,0.018738,-3.0,4.0,-1.0,7715.0,536.0,1817.0,-235.0,89.0,-107.0,39.0,106.0,-248.0,0.9705,0.054476,0.234962,15130.0,1208.0,3530.0,-49.0,95.0,-17.0
2875.0,2751.0,2811.0,3115.0,3051.0,0.785889,0.049255,-0.616089,0.018433,-3.0,4.0,-2.0,7595.0,482.0,1750.0,-352.0,33.0,-183.0,89.0,62.0,-382.0,0.97017,0.054706,0.235969,14260.0,472.0,2904.0,-51.0,100.0,-39.0
2864.0,2763.0,2815.0,3147.0,3055.0,0.785828,0.049377,-0.61615,0.01825,0.0,-3.0,-1.0,7427.0,438.0,1732.0,-520.0,-13.0,-199.0,68.0,23.0,-552.0,0.970177,0.055115,0.235779,14766.0,1136.0,3740.0,22.0,-50.0,-12.0
2886.0,2768.0,2815.0,3155.0,3039.0,0.785583,0.0495,-0.616455,0.01825,0.0,-4.0,0.0,7493.0,510.0,1817.0,-456.0,57.0,-108.0,-9.0,82.0,-464.0,0.970361,0.055272,0.235007,15518.0,1448.0,4210.0,2.0,-86.0,6.0
2875.0,2766.0,2819.0,3147.0,3047.0,0.785339,0.049377,-0.616821,0.018127,-1.0,-2.0,0.0,7718.0,534.0,1932.0,-233.0,81.0,13.0,-75.0,86.0,-218.0,0.970618,0.055193,0.23418,16168.0,1108.0,4116.0,-9.0,-23.0,17.0
2865.0,2751.0,2805.0,3151.0,3027.0,0.785461,0.049377,-0.616638,0.018188,-1.0,2.0,0.0,7798.0,547.0,1949.0,-152.0,95.0,27.0,-70.0,96.0,-135.0,0.970487,0.055137,0.2346,15964.0,1174.0,3894.0,-3.0,46.0,11.0
2859.0,2751.0,2815.0,3152.0,3062.0,0.786072,0.049255,-0.615906,0.018066,-2.0,4.0,0.0,7721.0,530.0,1872.0,-225.0,77.0,-65.0,1.0,90.0,-229.0,0.970072,0.055182,0.236469,15080.0,1114.0,3528.0,-28.0,99.0,2.0
2847.0,2768.0,2815.0,3155.0,3039.0,0.786377,0.049072,-0.61554,0.017944,-3.0,4.0,0.0,7646.0,514.0,1824.0,-299.0,62.0,-120.0,38.0,83.0,-315.0,0.969853,0.055088,0.237414,14714.0,902.0,3230.0,-56.0,94.0,2.0
2879.0,2770.0,2835.0,3139.0,3031.0,0.786499,0.048523,-0.615417,0.017639,-2.0,-1.0,-1.0,7501.0,359.0,1729.0,-443.0,-88.0,-219.0,112.0,-51.0,-486.0,0.969762,0.054616,0.237799,14914.0,242.0,3442.0,-28.0,-5.0,-6.0
2879.0,2751.0,2819.0,3135.0,3057.0,0.786377,0.048462,-0.61554,0.0177,0.0,-2.0,-1.0,7509.0,333.0,1750.0,-435.0,-112.0,-195.0,93.0,-78.0,-474.0,0.969808,0.054428,0.237465,15084.0,626.0,3680.0,13.0,-28.0,-4.0
2864.0,2763.0,2834.0,3131.0,3034.0,0.786194,0.048706,-0.615784,0.017761,0.0,-2.0,-1.0,7650.0,407.0,1912.0,-296.0,-41.0,-28.0,-40.0,-28.0,-295.0,0.969981,0.054711,0.236854,15886.0,1140.0,4394.0,15.0,-35.0,-12.0
2879.0,2735.0,2831.0,3143.0,3035.0,0.786255,0.048767,-0.615723,0.017639,-1.0,0.0,-1.0,7732.0,460.0,1988.0,-213.0,9.0,46.0,-96.0,11.0,-195.0,0.96995,0.054965,0.237015,15900.0,1192.0,4340.0,-7.0,8.0,-15.0
2879.0,2765.0,2830.0,3157.0,3031.0,0.786743,0.048767,-0.615112,0.017334,-1.0,3.0,-2.0,7768.0,432.0,2001.0,-174.0,-21.0,47.0,-85.0,-19.0,-158.0,0.969561,0.05541,0.238524,15402.0,624.0,3822.0,-19.0,86.0,-30.0
2869.0,2767.0,2802.0,3118.0,3019.0,0.787048,0.048767,-0.614685,0.017212,-1.0,4.0,-2.0,7749.0,412.0,1971.0,-191.0,-43.0,8.0,-50.0,-37.0,-185.0,0.969252,0.055604,0.239525,15430.0,792.0,3818.0,-2.0,101.0,-38.0
2863.0,2763.0,2821.0,3139.0,3015.0,0.78772,0.049011,-0.613831,0.016785,-1.0,2.0,-4.0,7496.0,347.0,1831.0,-439.0,-116.0,-148.0,45.0,-86.0,-467.0,0.968698,0.056608,0.241594,13858.0,204.0,3096.0,-11.0,68.0,-70.0
2879.0,2761.0,2815.0,3153.0,3055.0,0.787659,0.049194,-0.613953,0.016663,1.0,-2.0,-3.0,7421.0,296.0,1824.0,-515.0,-171.0,-152.0,35.0,-137.0,-545.0,0.96881,0.057037,0.241326,14732.0,464.0,3816.0,40.0,-38.0,-68.0
2877.0,2769.0,2823.0,3151.0,3045.0,0.787292,0.049988,-0.614258,0.016418,0.0,-3.0,-2.0,7576.0,469.0,1984.0,-360.0,-10.0,15.0,-101.0,1.0,-345.0,0.968843,0.05854,0.240288,15546.0,1436.0,4382.0,17.0,-56.0,-43.0
2869.0,2751.0,2832.0,3143.0,3023.0,0.787231,0.050171,-0.614441,0.016174,0.0,-3.0,-3.0,7626.0,483.0,2008.0,-312.0,-1.0,42.0,-116.0,6.0,-292.0,0.969037,0.059116,0.23994,15604.0,948.0,4170.0,1.0,-55.0,-47.0
2881.0,2750.0,2815.0,3141.0,3023.0,0.787048,0.05072,-0.614563,0.015991,1.0,-1.0,-2.0,7772.0,568.0,2037.0,-166.0,74.0,75.0,-119.0,72.0,-138.0,0.969004,0.060183,0.239441,15768.0,1530.0,3992.0,32.0,-5.0,-31.0
2877.0,2763.0,2837.0,3138.0,3021.0,0.787109,0.051025,-0.614441,0.015869,0.0,0.0,-2.0,7743.0,602.0,1973.0,-194.0,103.0,9.0,-65.0,108.0,-179.0,0.968884,0.060824,0.239652,15206.0,1330.0,3480.0,18.0,21.0,-26.0
2883.0,2759.0,2831.0,3151.0,3039.0,0.786987,0.051453,-0.614624,0.015808,1.0,-2.0,-1.0,7564.0,592.0,1792.0,-374.0,87.0,-167.0,62.0,117.0,-397.0,0.969029,0.061553,0.239189,14602.0,1194.0,3094.0,30.0,-23.0,-12.0
2874.0,2755.0,2819.0,3099.0,3019.0,0.786804,0.051636,-0.614868,0.015808,1.0,-3.0,-1.0,7501.0,598.0,1752.0,-438.0,91.0,-202.0,80.0,127.0,-467.0,0.969194,0.061815,0.238582,14696.0,1242.0,3306.0,32.0,-51.0,-4.0
2861.0,2771.0,2827.0,3125.0,3027.0,0.786316,0.051941,-0.615417,0.015991,1.0,-3.0,0.0,7524.0,601.0,1745.0,-418.0,93.0,-197.0,80.0,128.0,-446.0,0.969486,0.062001,0.237112,15216.0,1234.0,3542.0,39.0,-51.0,19.0
2879.0,2762.0,2819.0,3151.0,3039.0,0.786133,0.052124,-0.615601,0.016235,2.0,-2.0,1.0,7556.0,611.0,1770.0,-386.0,103.0,-168.0,59.0,134.0,-407.0,0.96958,0.061964,0.236587,15352.0,1262.0,3722.0,50.0,-36.0,25.0
