flex_1,flex_2,flex_3,flex_4,flex_5,Qw,Qx,Qy,Qz,GYRx,GYRy,GYRz,ACCx,ACCy,ACCz,ACCx_real,ACCy_real,ACCz_real,ACCx_world,ACCy_world,ACCz_world,GRAx,GRAy,GRAz,ACCx_raw,ACCy_raw,ACCz_raw,GYRx_raw,GYRy_raw,GYRz_raw
2895.0,2743.0,2833.0,3067.0,3039.0,1.0,0.0,0.0,0.0,0.0,0.0,0.0,0.0,0.0,0.0,0.0,0.0,0.0,0.0,0.0,0.0,0.0,0.0,0.0,0.0,0.0,0.0,0.0,0.0,0.0
2896.0,2753.0,2831.0,3071.0,3053.0,0.858765,-0.014587,-0.512024,0.010437,-1.0,-2.0,0.0,7886.0,-392.0,791.0,684.0,-99.0,-3101.0,3053.0,-121.0,-868.0,0.879112,-0.035742,0.475204,16044.0,-780.0,1582.0,-22.0,-44.0,12.0
2891.0,2765.0,2818.0,3045.0,3023.0,0.857178,-0.015015,-0.514709,0.010437,-1.0,0.0,0.0,7930.0,-402.0,757.0,703.0,-103.0,-3090.0,3058.0,-125.0,-827.0,0.882082,-0.036485,0.469711,15824.0,-918.0,1394.0,-17.0,13.0,6.0
2899.0,2763.0,2843.0,3062.0,3051.0,0.856445,-0.015076,-0.515869,0.010437,0.0,1.0,-1.0,7874.0,-418.0,711.0,637.0,-118.0,-3116.0,3052.0,-143.0,-888.0,0.883313,-0.036591,0.467259,15332.0,-938.0,1104.0,1.0,26.0,-13.0
2898.0,2754.0,2833.0,3051.0,3045.0,0.854919,-0.015076,-0.518433,0.010315,0.0,-2.0,-1.0,7753.0,-410.0,679.0,493.0,-111.0,-3105.0,2981.0,-141.0,-993.0,0.886125,-0.036472,0.461994,15408.0,-660.0,1408.0,6.0,-39.0,-12.0
2879.0,2751.0,2807.0,3047.0,3029.0,0.854065,-0.015137,-0.519836,0.010315,-1.0,-3.0,-1.0,7757.0,-374.0,699.0,485.0,-74.0,-3061.0,2941.0,-104.0,-972.0,0.887636,-0.03658,0.459074,15544.0,-580.0,1488.0,-13.0,-53.0,-5.0
2891.0,2747.0,2827.0,3063.0,3045.0,0.852234,-0.015381,-0.522888,0.010132,-1.0,-4.0,-1.0,7773.0,-412.0,705.0,474.0,-110.0,-3003.0,2892.0,-141.0,-933.0,0.890934,-0.036812,0.452757,15662.0,-948.0,1388.0,-7.0,-83.0,-6.0
2894.0,2762.0,2832.0,3057.0,3019.0,0.851257,-0.015442,-0.524414,0.010193,0.0,-4.0,-1.0,7827.0,-414.0,715.0,515.0,-111.0,-2967.0,2881.0,-139.0,-869.0,0.892508,-0.036981,0.449494,16082.0,-812.0,1540.0,9.0,-85.0,-6.0
2891.0,2746.0,2851.0,3055.0,3047.0,0.849548,-0.015503,-0.527161,0.010193,-1.0,-1.0,0.0,7954.0,-386.0,725.0,619.0,-82.0,-2909.0,2881.0,-106.0,-733.0,0.895381,-0.037088,0.443698,16058.0,-734.0,1380.0,-13.0,-3.0,6.0
2895.0,2751.0,2832.0,3069.0,3047.0,0.848877,-0.015686,-0.528259,0.010132,-2.0,1.0,0.0,7937.0,-399.0,700.0,592.0,-93.0,-2915.0,2876.0,-119.0,-752.0,0.896536,-0.037336,0.441391,15688.0,-938.0,1224.0,-25.0,28.0,3.0
2883.0,2768.0,2851.0,3063.0,3031.0,0.847534,-0.01593,-0.530334,0.010132,0.0,1.0,-1.0,7838.0,-445.0,651.0,476.0,-135.0,-2928.0,2841.0,-166.0,-846.0,0.89863,-0.037749,0.436908,15386.0,-918.0,1216.0,8.0,24.0,-17.0
2887.0,2747.0,2833.0,3059.0,3031.0,0.846863,-0.015869,-0.531433,0.010071,0.0,0.0,-1.0,7790.0,-452.0,645.0,418.0,-144.0,-2915.0,2806.0,-176.0,-885.0,0.899782,-0.037582,0.434605,15322.0,-958.0,1234.0,20.0,8.0,-21.0
2887.0,2768.0,2833.0,3063.0,3047.0,0.845398,-0.015747,-0.533813,0.010071,0.0,-2.0,-1.0,7776.0,-391.0,699.0,384.0,-84.0,-2820.0,2711.0,-115.0,-861.0,0.902252,-0.037377,0.429594,15506.0,-534.0,1542.0,1.0,-41.0,-1.0
2886.0,2755.0,2843.0,3071.0,3019.0,0.844543,-0.015869,-0.535156,0.010071,-2.0,-4.0,0.0,7795.0,-365.0,734.0,392.0,-57.0,-2761.0,2664.0,-87.0,-821.0,0.903606,-0.037583,0.426711,15828.0,-644.0,1708.0,-26.0,-71.0,8.0
2889.0,2755.0,2847.0,3055.0,3031.0,0.842773,-0.016357,-0.537903,0.010071,-2.0,-3.0,0.0,7941.0,-381.0,784.0,516.0,-66.0,-2662.0,2631.0,-92.0,-649.0,0.906331,-0.038405,0.420761,16456.0,-782.0,1682.0,-25.0,-54.0,21.0
2887.0,2763.0,2847.0,3067.0,3055.0,0.842041,-0.016479,-0.539062,0.010071,-1.0,0.0,0.0,8011.0,-377.0,784.0,576.0,-60.0,-2642.0,2640.0,-84.0,-580.0,0.907494,-0.03861,0.418275,16332.0,-742.0,1484.0,-13.0,5.0,13.0
2891.0,2768.0,2833.0,3051.0,3051.0,0.840881,-0.016602,-0.540833,0.01001,0.0,2.0,-1.0,7916.0,-414.0,682.0,467.0,-96.0,-2712.0,2661.0,-126.0,-695.0,0.90922,-0.038747,0.414406,15350.0,-930.0,1016.0,13.0,51.0,-19.0
2879.0,2751.0,2827.0,3055.0,3053.0,0.840271,-0.016541,-0.541748,0.01001,1.0,1.0,-2.0,7805.0,-443.0,608.0,349.0,-126.0,-2770.0,2666.0,-160.0,-819.0,0.910099,-0.038643,0.412391,14906.0,-1052.0,782.0,29.0,30.0,-24.0
2896.0,2759.0,2832.0,3059.0,3039.0,0.838745,-0.016235,-0.544189,0.010132,1.0,-3.0,-1.0,7695.0,-449.0,554.0,219.0,-135.0,-2781.0,2628.0,-172.0,-927.0,0.912544,-0.038262,0.40719,15442.0,-754.0,1144.0,44.0,-68.0,-19.0
2891.0,2761.0,2843.0,3063.0,3045.0,0.83783,-0.016113,-0.545593,0.010193,0.0,-4.0,-1.0,7762.0,-420.0,591.0,275.0,-107.0,-2719.0,2597.0,-140.0,-843.0,0.9139,-0.038123,0.404131,16056.0,-648.0,1452.0,20.0,-79.0,-7.0
2891.0,2743.0,2837.0,3063.0,3047.0,0.836304,-0.016357,-0.547913,0.010132,-2.0,0.0,0.0,7953.0,-394.0,668.0,448.0,-78.0,-2600.0,2562.0,-104.0,-624.0,0.916111,-0.038462,0.399031,16234.0,-822.0,1444.0,-35.0,13.0,15.0
2885.0,2755.0,2837.0,3055.0,3043.0,0.835754,-0.016663,-0.548767,0.010132,-2.0,2.0,0.0,7966.0,-404.0,668.0,454.0,-84.0,-2585.0,2552.0,-111.0,-607.0,0.916931,-0.038972,0.397165,15996.0,-850.0,1348.0,-32.0,48.0,14.0
2881.0,2754.0,2828.0,3055.0,3047.0,0.8349,-0.016968,-0.550049,0.010071,-1.0,4.0,-1.0,7947.0,-413.0,664.0,425.0,-90.0,-2566.0,2525.0,-119.0,-618.0,0.91813,-0.039412,0.394318,15690.0,-840.0,1266.0,-7.0,101.0,-3.0
2887.0,2757.0,2834.0,3059.0,3027.0,0.834534,-0.017029,-0.550598,0.010071,0.0,4.0,-1.0,7847.0,-426.0,622.0,321.0,-102.0,-2598.0,2514.0,-135.0,-722.0,0.918642,-0.039512,0.3931,14950.0,-942.0,958.0,2.0,98.0,-4.0
2893.0,2757.0,2835.0,3067.0,3043.0,0.833374,-0.016846,-0.552368,0.010254,2.0,-2.0,-1.0,7675.0,-469.0,603.0,135.0,-146.0,-2585.0,2433.0,-184.0,-876.0,0.920313,-0.039405,0.389223,15182.0,-852.0,1354.0,68.0,-30.0,-19.0
2882.0,2755.0,2832.0,3056.0,3039.0,0.832581,-0.016479,-0.553528,0.010437,2.0,-3.0,-1.0,7725.0,-411.0,672.0,177.0,-91.0,-2495.0,2368.0,-124.0,-798.0,0.921369,-0.038995,0.386635,15904.0,-408.0,1836.0,66.0,-63.0,-12.0
2882.0,2751.0,2835.0,3055.0,3031.0,0.831116,-0.016418,-0.555786,0.010559,-1.0,-3.0,1.0,7863.0,-347.0,779.0,297.0,-27.0,-2347.0,2282.0,-52.0,-620.0,0.923498,-0.039028,0.381697,16054.0,-706.0,1794.0,-14.0,-49.0,31.0
2890.0,2763.0,2841.0,3055.0,3055.0,0.830383,-0.016663,-0.556824,0.010681,-1.0,-2.0,1.0,7910.0,-359.0,802.0,337.0,-34.0,-2305.0,2260.0,-58.0,-561.0,0.924398,-0.039568,0.37932,16120.0,-828.0,1718.0,-14.0,-36.0,42.0
2877.0,2755.0,2831.0,3057.0,3039.0,0.829102,-0.016846,-0.558716,0.011047,0.0,0.0,1.0,7940.0,-360.0,783.0,353.0,-30.0,-2289.0,2254.0,-52.0,-530.0,0.926092,-0.040278,0.375084,15742.0,-660.0,1382.0,18.0,5.0,26.0
2897.0,2757.0,2831.0,3059.0,3039.0,0.828491,-0.016846,-0.559631,0.011169,0.0,0.0,0.0,7897.0,-370.0,744.0,303.0,-38.0,-2312.0,2257.0,-62.0,-580.0,0.926923,-0.040415,0.373051,15544.0,-842.0,1234.0,18.0,8.0,12.0
2879.0,2754.0,2838.0,3063.0,3043.0,0.827209,-0.016724,-0.561523,0.011414,1.0,-2.0,-1.0,7786.0,-406.0,659.0,178.0,-74.0,-2362.0,2260.0,-102.0,-702.0,0.928613,-0.040486,0.368818,15264.0,-840.0,1088.0,36.0,-23.0,-1.0
2891.0,2765.0,2818.0,3063.0,3055.0,0.826477,-0.016663,-0.562561,0.011475,1.0,-2.0,0.0,7776.0,-406.0,653.0,161.0,-74.0,-2348.0,2243.0,-102.0,-707.0,0.929505,-0.040453,0.366443,15580.0,-788.0,1316.0,26.0,-44.0,2.0
2891.0,2765.0,2839.0,3062.0,3047.0,0.825012,-0.016846,-0.564758,0.011658,-1.0,-2.0,0.0,7868.0,-438.0,645.0,237.0,-102.0,-2316.0,2244.0,-126.0,-612.0,0.931472,-0.040963,0.361545,16018.0,-1076.0,1332.0,-10.0,-28.0,17.0
2889.0,2753.0,2825.0,3059.0,3046.0,0.824341,-0.017029,-0.565674,0.01178,0.0,-1.0,0.0,7877.0,-469.0,626.0,240.0,-129.0,-2318.0,2249.0,-153.0,-604.0,0.932215,-0.041402,0.3594,15712.0,-1096.0,1104.0,3.0,-4.0,18.0
2887.0,2755.0,2832.0,3057.0,3039.0,0.823242,-0.01709,-0.567322,0.011963,0.0,1.0,0.0,7929.0,-454.0,634.0,280.0,-112.0,-2280.0,2230.0,-134.0,-544.0,0.933678,-0.041712,0.355725,16068.0,-806.0,1342.0,13.0,33.0,7.0
2887.0,2763.0,2843.0,3063.0,3051.0,0.822815,-0.017151,-0.567932,0.012024,-1.0,2.0,0.0,7925.0,-433.0,631.0,272.0,-89.0,-2271.0,2219.0,-111.0,-546.0,0.934194,-0.041882,0.354328,15746.0,-758.0,1214.0,-4.0,65.0,17.0
2891.0,2766.0,2843.0,3063.0,3039.0,0.82196,-0.017578,-0.569153,0.012085,-2.0,1.0,0.0,7773.0,-418.0,603.0,111.0,-68.0,-2276.0,2169.0,-97.0,-693.0,0.935217,-0.042653,0.351521,14978.0,-908.0,1092.0,-28.0,32.0,22.0
2871.0,2759.0,2835.0,3051.0,3039.0,0.82135,-0.017761,-0.570007,0.012146,-1.0,-1.0,0.0,7721.0,-436.0,609.0,53.0,-83.0,-2254.0,2130.0,-115.0,-734.0,0.93592,-0.043023,0.34954,15236.0,-960.0,1288.0,-7.0,-17.0,7.0
2887.0,2755.0,2834.0,3059.0,3043.0,0.820068,-0.017639,-0.571838,0.012268,1.0,-1.0,0.0,7864.0,-403.0,705.0,184.0,-51.0,-2124.0,2056.0,-75.0,-558.0,0.93746,-0.042961,0.345352,16236.0,-540.0,1658.0,30.0,-15.0,2.0
2886.0,2759.0,2839.0,3063.0,3053.0,0.819519,-0.017578,-0.572571,0.012329,0.0,0.0,0.0,7912.0,-366.0,733.0,227.0,-14.0,-2081.0,2031.0,-35.0,-501.0,0.938032,-0.04293,0.343617,16000.0,-548.0,1600.0,8.0,17.0,6.0
2879.0,2767.0,2835.0,3063.0,3051.0,0.818604,-0.017639,-0.573914,0.012268,0.0,1.0,-1.0,7894.0,-381.0,725.0,200.0,-29.0,-2064.0,2008.0,-51.0,-513.0,0.939183,-0.042961,0.340574,15748.0,-884.0,1344.0,2.0,30.0,-3.0
2887.0,2759.0,2835.0,3058.0,3039.0,0.818176,-0.017639,-0.574585,0.012329,0.0,1.0,-1.0,7875.0,-416.0,707.0,176.0,-63.0,-2070.0,2006.0,-86.0,-533.0,0.939789,-0.043032,0.339105,15598.0,-1038.0,1338.0,19.0,32.0,-7.0
2883.0,2718.0,2832.0,3051.0,3039.0,0.817139,-0.017395,-0.575989,0.012512,1.0,-1.0,-1.0,7801.0,-416.0,686.0,93.0,-65.0,-2064.0,1975.0,-90.0,-602.0,0.94089,-0.042842,0.335806,15422.0,-788.0,1424.0,42.0,-6.0,-8.0
2891.0,2763.0,2839.0,3062.0,3047.0,0.816528,-0.017273,-0.576843,0.012634,1.0,-2.0,-1.0,7809.0,-402.0,697.0,95.0,-51.0,-2037.0,1951.0,-74.0,-588.0,0.941581,-0.042784,0.333832,15760.0,-714.0,1472.0,38.0,-28.0,-5.0
2892.0,2761.0,2831.0,3063.0,3039.0,0.815369,-0.016968,-0.578552,0.012817,1.0,-1.0,-1.0,7863.0,-407.0,706.0,137.0,-58.0,-1997.0,1930.0,-78.0,-527.0,0.943032,-0.042501,0.32998,15766.0,-846.0,1352.0,32.0,-10.0,-6.0
2887.0,2759.0,2831.0,3055.0,3039.0,0.814819,-0.016907,-0.579346,0.012878,1.0,-1.0,-1.0,7872.0,-416.0,705.0,141.0,-68.0,-1983.0,1919.0,-87.0,-514.0,0.943689,-0.042474,0.328169,15822.0,-886.0,1432.0,31.0,-8.0,-8.0
2887.0,2758.0,2836.0,3059.0,3035.0,0.813843,-0.016785,-0.580688,0.012878,-1.0,1.0,-1.0,7932.0,-389.0,709.0,192.0,-42.0,-1953.0,1909.0,-58.0,-451.0,0.944746,-0.042277,0.325025,16054.0,-724.0,1384.0,-6.0,31.0,-9.0
2893.0,2766.0,2839.0,3061.0,3051.0,0.813416,-0.016846,-0.581238,0.012756,-1.0,2.0,-1.0,7931.0,-413.0,690.0,188.0,-67.0,-1961.0,1916.0,-84.0,-454.0,0.945146,-0.042234,0.323686,15788.0,-1054.0,1230.0,-22.0,53.0,-10.0
2895.0,2765.0,2837.0,3059.0,3047.0,0.812683,-0.016968,-0.582336,0.012695,0.0,1.0,-2.0,7807.0,-492.0,618.0,56.0,-144.0,-2013.0,1924.0,-167.0,-587.0,0.946079,-0.042365,0.321211,15136.0,-1114.0,1066.0,18.0,45.0,-23.0
2891.0,2765.0,2837.0,3058.0,3039.0,0.812195,-0.016907,-0.583008,0.012695,1.0,0.0,-2.0,7749.0,-488.0,612.0,-5.0,-141.0,-2006.0,1899.0,-166.0,-639.0,0.946603,-0.042266,0.319638,15210.0,-894.0,1230.0,25.0,5.0,-25.0
2885.0,2757.0,2843.0,3063.0,3038.0,0.810974,-0.016785,-0.584656,0.012634,0.0,-2.0,-1.0,7796.0,-451.0,667.0,31.0,-106.0,-1919.0,1830.0,-128.0,-572.0,0.947857,-0.041997,0.315735,15894.0,-768.0,1602.0,5.0,-37.0,-19.0
2891.0,2763.0,2833.0,3067.0,3055.0,0.810364,-0.016724,-0.58551,0.012573,-1.0,-2.0,-1.0,7818.0,-435.0,698.0,47.0,-92.0,-1872.0,1792.0,-113.0,-538.0,0.948532,-0.041828,0.313746,15704.0,-780.0,1556.0,-3.0,-36.0,-15.0
2890.0,2757.0,2838.0,3059.0,3047.0,0.809143,-0.016785,-0.587219,0.01239,-1.0,-2.0,-1.0,7876.0,-399.0,732.0,94.0,-57.0,-1805.0,1745.0,-75.0,-467.0,0.949873,-0.041714,0.309758,16082.0,-690.0,1560.0,-16.0,-45.0,-16.0
2891.0,2755.0,2845.0,3067.0,3045.0,0.808594,-0.016846,-0.587952,0.012207,-1.0,0.0,-1.0,7950.0,-382.0,747.0,164.0,-41.0,-1776.0,1739.0,-57.0,-389.0,0.950417,-0.041597,0.308002,16304.0,-658.0,1544.0,-15.0,1.0,-17.0
2885.0,2759.0,2851.0,3059.0,3043.0,0.807861,-0.016785,-0.588989,0.012024,0.0,2.0,-2.0,7907.0,-393.0,690.0,114.0,-54.0,-1813.0,1760.0,-72.0,-443.0,0.95124,-0.041283,0.305594,15466.0,-878.0,1166.0,15.0,57.0,-23.0
2887.0,2755.0,2847.0,3071.0,3045.0,0.807495,-0.016602,-0.589478,0.012024,1.0,1.0,-2.0,7827.0,-385.0,650.0,31.0,-49.0,-1843.0,1764.0,-71.0,-529.0,0.951601,-0.040987,0.304434,15140.0,-650.0,1058.0,40.0,44.0,-27.0
2890.0,2774.0,2834.0,3067.0,3039.0,0.80658,-0.016174,-0.590759,0.012085,1.0,0.0,-1.0,7768.0,-354.0,630.0,-35.0,-23.0,-1839.0,1742.0,-46.0,-586.0,0.952598,-0.04037,0.301459,15538.0,-592.0,1266.0,39.0,1.0,-17.0
2886.0,2755.0,2839.0,3059.0,3043.0,0.806091,-0.015991,-0.591431,0.012146,1.0,-1.0,-1.0,7753.0,-331.0,626.0,-54.0,-2.0,-1830.0,1729.0,-24.0,-600.0,0.953106,-0.040148,0.299885,15400.0,-524.0,1224.0,27.0,-8.0,-6.0
2891.0,2751.0,2838.0,3059.0,3047.0,0.804993,-0.015808,-0.592957,0.012207,0.0,-2.0,0.0,7826.0,-325.0,672.0,8.0,2.0,-1755.0,1678.0,-16.0,-512.0,0.954265,-0.039927,0.296315,16032.0,-578.0,1530.0,22.0,-25.0,4.0
2883.0,2759.0,2847.0,3066.0,3071.0,0.804504,-0.015808,-0.593628,0.012268,0.0,-1.0,0.0,7876.0,-294.0,699.0,54.0,33.0,-1715.0,1654.0,16.0,-455.0,0.954765,-0.040001,0.294734,16024.0,-382.0,1554.0,8.0,-4.0,14.0
2895.0,2767.0,2838.0,3056.0,3059.0,0.803711,-0.015991,-0.594666,0.012329,-1.0,1.0,0.0,7920.0,-312.0,710.0,92.0,18.0,-1683.0,1636.0,2.0,-404.0,0.955484,-0.040368,0.29222,15804.0,-814.0,1406.0,-9.0,40.0,21.0
2896.0,2753.0,2831.0,3063.0,3051.0,0.803406,-0.016052,-0.595093,0.012451,0.0,1.0,0.0,7884.0,-337.0,697.0,54.0,-4.0,-1688.0,1630.0,-20.0,-439.0,0.955802,-0.040612,0.291223,15532.0,-834.0,1334.0,13.0,43.0,15.0
2891.0,2759.0,2833.0,3067.0,3051.0,0.802673,-0.01593,-0.596069,0.012756,1.0,0.0,0.0,7828.0,-351.0,697.0,-7.0,-16.0,-1669.0,1595.0,-33.0,-488.0,0.956492,-0.040781,0.288895,15552.0,-668.0,1412.0,43.0,19.0,8.0
2902.0,2757.0,2830.0,3063.0,3039.0,0.802246,-0.015808,-0.596619,0.012878,1.0,0.0,0.0,7809.0,-338.0,699.0,-29.0,-4.0,-1656.0,1577.0,-21.0,-503.0,0.956863,-0.040731,0.287561,15486.0,-606.0,1418.0,35.0,8.0,15.0
2881.0,2767.0,2846.0,3063.0,3039.0,0.80127,-0.015808,-0.5979,0.013245,0.0,-2.0,1.0,7775.0,-328.0,701.0,-70.0,9.0,-1629.0,1541.0,-9.0,-530.0,0.95774,-0.041171,0.284473,15562.0,-580.0,1454.0,13.0,-28.0,29.0
2891.0,2753.0,2832.0,3063.0,3047.0,0.80072,-0.015869,-0.598633,0.013367,-1.0,-2.0,1.0,7791.0,-315.0,708.0,-58.0,24.0,-1608.0,1525.0,6.0,-511.0,0.958251,-0.041417,0.282718,15700.0,-542.0,1458.0,0.0,-33.0,34.0
2883.0,2755.0,2830.0,3069.0,3031.0,0.799805,-0.016235,-0.599915,0.013489,-2.0,0.0,1.0,7860.0,-304.0,700.0,2.0,41.0,-1591.0,1527.0,25.0,-444.0,0.959191,-0.042154,0.279708,15782.0,-634.0,1280.0,-26.0,7.0,34.0
2891.0,2768.0,2847.0,3058.0,3053.0,0.799377,-0.016479,-0.600464,0.013489,-1.0,0.0,1.0,7858.0,-317.0,676.0,-2.0,31.0,-1604.0,1539.0,14.0,-449.0,0.95955,-0.042546,0.278358,15694.0,-728.0,1198.0,-22.0,21.0,28.0
2885.0,2753.0,2827.0,3071.0,3047.0,0.798645,-0.016724,-0.60144,0.013672,-1.0,1.0,1.0,7820.0,-328.0,624.0,-46.0,25.0,-1637.0,1560.0,6.0,-497.0,0.960218,-0.043158,0.276011,15450.0,-688.0,1084.0,-5.0,29.0,28.0
2879.0,2759.0,2830.0,3071.0,3051.0,0.798218,-0.016907,-0.601929,0.013794,-1.0,1.0,1.0,7796.0,-347.0,609.0,-72.0,10.0,-1641.0,1557.0,-10.0,-520.0,0.960474,-0.043596,0.274738,15466.0,-828.0,1104.0,-10.0,23.0,31.0
2879.0,2757.0,2835.0,3058.0,3051.0,0.797485,-0.017273,-0.602966,0.014099,0.0,0.0,1.0,7808.0,-398.0,620.0,-66.0,-33.0,-1610.0,1531.0,-52.0,-500.0,0.961227,-0.044552,0.272315,15702.0,-910.0,1368.0,6.0,21.0,41.0
2879.0,2757.0,2846.0,3071.0,3031.0,0.797119,-0.017395,-0.603394,0.014343,0.0,1.0,1.0,7842.0,-399.0,663.0,-34.0,-30.0,-1558.0,1490.0,-47.0,-453.0,0.961454,-0.045041,0.271218,15884.0,-768.0,1632.0,14.0,30.0,43.0
2885.0,2771.0,2837.0,3071.0,3047.0,0.796631,-0.0177,-0.604065,0.014771,0.0,1.0,1.0,7846.0,-441.0,735.0,-33.0,-63.0,-1473.0,1409.0,-79.0,-426.0,0.961911,-0.046046,0.269631,15648.0,-1070.0,1746.0,7.0,38.0,45.0
2885.0,2750.0,2832.0,3063.0,3039.0,0.796326,-0.017822,-0.60437,0.015076,0.0,1.0,1.0,7860.0,-461.0,782.0,-20.0,-79.0,-1419.0,1361.0,-94.0,-396.0,0.962014,-0.046607,0.268781,15852.0,-1012.0,1860.0,20.0,31.0,43.0
2883.0,2739.0,2853.0,3063.0,3047.0,0.795837,-0.018066,-0.605042,0.015625,0.0,1.0,1.0,7916.0,-472.0,866.0,31.0,-81.0,-1322.0,1282.0,-92.0,-319.0,0.962465,-0.047663,0.2672,16052.0,-914.0,1916.0,17.0,31.0,43.0
2903.0,2751.0,2838.0,3071.0,3037.0,0.795593,-0.01825,-0.605347,0.015808,-1.0,1.0,1.0,7917.0,-481.0,874.0,31.0,-86.0,-1308.0,1269.0,-97.0,-314.0,0.962642,-0.048177,0.266441,15760.0,-1034.0,1768.0,0.0,37.0,44.0
2870.0,2758.0,2827.0,3061.0,3051.0,0.794922,-0.018677,-0.606201,0.016235,0.0,-1.0,0.0,7820.0,-592.0,831.0,-70.0,-187.0,-1334.0,1268.0,-203.0,-410.0,0.963159,-0.049377,0.264336,15454.0,-1610.0,1544.0,9.0,-7.0,21.0
2895.0,2762.0,2835.0,3059.0,3049.0,0.794495,-0.018738,-0.60675,0.016479,1.0,-1.0,0.0,7837.0,-629.0,832.0,-56.0,-221.0,-1322.0,1261.0,-236.0,-390.0,0.963502,-0.049772,0.262996,15860.0,-1394.0,1682.0,34.0,-22.0,3.0
2846.0,2766.0,2846.0,3063.0,3035.0,0.793701,-0.018616,-0.607727,0.016663,0.0,0.0,-1.0,7896.0,-593.0,838.0,-1.0,-185.0,-1296.0,1251.0,-196.0,-329.0,0.964087,-0.049803,0.26056,15834.0,-1036.0,1666.0,13.0,12.0,-14.0
2899.0,2751.0,2827.0,3059.0,3058.0,0.793396,-0.018616,-0.608154,0.016602,-1.0,0.0,-1.0,7875.0,-577.0,831.0,-25.0,-169.0,-1295.0,1244.0,-182.0,-351.0,0.964396,-0.049732,0.259555,15558.0,-1074.0,1584.0,-6.0,15.0,-21.0
2895.0,2763.0,2815.0,3055.0,3057.0,0.792664,-0.018616,-0.609131,0.016296,-1.0,-1.0,-2.0,7840.0,-517.0,828.0,-65.0,-112.0,-1278.0,1218.0,-127.0,-385.0,0.965065,-0.049365,0.257194,15770.0,-800.0,1744.0,-17.0,-18.0,-38.0
2896.0,2759.0,2823.0,3043.0,3055.0,0.792236,-0.018616,-0.60968,0.016052,-2.0,-2.0,-2.0,7868.0,-495.0,819.0,-40.0,-93.0,-1276.0,1223.0,-107.0,-360.0,0.965424,-0.04907,0.25584,15922.0,-896.0,1554.0,-32.0,-23.0,-36.0
2887.0,2765.0,2842.0,3050.0,3059.0,0.791382,-0.018738,-0.610779,0.015503,-2.0,-1.0,-3.0,7905.0,-484.0,790.0,-9.0,-85.0,-1283.0,1238.0,-99.0,-329.0,0.966138,-0.048595,0.253124,15832.0,-1026.0,1456.0,-31.0,-6.0,-46.0
2895.0,2763.0,2833.0,3071.0,3063.0,0.791016,-0.018677,-0.611328,0.015259,-1.0,0.0,-3.0,7897.0,-491.0,766.0,-21.0,-96.0,-1297.0,1249.0,-111.0,-342.0,0.96657,-0.048203,0.251868,15702.0,-958.0,1384.0,-5.0,3.0,-62.0
2895.0,2775.0,2805.0,3071.0,3013.0,0.790283,-0.018188,-0.612305,0.014587,-1.0,-1.0,-4.0,7837.0,-422.0,728.0,-86.0,-40.0,-1316.0,1252.0,-58.0,-409.0,0.967258,-0.046612,0.249512,15496.0,-638.0,1320.0,-5.0,-11.0,-76.0
2893.0,2768.0,2839.0,3043.0,3035.0,0.789795,-0.018005,-0.612915,0.014282,-1.0,-2.0,-3.0,7814.0,-398.0,712.0,-112.0,-21.0,-1319.0,1249.0,-40.0,-434.0,0.96764,-0.045949,0.247991,15516.0,-644.0,1294.0,-12.0,-23.0,-66.0
2895.0,2763.0,2815.0,3056.0,3056.0,0.789001,-0.017761,-0.614014,0.013672,-1.0,0.0,-2.0,7882.0,-339.0,731.0,-51.0,28.0,-1279.0,1227.0,11.0,-364.0,0.96843,-0.044817,0.245382,15948.0,-560.0,1466.0,-17.0,2.0,-44.0
2875.0,2743.0,2835.0,3069.0,3055.0,0.788696,-0.0177,-0.61438,0.013428,-1.0,1.0,-2.0,7866.0,-322.0,712.0,-69.0,41.0,-1290.0,1233.0,23.0,-383.0,0.968643,-0.04442,0.244446,15546.0,-550.0,1248.0,-13.0,26.0,-35.0
2903.0,2766.0,2851.0,3055.0,3007.0,0.788025,-0.017517,-0.615234,0.013062,-1.0,0.0,-2.0,7821.0,-309.0,666.0,-118.0,48.0,-1319.0,1250.0,27.0,-436.0,0.969182,-0.04368,0.242334,15700.0,-638.0,1292.0,-5.0,7.0,-26.0
2903.0,2771.0,2842.0,3056.0,3071.0,0.78772,-0.017456,-0.615662,0.012939,-1.0,0.0,-1.0,7843.0,-296.0,666.0,-99.0,59.0,-1310.0,1247.0,39.0,-414.0,0.969486,-0.043434,0.241326,15790.0,-496.0,1326.0,-2.0,12.0,-20.0
2882.0,2756.0,2832.0,3058.0,3067.0,0.787109,-0.017334,-0.616394,0.012695,0.0,1.0,-2.0,7801.0,-338.0,657.0,-144.0,13.0,-1304.0,1231.0,-8.0,-452.0,0.969899,-0.042938,0.23946,15366.0,-900.0,1324.0,11.0,25.0,-28.0
2887.0,2763.0,2861.0,3071.0,3063.0,0.786804,-0.017151,-0.616821,0.012695,1.0,0.0,-2.0,7764.0,-337.0,660.0,-183.0,12.0,-1293.0,1211.0,-10.0,-486.0,0.9702,-0.04265,0.238459,15404.0,-608.0,1380.0,27.0,10.0,-27.0
2906.0,2749.0,2838.0,3071.0,3058.0,0.786194,-0.016968,-0.617615,0.012573,-1.0,0.0,0.0,7845.0,-265.0,687.0,-107.0,80.0,-1250.0,1189.0,61.0,-402.0,0.970703,-0.042211,0.236523,16082.0,-300.0,1408.0,-10.0,16.0,5.0
2891.0,2767.0,2831.0,3067.0,3015.0,0.78595,-0.01709,-0.61792,0.012451,-2.0,1.0,1.0,7879.0,-249.0,687.0,-74.0,97.0,-1244.0,1191.0,79.0,-369.0,0.970882,-0.042251,0.235755,15866.0,-476.0,1412.0,-42.0,42.0,26.0
2887.0,2779.0,2821.0,3071.0,3043.0,0.785583,-0.017761,-0.618347,0.012451,-2.0,2.0,1.0,7782.0,-303.0,661.0,-173.0,51.0,-1261.0,1185.0,27.0,-466.0,0.971084,-0.043304,0.234628,15232.0,-730.0,1208.0,-38.0,51.0,44.0
2861.0,2758.0,2822.0,3051.0,3054.0,0.785339,-0.018066,-0.618652,0.012573,-2.0,1.0,2.0,7763.0,-310.0,655.0,-193.0,49.0,-1260.0,1179.0,24.0,-484.0,0.97125,-0.043933,0.233859,15516.0,-634.0,1304.0,-25.0,31.0,48.0
2894.0,2763.0,2832.0,3089.0,3071.0,0.78479,-0.018616,-0.619324,0.012695,-2.0,0.0,2.0,7825.0,-300.0,711.0,-134.0,68.0,-1190.0,1126.0,46.0,-409.0,0.971606,-0.044944,0.232148,15810.0,-658.0,1686.0,-43.0,21.0,50.0
2871.0,2768.0,2835.0,3029.0,3055.0,0.784607,-0.018982,-0.619568,0.012756,-2.0,1.0,2.0,7834.0,-328.0,748.0,-126.0,45.0,-1148.0,1087.0,23.0,-390.0,0.97175,-0.045594,0.231546,15680.0,-810.0,1726.0,-42.0,25.0,49.0
2895.0,2751.0,2827.0,3045.0,3056.0,0.784119,-0.019592,-0.620178,0.013,-1.0,0.0,2.0,7832.0,-347.0,808.0,-131.0,36.0,-1076.0,1017.0,14.0,-376.0,0.972077,-0.046851,0.230006,15768.0,-622.0,1728.0,-17.0,10.0,48.0
2891.0,2767.0,2826.0,3059.0,3047.0,0.783813,-0.019836,-0.620483,0.013062,-2.0,0.0,2.0,7859.0,-328.0,825.0,-105.0,59.0,-1052.0,999.0,38.0,-345.0,0.972168,-0.047305,0.229141,15908.0,-570.0,1784.0,-34.0,6.0,53.0
2880.0,2757.0,2833.0,3056.0,3046.0,0.783325,-0.020691,-0.621155,0.013184,-3.0,0.0,2.0,7879.0,-365.0,819.0,-88.0,34.0,-1044.0,996.0,13.0,-324.0,0.972587,-0.048794,0.227511,15520.0,-890.0,1474.0,-58.0,18.0,65.0
2883.0,2754.0,2831.0,3063.0,3031.0,0.78302,-0.021118,-0.62146,0.013306,-3.0,0.0,2.0,7820.0,-392.0,802.0,-148.0,14.0,-1054.0,992.0,-10.0,-383.0,0.972669,-0.04961,0.226639,15314.0,-950.0,1530.0,-46.0,1.0,53.0
2898.0,2771.0,2831.0,3055.0,3059.0,0.782288,-0.021851,-0.622375,0.013367,-3.0,-1.0,1.0,7831.0,-396.0,789.0,-141.0,20.0,-1048.0,989.0,-5.0,-373.0,0.973169,-0.050825,0.224324,15876.0,-780.0,1556.0,-48.0,-15.0,44.0
2887.0,2761.0,2835.0,3063.0,3036.0,0.781982,-0.022217,-0.622742,0.013367,-3.0,0.0,2.0,7851.0,-384.0,780.0,-122.0,37.0,-1049.0,995.0,12.0,-354.0,0.973352,-0.051394,0.223374,15766.0,-708.0,1494.0,-63.0,8.0,52.0
2895.0,2755.0,2833.0,3057.0,3043.0,0.781555,-0.023254,-0.623291,0.013245,-4.0,1.0,2.0,7834.0,-410.0,736.0,-142.0,23.0,-1082.0,1023.0,-5.0,-379.0,0.973657,-0.05286,0.221971,15576.0,-984.0,1268.0,-75.0,38.0,49.0
2896.0,2767.0,2837.0,3051.0,3038.0,0.781311,-0.023682,-0.623535,0.013245,-3.0,1.0,2.0,7818.0,-434.0,725.0,-158.0,4.0,-1087.0,1024.0,-26.0,-394.0,0.973722,-0.053522,0.221265,15582.0,-1000.0,1466.0,-59.0,41.0,46.0
2889.0,2768.0,2839.0,3058.0,3055.0,0.781067,-0.024353,-0.62384,0.013306,-2.0,2.0,1.0,7849.0,-457.0,762.0,-128.0,-9.0,-1044.0,989.0,-37.0,-354.0,0.973874,-0.054644,0.220473,15730.0,-938.0,1622.0,-31.0,58.0,37.0
2879.0,2749.0,2847.0,3071.0,3051.0,0.780945,-0.024597,-0.623962,0.013367,-2.0,2.0,1.0,7823.0,-438.0,779.0,-155.0,13.0,-1024.0,964.0,-17.0,-377.0,0.973903,-0.055099,0.220119,15466.0,-760.0,1706.0,-30.0,55.0,32.0
2879.0,2743.0,2847.0,3067.0,3023.0,0.78064,-0.025208,-0.624329,0.013367,-2.0,0.0,1.0,7827.0,-445.0,852.0,-152.0,14.0,-943.0,886.0,-15.0,-355.0,0.974077,-0.056046,0.219155,15756.0,-928.0,1964.0,-37.0,17.0,42.0
2898.0,2767.0,2832.0,3057.0,3035.0,0.780457,-0.025513,-0.624573,0.013489,-2.0,0.0,2.0,7851.0,-446.0,887.0,-129.0,18.0,-903.0,852.0,-9.0,-324.0,0.974216,-0.056673,0.218552,15824.0,-882.0,1962.0,-31.0,16.0,48.0
2879.0,2749.0,2839.0,3053.0,3027.0,0.780029,-0.026062,-0.625061,0.013611,-2.0,0.0,1.0,7867.0,-434.0,901.0,-115.0,38.0,-878.0,832.0,10.0,-304.0,0.974422,-0.057673,0.21725,15794.0,-736.0,1846.0,-24.0,13.0,42.0
2883.0,2766.0,2833.0,3063.0,3035.0,0.779846,-0.026245,-0.625244,0.013672,-2.0,0.0,1.0,7861.0,-411.0,903.0,-121.0,64.0,-872.0,825.0,36.0,-310.0,0.974471,-0.058031,0.216728,15652.0,-708.0,1780.0,-29.0,19.0,35.0
2883.0,2762.0,2831.0,3063.0,3031.0,0.779419,-0.026794,-0.625793,0.013489,-3.0,-1.0,1.0,7750.0,-400.0,883.0,-235.0,80.0,-881.0,810.0,45.0,-423.0,0.974788,-0.058651,0.21534,15146.0,-902.0,1734.0,-58.0,-13.0,23.0
2871.0,2761.0,2831.0,3059.0,3055.0,0.778992,-0.0271,-0.626282,0.013428,-3.0,-3.0,0.0,7712.0,-451.0,882.0,-275.0,32.0,-871.0,791.0,-5.0,-456.0,0.975009,-0.05904,0.214045,15284.0,-1264.0,1816.0,-54.0,-54.0,19.0
2885.0,2762.0,2823.0,3067.0,3035.0,0.778015,-0.027649,-0.627502,0.013611,-1.0,-4.0,1.0,7807.0,-498.0,938.0,-185.0,-5.0,-790.0,732.0,-35.0,-346.0,0.97566,-0.060104,0.210969,16130.0,-864.0,2134.0,-12.0,-88.0,45.0
2895.0,2757.0,2823.0,3059.0,3053.0,0.777588,-0.027893,-0.627991,0.013733,-2.0,-3.0,2.0,7903.0,-470.0,967.0,-91.0,26.0,-750.0,714.0,1.0,-247.0,0.97587,-0.060627,0.209681,16396.0,-764.0,2072.0,-24.0,-53.0,50.0
2897.0,2749.0,2829.0,3062.0,3035.0,0.777161,-0.028259,-0.62854,0.013916,0.0,1.0,0.0,7980.0,-521.0,882.0,-16.0,-17.0,-824.0,802.0,-39.0,-186.0,0.976167,-0.061418,0.208311,15890.0,-1168.0,1346.0,12.0,43.0,17.0
2891.0,2754.0,2837.0,3071.0,3023.0,0.777039,-0.028137,-0.628662,0.014099,1.0,2.0,-1.0,7956.0,-528.0,816.0,-40.0,-24.0,-887.0,858.0,-49.0,-222.0,0.976196,-0.061455,0.20798,15760.0,-1070.0,1256.0,40.0,65.0,-4.0
2892.0,2762.0,2861.0,3067.0,3035.0,0.776917,-0.027832,-0.628845,0.014343,2.0,2.0,-1.0,7776.0,-590.0,677.0,-222.0,-87.0,-1023.0,952.0,-125.0,-423.0,0.976322,-0.061286,0.207584,14856.0,-1450.0,980.0,57.0,54.0,-13.0
2883.0,2749.0,2830.0,3055.0,3042.0,0.776611,-0.027588,-0.62915,0.014587,3.0,-1.0,-1.0,7698.0,-622.0,650.0,-300.0,-120.0,-1043.0,956.0,-162.0,-501.0,0.976406,-0.061205,0.206747,15052.0,-1378.0,1212.0,83.0,0.0,-5.0
2907.0,2759.0,2839.0,3050.0,3047.0,0.776001,-0.0271,-0.629944,0.015076,0.0,-1.0,0.0,7816.0,-500.0,750.0,-186.0,0.0,-928.0,869.0,-32.0,-371.0,0.976857,-0.061052,0.204841,16250.0,-756.0,1838.0,22.0,-12.0,13.0
2871.0,2768.0,2847.0,3055.0,3029.0,0.775818,-0.027222,-0.630188,0.015076,-1.0,1.0,0.0,7892.0,-524.0,775.0,-111.0,-22.0,-898.0,855.0,-49.0,-290.0,0.977001,-0.061239,0.204243,16202.0,-1306.0,1708.0,-18.0,27.0,22.0
2885.0,2753.0,2847.0,3055.0,3056.0,0.775757,-0.027344,-0.630249,0.015381,1.0,4.0,0.0,7955.0,-582.0,764.0,-48.0,-75.0,-907.0,877.0,-98.0,-227.0,0.976999,-0.061812,0.204074,15932.0,-1056.0,1438.0,38.0,97.0,4.0
2895.0,2757.0,2831.0,3089.0,3035.0,0.775879,-0.027222,-0.630066,0.015442,1.0,5.0,-1.0,7919.0,-553.0,746.0,-83.0,-47.0,-929.0,891.0,-72.0,-268.0,0.976869,-0.0617,0.204502,15514.0,-948.0,1332.0,33.0,122.0,-17.0
2896.0,2747.0,2846.0,3063.0,3043.0,0.776001,-0.026917,-0.630005,0.015442,1.0,2.0,-2.0,7718.0,-599.0,705.0,-285.0,-97.0,-972.0,891.0,-135.0,-471.0,0.976938,-0.061231,0.204785,14842.0,-1248.0,1430.0,39.0,60.0,-27.0
2893.0,2768.0,2831.0,3055.0,3050.0,0.775818,-0.026733,-0.630188,0.015564,2.0,0.0,-1.0,7701.0,-566.0,747.0,-302.0,-65.0,-926.0,843.0,-102.0,-480.0,0.97699,-0.061097,0.204284,15474.0,-870.0,1808.0,46.0,9.0,-13.0
2883.0,2783.0,2839.0,3093.0,3053.0,0.775452,-0.026489,-0.630676,0.015625,0.0,-1.0,0.0,7787.0,-496.0,873.0,-218.0,1.0,-790.0,728.0,-28.0,-373.0,0.97729,-0.060791,0.203115,15858.0,-886.0,2056.0,12.0,-4.0,7.0
2885.0,2730.0,2845.0,3047.0,3045.0,0.775208,-0.026489,-0.63092,0.015747,0.0,-1.0,0.0,7834.0,-472.0,912.0,-172.0,27.0,-746.0,695.0,1.0,-320.0,0.977354,-0.06094,0.202432,15976.0,-784.0,2052.0,8.0,-7.0,17.0
2891.0,2768.0,2815.0,3051.0,3063.0,0.774963,-0.02655,-0.631287,0.015869,0.0,1.0,0.0,7931.0,-437.0,948.0,-77.0,64.0,-703.0,673.0,44.0,-220.0,0.977605,-0.061187,0.201592,15940.0,-820.0,1890.0,10.0,37.0,22.0
2879.0,2768.0,2830.0,3063.0,3039.0,0.774902,-0.02655,-0.631348,0.01593,0.0,2.0,0.0,7883.0,-419.0,909.0,-125.0,82.0,-741.0,701.0,58.0,-276.0,0.97762,-0.061263,0.201423,15376.0,-698.0,1560.0,11.0,52.0,16.0
2896.0,2768.0,2838.0,3059.0,3035.0,0.774536,-0.026306,-0.631775,0.016052,1.0,-1.0,-1.0,7742.0,-453.0,843.0,-268.0,46.0,-798.0,728.0,14.0,-424.0,0.97782,-0.061033,0.200332,15440.0,-988.0,1656.0,43.0,-11.0,-13.0
2887.0,2765.0,2853.0,3045.0,3051.0,0.774292,-0.026062,-0.63208,0.016174,2.0,-1.0,-1.0,7768.0,-411.0,868.0,-243.0,87.0,-767.0,703.0,57.0,-396.0,0.977986,-0.060806,0.199585,15726.0,-478.0,1918.0,51.0,-18.0,-2.0
2903.0,2749.0,2831.0,3063.0,3039.0,0.773804,-0.026062,-0.632629,0.016174,-2.0,-1.0,1.0,7802.0,-340.0,919.0,-211.0,158.0,-704.0,649.0,131.0,-355.0,0.978219,-0.060798,0.198135,15742.0,-710.0,1964.0,-33.0,-11.0,28.0
2893.0,2754.0,2843.0,3057.0,3063.0,0.773621,-0.026245,-0.632935,0.016113,-2.0,-1.0,1.0,7830.0,-377.0,918.0,-185.0,122.0,-699.0,649.0,96.0,-326.0,0.978457,-0.061005,0.197454,15850.0,-1026.0,1778.0,-26.0,-8.0,29.0
2883.0,2755.0,2839.0,3056.0,3039.0,0.773254,-0.026428,-0.633301,0.016357,0.0,1.0,1.0,7927.0,-415.0,914.0,-89.0,89.0,-695.0,664.0,69.0,-229.0,0.978541,-0.06159,0.196422,16176.0,-834.0,1764.0,12.0,31.0,23.0
2895.0,2761.0,2847.0,3047.0,3027.0,0.773193,-0.026428,-0.633362,0.016418,0.0,2.0,0.0,7914.0,-434.0,880.0,-102.0,71.0,-727.0,693.0,50.0,-246.0,0.978554,-0.061666,0.196252,15584.0,-1036.0,1502.0,9.0,62.0,20.0
2899.0,2751.0,2812.0,3047.0,3029.0,0.77301,-0.026489,-0.633606,0.016724,0.0,0.0,0.0,7743.0,-497.0,782.0,-274.0,12.0,-820.0,750.0,-20.0,-429.0,0.978682,-0.062145,0.195666,14992.0,-1160.0,1322.0,22.0,14.0,12.0
2893.0,2763.0,2850.0,3057.0,3039.0,0.772705,-0.026489,-0.633972,0.016846,1.0,-2.0,0.0,7716.0,-500.0,787.0,-302.0,10.0,-808.0,733.0,-23.0,-453.0,0.978855,-0.062296,0.194735,15390.0,-992.0,1656.0,25.0,-25.0,12.0
2868.0,2756.0,2859.0,3071.0,3059.0,0.772217,-0.026611,-0.634583,0.016968,-2.0,0.0,1.0,7839.0,-471.0,864.0,-182.0,42.0,-718.0,669.0,16.0,-319.0,0.979167,-0.062634,0.193204,16110.0,-844.0,1946.0,-23.0,1.0,24.0
2896.0,2759.0,2839.0,3071.0,3071.0,0.772095,-0.026855,-0.634705,0.016907,-2.0,1.0,0.0,7872.0,-479.0,891.0,-149.0,36.0,-688.0,646.0,13.0,-280.0,0.979196,-0.062932,0.192845,15860.0,-1080.0,1914.0,-43.0,33.0,21.0
2879.0,2758.0,2830.0,3055.0,3027.0,0.771973,-0.027283,-0.634888,0.016785,-2.0,1.0,0.0,7855.0,-546.0,897.0,-167.0,-26.0,-679.0,633.0,-50.0,-292.0,0.979316,-0.063436,0.192397,15782.0,-1278.0,1810.0,-31.0,32.0,5.0
2897.0,2766.0,2839.0,3059.0,3047.0,0.771912,-0.027466,-0.634949,0.016724,-1.0,1.0,0.0,7883.0,-574.0,908.0,-139.0,-52.0,-666.0,626.0,-74.0,-260.0,0.97933,-0.06364,0.192213,15934.0,-1334.0,1876.0,-18.0,44.0,0.0
2897.0,2769.0,2831.0,3071.0,3054.0,0.771912,-0.027588,-0.634949,0.016663,-1.0,1.0,-1.0,7780.0,-571.0,878.0,-242.0,-48.0,-696.0,635.0,-77.0,-367.0,0.979329,-0.063751,0.192204,15034.0,-1082.0,1618.0,-8.0,43.0,-9.0
2895.0,2767.0,2832.0,3059.0,3055.0,0.771729,-0.027588,-0.635132,0.016602,-1.0,-1.0,-1.0,7714.0,-580.0,870.0,-309.0,-58.0,-700.0,626.0,-91.0,-433.0,0.979383,-0.063669,0.191687,15094.0,-1216.0,1688.0,-12.0,-6.0,-11.0
2891.0,2759.0,2833.0,3067.0,3023.0,0.771057,-0.02771,-0.635925,0.016602,0.0,-3.0,-1.0,7761.0,-585.0,917.0,-265.0,-61.0,-636.0,573.0,-90.0,-376.0,0.979749,-0.063847,0.189636,15740.0,-1084.0,1964.0,8.0,-50.0,-1.0
2882.0,2765.0,2839.0,3063.0,3039.0,0.770752,-0.027649,-0.636292,0.016663,-1.0,-2.0,0.0,7811.0,-552.0,946.0,-216.0,-29.0,-599.0,546.0,-54.0,-322.0,0.979924,-0.063825,0.188705,15932.0,-892.0,2036.0,0.0,-45.0,0.0
2880.0,2766.0,2833.0,3063.0,3043.0,0.770203,-0.027893,-0.636963,0.016541,-2.0,-1.0,0.0,7868.0,-511.0,939.0,-162.0,13.0,-592.0,551.0,-9.0,-270.0,0.980258,-0.064038,0.186986,15762.0,-962.0,1782.0,-33.0,-21.0,14.0
2879.0,2766.0,2832.0,3039.0,3051.0,0.77002,-0.028076,-0.637207,0.016479,-2.0,-1.0,0.0,7876.0,-510.0,923.0,-155.0,16.0,-603.0,563.0,-6.0,-265.0,0.980398,-0.06424,0.186381,15804.0,-1046.0,1734.0,-34.0,-7.0,13.0
2879.0,2743.0,2838.0,3061.0,3023.0,0.769653,-0.028381,-0.637634,0.016296,-2.0,0.0,0.0,7814.0,-514.0,834.0,-218.0,14.0,-683.0,630.0,-15.0,-341.0,0.98059,-0.06447,0.185249,15300.0,-1064.0,1348.0,-27.0,11.0,1.0
2883.0,2759.0,2837.0,3055.0,3047.0,0.769409,-0.028442,-0.637939,0.016235,-1.0,-1.0,-1.0,7758.0,-524.0,799.0,-276.0,4.0,-712.0,648.0,-29.0,-402.0,0.980749,-0.064482,0.184478,15224.0,-1112.0,1424.0,-20.0,-11.0,-2.0
2887.0,2759.0,2837.0,3057.0,3051.0,0.768799,-0.028625,-0.638672,0.016174,-1.0,-2.0,0.0,7774.0,-541.0,795.0,-263.0,-11.0,-700.0,639.0,-43.0,-385.0,0.981094,-0.064675,0.182592,15786.0,-1140.0,1738.0,-6.0,-31.0,4.0
2883.0,2756.0,2835.0,3057.0,3051.0,0.768494,-0.028687,-0.638977,0.016235,0.0,-1.0,0.0,7798.0,-541.0,807.0,-239.0,-9.0,-681.0,625.0,-39.0,-357.0,0.981168,-0.064839,0.181732,15688.0,-1050.0,1660.0,2.0,-15.0,12.0
2882.0,2757.0,2832.0,3067.0,3039.0,0.768066,-0.028748,-0.639526,0.016418,0.0,-1.0,0.0,7809.0,-526.0,846.0,-231.0,7.0,-631.0,578.0,-21.0,-340.0,0.981453,-0.06516,0.180375,15706.0,-954.0,1820.0,13.0,-22.0,17.0
2893.0,2765.0,2835.0,3071.0,3039.0,0.767822,-0.028748,-0.639771,0.016541,0.0,-1.0,1.0,7852.0,-497.0,870.0,-188.0,38.0,-602.0,558.0,12.0,-295.0,0.981509,-0.06531,0.179692,15994.0,-798.0,1934.0,5.0,-16.0,26.0
2885.0,2763.0,2842.0,3069.0,3039.0,0.767639,-0.029053,-0.640015,0.016541,-2.0,1.0,1.0,7915.0,-475.0,897.0,-126.0,63.0,-570.0,538.0,41.0,-229.0,0.98164,-0.065776,0.179081,15818.0,-1050.0,1720.0,-32.0,38.0,33.0
2890.0,2762.0,2838.0,3066.0,3039.0,0.767578,-0.029297,-0.640015,0.016602,-1.0,1.0,1.0,7869.0,-513.0,875.0,-171.0,29.0,-591.0,550.0,4.0,-275.0,0.98155,-0.066226,0.178975,15372.0,-1248.0,1594.0,-19.0,44.0,28.0
2879.0,2749.0,2835.0,3061.0,3046.0,0.767334,-0.029419,-0.640381,0.016846,1.0,-1.0,0.0,7756.0,-540.0,863.0,-286.0,6.0,-596.0,535.0,-26.0,-387.0,0.981781,-0.066724,0.178132,15442.0,-1050.0,1850.0,24.0,-14.0,13.0
2885.0,2761.0,2842.0,3063.0,3047.0,0.767151,-0.029358,-0.640625,0.016968,0.0,-1.0,0.0,7789.0,-537.0,899.0,-254.0,10.0,-555.0,500.0,-19.0,-348.0,0.981916,-0.066784,0.177546,15816.0,-1062.0,2028.0,20.0,-19.0,18.0
2895.0,2767.0,2845.0,3059.0,3039.0,0.766785,-0.02948,-0.640991,0.017273,0.0,-1.0,1.0,7802.0,-557.0,916.0,-242.0,-5.0,-530.0,478.0,-32.0,-330.0,0.981986,-0.067353,0.176518,15492.0,-1224.0,1776.0,2.0,-9.0,24.0
2883.0,2751.0,2833.0,3063.0,3039.0,0.766541,-0.029602,-0.641235,0.017395,0.0,-2.0,0.0,7796.0,-582.0,910.0,-248.0,-27.0,-530.0,477.0,-55.0,-334.0,0.982036,-0.067691,0.175828,15612.0,-1288.0,1836.0,4.0,-29.0,18.0
2903.0,2751.0,2827.0,3055.0,3045.0,0.765991,-0.029663,-0.641907,0.0177,0.0,-2.0,0.0,7831.0,-623.0,920.0,-216.0,-64.0,-506.0,459.0,-89.0,-295.0,0.98234,-0.068167,0.174132,15840.0,-1248.0,1928.0,22.0,-41.0,19.0
2890.0,2767.0,2843.0,3063.0,3053.0,0.765747,-0.029724,-0.642212,0.017883,0.0,-2.0,0.0,7849.0,-605.0,929.0,-199.0,-43.0,-491.0,448.0,-67.0,-277.0,0.982481,-0.068492,0.173369,15764.0,-1078.0,1850.0,13.0,-32.0,14.0
2886.0,2765.0,2843.0,3061.0,3047.0,0.76532,-0.029785,-0.642761,0.017944,0.0,-1.0,-1.0,7874.0,-619.0,924.0,-176.0,-56.0,-485.0,446.0,-78.0,-252.0,0.982767,-0.068658,0.172007,15804.0,-1192.0,1866.0,6.0,-17.0,-3.0
2883.0,2751.0,2832.0,3053.0,3047.0,0.765137,-0.029724,-0.642944,0.017944,0.0,-1.0,-1.0,7871.0,-598.0,919.0,-180.0,-36.0,-485.0,446.0,-58.0,-257.0,0.982814,-0.06856,0.171495,15722.0,-1086.0,1800.0,6.0,-10.0,-17.0
2887.0,2759.0,2835.0,3062.0,3039.0,0.764709,-0.029602,-0.643433,0.017761,-1.0,-1.0,-1.0,7833.0,-603.0,876.0,-219.0,-44.0,-518.0,472.0,-69.0,-300.0,0.983027,-0.06813,0.170214,15572.0,-1212.0,1608.0,-6.0,-22.0,-22.0
2864.0,2766.0,2841.0,3067.0,3047.0,0.764465,-0.029602,-0.643738,0.017639,-1.0,-2.0,-2.0,7821.0,-598.0,868.0,-233.0,-41.0,-520.0,472.0,-67.0,-314.0,0.983186,-0.067969,0.169444,15560.0,-1144.0,1686.0,-6.0,-26.0,-27.0
2891.0,2766.0,2839.0,3067.0,3055.0,0.763916,-0.02948,-0.644348,0.017334,-1.0,-2.0,-2.0,7808.0,-597.0,844.0,-248.0,-45.0,-530.0,479.0,-72.0,-329.0,0.983434,-0.067379,0.167815,15606.0,-1214.0,1640.0,-16.0,-32.0,-34.0
2885.0,2753.0,2827.0,3062.0,3043.0,0.763672,-0.02948,-0.644714,0.017151,-1.0,-2.0,-2.0,7819.0,-588.0,843.0,-239.0,-37.0,-524.0,475.0,-64.0,-320.0,0.983689,-0.067141,0.166963,15762.0,-1104.0,1738.0,-18.0,-30.0,-33.0
2885.0,2757.0,2835.0,3059.0,3043.0,0.763306,-0.02948,-0.645142,0.016602,-2.0,0.0,-2.0,7837.0,-554.0,830.0,-223.0,-9.0,-528.0,483.0,-35.0,-306.0,0.983902,-0.066425,0.165834,15604.0,-1166.0,1548.0,-44.0,1.0,-37.0
2893.0,2768.0,2832.0,3059.0,3039.0,0.763123,-0.029541,-0.645325,0.016357,-2.0,0.0,-2.0,7816.0,-560.0,818.0,-244.0,-17.0,-536.0,487.0,-45.0,-327.0,0.983957,-0.066199,0.165307,15514.0,-1100.0,1628.0,-29.0,1.0,-41.0
2894.0,2771.0,2834.0,3058.0,3037.0,0.762756,-0.029297,-0.645813,0.015991,0.0,-2.0,-2.0,7801.0,-541.0,836.0,-262.0,-5.0,-508.0,457.0,-33.0,-340.0,0.984259,-0.065347,0.16412,15626.0,-1082.0,1744.0,3.0,-27.0,-38.0
2887.0,2758.0,2835.0,3061.0,3031.0,0.762512,-0.029175,-0.646118,0.01593,0.0,-2.0,-2.0,7798.0,-534.0,849.0,-266.0,0.0,-489.0,438.0,-28.0,-341.0,0.984416,-0.065078,0.163359,15558.0,-1024.0,1760.0,22.0,-36.0,-23.0
2883.0,2755.0,2832.0,3055.0,3047.0,0.761902,-0.028809,-0.646851,0.016113,1.0,-3.0,0.0,7814.0,-443.0,897.0,-253.0,87.0,-426.0,380.0,61.0,-323.0,0.984745,-0.064744,0.161508,15736.0,-524.0,1920.0,34.0,-67.0,5.0
2890.0,2765.0,2830.0,3063.0,3047.0,0.761597,-0.028625,-0.647217,0.016113,0.0,-3.0,0.0,7843.0,-389.0,910.0,-225.0,139.0,-405.0,364.0,115.0,-295.0,0.984914,-0.06446,0.16058,15868.0,-480.0,1884.0,13.0,-67.0,9.0
2887.0,2763.0,2837.0,3059.0,3039.0,0.761047,-0.028625,-0.647888,0.01593,-1.0,-1.0,-1.0,7896.0,-375.0,864.0,-175.0,151.0,-437.0,405.0,129.0,-251.0,0.985235,-0.064213,0.158868,15878.0,-848.0,1470.0,-19.0,-19.0,-4.0
2887.0,2754.0,2832.0,3059.0,3047.0,0.760864,-0.028625,-0.648071,0.015808,-1.0,0.0,-1.0,7897.0,-400.0,803.0,-174.0,124.0,-494.0,461.0,101.0,-257.0,0.985284,-0.06405,0.158348,15768.0,-962.0,1224.0,-19.0,16.0,-9.0
2887.0,2759.0,2833.0,3056.0,3045.0,0.760803,-0.028748,-0.648132,0.015503,-2.0,2.0,-1.0,7826.0,-439.0,689.0,-245.0,83.0,-606.0,560.0,53.0,-342.0,0.985311,-0.063838,0.15816,15320.0,-1082.0,1058.0,-26.0,64.0,-11.0
2893.0,2761.0,2843.0,3067.0,3051.0,0.760803,-0.028809,-0.648132,0.015442,-1.0,2.0,-1.0,7758.0,-479.0,639.0,-313.0,44.0,-656.0,598.0,9.0,-414.0,0.985313,-0.063852,0.158155,15120.0,-1206.0,1000.0,-16.0,57.0,-11.0
2887.0,2765.0,2835.0,3061.0,3051.0,0.76062,-0.02887,-0.648376,0.015442,0.0,0.0,0.0,7764.0,-494.0,663.0,-308.0,29.0,-627.0,570.0,-4.0,-404.0,0.985445,-0.063942,0.157556,15874.0,-810.0,1586.0,9.0,14.0,4.0
2885.0,2750.0,2833.0,3059.0,3041.0,0.760559,-0.02887,-0.648438,0.015442,-1.0,1.0,0.0,7839.0,-462.0,728.0,-233.0,61.0,-561.0,517.0,33.0,-321.0,0.985458,-0.06394,0.157384,16108.0,-734.0,1846.0,-15.0,28.0,15.0
2893.0,2765.0,2833.0,3054.0,3047.0,0.76062,-0.029236,-0.648376,0.01532,-2.0,1.0,1.0,7882.0,-469.0,817.0,-190.0,58.0,-473.0,437.0,34.0,-265.0,0.985441,-0.064341,0.157531,15864.0,-1072.0,1898.0,-29.0,45.0,25.0
2887.0,2763.0,2849.0,3067.0,3035.0,0.760681,-0.029419,-0.648254,0.015381,-1.0,2.0,1.0,7897.0,-483.0,855.0,-174.0,47.0,-437.0,404.0,25.0,-243.0,0.985325,-0.064698,0.157773,15904.0,-1026.0,1960.0,-7.0,52.0,23.0
2895.0,2763.0,2837.0,3059.0,3043.0,0.760986,-0.02948,-0.647949,0.015503,0.0,3.0,0.0,7877.0,-465.0,877.0,-194.0,67.0,-422.0,386.0,44.0,-262.0,0.985247,-0.064958,0.158633,15536.0,-828.0,1728.0,8.0,74.0,19.0
2887.0,2755.0,2833.0,3063.0,3035.0,0.761047,-0.02948,-0.647827,0.015564,0.0,2.0,0.0,7829.0,-475.0,863.0,-241.0,57.0,-438.0,394.0,31.0,-310.0,0.985137,-0.065037,0.158886,15406.0,-1054.0,1658.0,2.0,63.0,18.0
2890.0,2759.0,2839.0,3055.0,3054.0,0.761108,-0.029602,-0.647705,0.015686,0.0,1.0,0.0,7762.0,-477.0,867.0,-307.0,58.0,-436.0,381.0,27.0,-375.0,0.985019,-0.065381,0.159134,15444.0,-910.0,1794.0,5.0,32.0,11.0
2890.0,2759.0,2835.0,3071.0,3047.0,0.761108,-0.029602,-0.647766,0.015686,-1.0,1.0,0.0,7781.0,-473.0,881.0,-289.0,62.0,-421.0,370.0,33.0,-355.0,0.985112,-0.065383,0.159055,15744.0,-968.0,1840.0,-10.0,24.0,11.0
2897.0,2767.0,2842.0,3059.0,3050.0,0.761108,-0.029907,-0.647705,0.015686,-2.0,1.0,0.0,7830.0,-494.0,908.0,-239.0,45.0,-395.0,352.0,19.0,-301.0,0.985009,-0.065845,0.159116,15792.0,-1016.0,1892.0,-24.0,39.0,16.0
2886.0,2766.0,2838.0,3058.0,3045.0,0.761169,-0.030029,-0.647644,0.015625,-1.0,1.0,0.0,7828.0,-511.0,906.0,-241.0,29.0,-398.0,354.0,3.0,-302.0,0.984995,-0.065954,0.159278,15608.0,-1132.0,1794.0,-21.0,45.0,11.0
2881.0,2763.0,2835.0,3063.0,3046.0,0.761169,-0.030212,-0.647644,0.015686,0.0,1.0,0.0,7800.0,-538.0,895.0,-269.0,5.0,-409.0,360.0,-22.0,-330.0,0.984986,-0.066311,0.159269,15506.0,-1084.0,1742.0,5.0,29.0,4.0
2896.0,2767.0,2834.0,3047.0,3057.0,0.761108,-0.030151,-0.647705,0.015747,0.0,0.0,0.0,7797.0,-540.0,892.0,-272.0,3.0,-411.0,362.0,-24.0,-333.0,0.984998,-0.066296,0.159103,15574.0,-1068.0,1802.0,12.0,15.0,4.0
2891.0,2759.0,2839.0,3069.0,3047.0,0.760925,-0.030151,-0.647949,0.015869,0.0,-1.0,0.0,7768.0,-501.0,927.0,-302.0,43.0,-371.0,318.0,14.0,-359.0,0.985125,-0.066451,0.158512,15474.0,-846.0,2026.0,1.0,-13.0,11.0
2894.0,2765.0,2833.0,3059.0,3051.0,0.760803,-0.030212,-0.648132,0.015808,-1.0,-2.0,0.0,7784.0,-486.0,957.0,-287.0,58.0,-338.0,288.0,31.0,-340.0,0.985247,-0.066463,0.158083,15718.0,-940.0,2078.0,-12.0,-30.0,11.0
2880.0,2757.0,2837.0,3069.0,3039.0,0.760498,-0.030396,-0.648438,0.015808,-1.0,-1.0,0.0,7846.0,-487.0,979.0,-225.0,59.0,-308.0,269.0,36.0,-274.0,0.98531,-0.066733,0.157212,15778.0,-986.0,1920.0,-21.0,-12.0,18.0
2895.0,2759.0,2835.0,3061.0,3039.0,0.760376,-0.030579,-0.64856,0.015808,-1.0,-1.0,0.0,7849.0,-501.0,957.0,-222.0,47.0,-327.0,288.0,24.0,-273.0,0.985331,-0.067007,0.156857,15700.0,-1096.0,1770.0,-16.0,-4.0,17.0
2879.0,2762.0,2842.0,3051.0,3029.0,0.760132,-0.03064,-0.648865,0.015869,0.0,-1.0,0.0,7815.0,-516.0,896.0,-257.0,34.0,-382.0,337.0,7.0,-315.0,0.985473,-0.067174,0.156088,15404.0,-1092.0,1574.0,8.0,-1.0,8.0
2895.0,2763.0,2847.0,3067.0,3039.0,0.759949,-0.03064,-0.649048,0.015991,0.0,-1.0,0.0,7764.0,-537.0,864.0,-309.0,14.0,-410.0,356.0,-16.0,-369.0,0.985506,-0.067327,0.155576,15240.0,-1238.0,1542.0,16.0,-17.0,6.0
2883.0,2763.0,2846.0,3057.0,3039.0,0.759399,-0.030579,-0.649719,0.016418,1.0,-3.0,1.0,7754.0,-546.0,867.0,-321.0,9.0,-393.0,338.0,-21.0,-377.0,0.985789,-0.067778,0.153887,15654.0,-974.0,1854.0,36.0,-63.0,30.0
2887.0,2767.0,2837.0,3071.0,3047.0,0.759033,-0.030579,-0.650085,0.016663,1.0,-3.0,1.0,7789.0,-526.0,894.0,-287.0,31.0,-358.0,309.0,3.0,-339.0,0.985854,-0.068085,0.152863,15780.0,-914.0,1942.0,25.0,-67.0,39.0
2877.0,2765.0,2831.0,3070.0,3045.0,0.758545,-0.030701,-0.650635,0.016968,0.0,-2.0,1.0,7889.0,-501.0,941.0,-188.0,61.0,-299.0,267.0,41.0,-234.0,0.98603,-0.068655,0.15141,16122.0,-940.0,1970.0,2.0,-34.0,30.0
2896.0,2753.0,2833.0,3063.0,3047.0,0.758423,-0.030762,-0.650757,0.017029,-1.0,0.0,0.0,7941.0,-506.0,939.0,-136.0,57.0,-298.0,274.0,40.0,-183.0,0.98605,-0.068824,0.151064,16176.0,-1084.0,1840.0,-4.0,6.0,18.0
2883.0,2750.0,2838.0,3063.0,3047.0,0.758545,-0.030884,-0.650635,0.016968,-1.0,2.0,-1.0,7876.0,-525.0,855.0,-201.0,39.0,-385.0,350.0,16.0,-259.0,0.986023,-0.068933,0.151399,15206.0,-1172.0,1306.0,-14.0,63.0,-2.0
2896.0,2751.0,2839.0,3050.0,3029.0,0.758545,-0.030945,-0.650635,0.016907,-1.0,1.0,-1.0,7790.0,-563.0,810.0,-287.0,1.0,-430.0,381.0,-28.0,-348.0,0.986025,-0.068946,0.151393,15110.0,-1374.0,1376.0,-5.0,40.0,-15.0
2896.0,2763.0,2834.0,3055.0,3051.0,0.758301,-0.030823,-0.65094,0.016846,0.0,-1.0,-1.0,7714.0,-565.0,790.0,-364.0,-2.0,-443.0,382.0,-36.0,-425.0,0.986178,-0.068677,0.150631,15410.0,-1062.0,1660.0,7.0,-18.0,-14.0
2881.0,2767.0,2832.0,3071.0,3043.0,0.758118,-0.030762,-0.651184,0.016846,0.0,-2.0,-1.0,7743.0,-550.0,818.0,-336.0,11.0,-411.0,355.0,-21.0,-393.0,0.986312,-0.068581,0.150039,15724.0,-1000.0,1864.0,1.0,-30.0,-3.0
2879.0,2755.0,2831.0,3057.0,3057.0,0.757812,-0.030823,-0.651489,0.016846,-1.0,-1.0,0.0,7855.0,-505.0,905.0,-225.0,57.0,-317.0,280.0,34.0,-273.0,0.986375,-0.068665,0.149175,16034.0,-918.0,2060.0,-6.0,-8.0,11.0
2901.0,2774.0,2821.0,3089.0,3059.0,0.757812,-0.030823,-0.65155,0.016846,-1.0,0.0,0.0,7890.0,-499.0,925.0,-191.0,63.0,-296.0,264.0,42.0,-236.0,0.986467,-0.068667,0.149096,15956.0,-948.0,1970.0,-2.0,7.0,14.0
2901.0,2759.0,2834.0,3071.0,3023.0,0.757812,-0.030945,-0.65155,0.016785,-1.0,1.0,0.0,7899.0,-442.0,914.0,-182.0,121.0,-307.0,277.0,101.0,-233.0,0.986467,-0.068773,0.149086,15722.0,-826.0,1674.0,-20.0,35.0,20.0
2878.0,2768.0,2843.0,3059.0,3039.0,0.757812,-0.031067,-0.651489,0.016785,-2.0,1.0,0.0,7871.0,-460.0,873.0,-209.0,104.0,-348.0,314.0,81.0,-265.0,0.986371,-0.068956,0.149158,15560.0,-1060.0,1456.0,-25.0,45.0,20.0
2893.0,2755.0,2833.0,3071.0,3015.0,0.757874,-0.031372,-0.651428,0.016785,-1.0,1.0,0.0,7755.0,-525.0,777.0,-325.0,43.0,-446.0,392.0,9.0,-390.0,0.986347,-0.06942,0.149311,15136.0,-1238.0,1344.0,-3.0,40.0,12.0
2902.0,2771.0,2839.0,3071.0,3045.0,0.757812,-0.031433,-0.651489,0.016846,0.0,1.0,0.0,7718.0,-539.0,765.0,-362.0,31.0,-456.0,396.0,-4.0,-427.0,0.986354,-0.06959,0.149137,15286.0,-1094.0,1508.0,5.0,25.0,6.0
2886.0,2751.0,2831.0,3055.0,3071.0,0.75769,-0.031555,-0.651611,0.016907,-1.0,0.0,1.0,7774.0,-544.0,808.0,-306.0,28.0,-410.0,359.0,-3.0,-364.0,0.986372,-0.069851,0.148788,15842.0,-1058.0,1854.0,-14.0,19.0,23.0
2902.0,2769.0,2855.0,3063.0,3043.0,0.757751,-0.031738,-0.65155,0.016968,-2.0,1.0,1.0,7817.0,-535.0,847.0,-263.0,40.0,-373.0,329.0,12.0,-317.0,0.986349,-0.07021,0.14895,15862.0,-1020.0,1882.0,-31.0,35.0,34.0
2887.0,2769.0,2826.0,3071.0,3043.0,0.757935,-0.032349,-0.651306,0.016968,-2.0,2.0,1.0,7877.0,-570.0,906.0,-201.0,12.0,-318.0,284.0,-10.0,-246.0,0.986197,-0.071139,0.149507,15922.0,-1250.0,1952.0,-34.0,62.0,34.0
2885.0,2751.0,2815.0,3059.0,3071.0,0.758057,-0.032593,-0.651123,0.017029,-1.0,3.0,1.0,7869.0,-587.0,911.0,-208.0,0.0,-317.0,281.0,-22.0,-252.0,0.986066,-0.07159,0.149916,15594.0,-1270.0,1816.0,-14.0,75.0,29.0
2887.0,2747.0,2811.0,3057.0,3035.0,0.758301,-0.032715,-0.650879,0.017212,0.0,1.0,0.0,7753.0,-604.0,909.0,-324.0,-14.0,-324.0,270.0,-45.0,-367.0,0.985998,-0.072021,0.150603,15182.0,-1246.0,1946.0,16.0,27.0,14.0
2910.0,2767.0,2827.0,3051.0,3051.0,0.75824,-0.032715,-0.65094,0.017334,1.0,-1.0,0.0,7757.0,-589.0,945.0,-320.0,2.0,-287.0,235.0,-27.0,-358.0,0.986003,-0.072178,0.150435,15682.0,-1026.0,2132.0,26.0,-5.0,13.0
2897.0,2767.0,2846.0,3071.0,3022.0,0.758118,-0.032715,-0.651062,0.017456,-1.0,-1.0,1.0,7804.0,-535.0,977.0,-273.0,57.0,-252.0,208.0,31.0,-311.0,0.986021,-0.072333,0.150095,15630.0,-1064.0,1986.0,-18.0,-1.0,25.0
2896.0,2768.0,2815.0,3063.0,3055.0,0.757996,-0.032959,-0.651184,0.017456,-2.0,-1.0,1.0,7801.0,-545.0,978.0,-276.0,50.0,-248.0,204.0,23.0,-312.0,0.986039,-0.0727,0.149735,15566.0,-1162.0,1932.0,-28.0,-8.0,24.0
2879.0,2768.0,2843.0,3062.0,3027.0,0.757812,-0.033203,-0.651428,0.017517,-1.0,-1.0,0.0,7829.0,-587.0,960.0,-249.0,12.0,-261.0,220.0,-12.0,-285.0,0.986158,-0.073146,0.149125,15820.0,-1224.0,1906.0,-5.0,-5.0,14.0
2896.0,2781.0,2831.0,3063.0,3031.0,0.757751,-0.033264,-0.651489,0.017517,-1.0,0.0,0.0,7846.0,-572.0,952.0,-232.0,27.0,-268.0,230.0,3.0,-270.0,0.986169,-0.073236,0.148949,15768.0,-1036.0,1846.0,-4.0,13.0,6.0
2867.0,2746.0,2837.0,3047.0,3051.0,0.757751,-0.033447,-0.651489,0.017395,-1.0,1.0,-1.0,7814.0,-597.0,906.0,-264.0,3.0,-314.0,270.0,-24.0,-307.0,0.98617,-0.073355,0.148933,15378.0,-1352.0,1658.0,-20.0,32.0,-2.0
2899.0,2767.0,2851.0,3055.0,3030.0,0.75769,-0.033508,-0.651489,0.017395,-1.0,0.0,-1.0,7770.0,-608.0,886.0,-308.0,-6.0,-333.0,282.0,-36.0,-352.0,0.986089,-0.073443,0.148836,15286.0,-1240.0,1670.0,-11.0,18.0,-6.0
2867.0,2754.0,2798.0,3087.0,3029.0,0.757507,-0.033569,-0.651733,0.017212,-1.0,-1.0,-1.0,7799.0,-583.0,919.0,-280.0,17.0,-295.0,249.0,-10.0,-321.0,0.98623,-0.073293,0.14823,15814.0,-1092.0,2006.0,-20.0,-8.0,-3.0
2879.0,2767.0,2832.0,3045.0,3038.0,0.757446,-0.033691,-0.651794,0.01709,-2.0,0.0,0.0,7835.0,-556.0,956.0,-244.0,44.0,-256.0,217.0,19.0,-281.0,0.986247,-0.073317,0.148046,15894.0,-928.0,2120.0,-34.0,4.0,5.0
2899.0,2767.0,2845.0,3056.0,3057.0,0.757507,-0.033997,-0.651733,0.016724,-3.0,1.0,-1.0,7869.0,-532.0,990.0,-210.0,68.0,-223.0,190.0,46.0,-245.0,0.986249,-0.073304,0.148185,15808.0,-1100.0,2118.0,-46.0,32.0,-11.0
2895.0,2758.0,2864.0,3059.0,3047.0,0.757629,-0.034058,-0.651611,0.016479,-2.0,1.0,-1.0,7880.0,-541.0,998.0,-199.0,57.0,-218.0,186.0,36.0,-232.0,0.986237,-0.073083,0.148517,15826.0,-1140.0,1996.0,-35.0,44.0,-21.0
2895.0,2738.0,2809.0,3063.0,3037.0,0.757874,-0.03418,-0.651306,0.016174,-1.0,2.0,-1.0,7841.0,-563.0,961.0,-237.0,34.0,-261.0,222.0,9.0,-275.0,0.98611,-0.072877,0.149266,15398.0,-1196.0,1744.0,-19.0,58.0,-11.0
2881.0,2754.0,2853.0,3055.0,3051.0,0.757935,-0.03418,-0.651245,0.016113,-1.0,1.0,-1.0,7794.0,-595.0,938.0,-284.0,1.0,-286.0,239.0,-27.0,-322.0,0.986101,-0.072799,0.149436,15304.0,-1378.0,1728.0,-7.0,42.0,-5.0
2901.0,2751.0,2831.0,3057.0,3059.0,0.757874,-0.03418,-0.651306,0.016235,0.0,-1.0,0.0,7740.0,-607.0,918.0,-338.0,-9.0,-304.0,249.0,-41.0,-378.0,0.986106,-0.072956,0.149268,15464.0,-1124.0,1902.0,22.0,0.0,0.0
2891.0,2743.0,2829.0,3067.0,3029.0,0.757751,-0.034058,-0.651428,0.016296,0.0,-1.0,-1.0,7773.0,-582.0,949.0,-305.0,14.0,-271.0,222.0,-15.0,-342.0,0.986131,-0.072846,0.148934,15790.0,-1004.0,2086.0,13.0,-6.0,-5.0
2895.0,2759.0,2821.0,3069.0,3055.0,0.757751,-0.03418,-0.651428,0.016113,-2.0,0.0,0.0,7829.0,-557.0,984.0,-249.0,39.0,-235.0,195.0,14.0,-283.0,0.98614,-0.072793,0.14892,15756.0,-1062.0,1982.0,-32.0,17.0,1.0
2883.0,2769.0,2819.0,3039.0,3055.0,0.757751,-0.034302,-0.651428,0.015991,-2.0,1.0,0.0,7847.0,-560.0,986.0,-231.0,36.0,-233.0,196.0,12.0,-265.0,0.986144,-0.072819,0.148908,15852.0,-1146.0,2028.0,-38.0,26.0,1.0
2895.0,2747.0,2847.0,3071.0,3055.0,0.757996,-0.034607,-0.651123,0.015747,-2.0,3.0,0.0,7856.0,-559.0,965.0,-221.0,38.0,-260.0,224.0,14.0,-259.0,0.986007,-0.07297,0.149646,15436.0,-1076.0,1750.0,-35.0,72.0,6.0
2896.0,2759.0,2891.0,3071.0,3025.0,0.758118,-0.03479,-0.651001,0.015625,-2.0,2.0,0.0,7780.0,-554.0,926.0,-297.0,44.0,-302.0,254.0,13.0,-341.0,0.985983,-0.073094,0.149974,15098.0,-1090.0,1666.0,-41.0,57.0,7.0
2885.0,2755.0,2819.0,3063.0,3039.0,0.757935,-0.035034,-0.651184,0.015442,0.0,-2.0,-1.0,7679.0,-606.0,897.0,-398.0,-6.0,-327.0,262.0,-44.0,-440.0,0.986028,-0.073218,0.149435,15288.0,-1316.0,1836.0,1.0,-25.0,-7.0
2881.0,2751.0,2832.0,3063.0,3055.0,0.757751,-0.034912,-0.651428,0.015503,0.0,-2.0,-1.0,7701.0,-567.0,923.0,-377.0,31.0,-296.0,236.0,-4.0,-418.0,0.986159,-0.073107,0.14885,15600.0,-834.0,2036.0,20.0,-40.0,-8.0
2890.0,2754.0,2823.0,3071.0,3047.0,0.757446,-0.03479,-0.651794,0.015381,-1.0,-2.0,0.0,7780.0,-522.0,977.0,-300.0,73.0,-234.0,187.0,44.0,-335.0,0.986328,-0.072753,0.147915,15800.0,-1084.0,2088.0,-12.0,-29.0,0.0
2879.0,2751.0,2832.0,3059.0,3047.0,0.757263,-0.03479,-0.651978,0.015381,-1.0,-1.0,0.0,7814.0,-529.0,986.0,-266.0,66.0,-221.0,180.0,40.0,-299.0,0.986367,-0.072746,0.147399,15824.0,-1098.0,2010.0,-6.0,-18.0,9.0
2887.0,2769.0,2831.0,3058.0,3043.0,0.757263,-0.034851,-0.652039,0.015503,0.0,1.0,0.0,7857.0,-536.0,988.0,-223.0,62.0,-218.0,183.0,39.0,-256.0,0.986449,-0.073,0.147319,15670.0,-1074.0,1934.0,6.0,29.0,13.0
2894.0,2768.0,2839.0,3059.0,3037.0,0.757263,-0.034851,-0.651978,0.015503,0.0,1.0,0.0,7819.0,-543.0,962.0,-261.0,54.0,-245.0,204.0,27.0,-297.0,0.986357,-0.072998,0.147399,15348.0,-1144.0,1724.0,6.0,32.0,7.0
2895.0,2763.0,2843.0,3059.0,3056.0,0.757202,-0.034851,-0.6521,0.015686,0.0,-1.0,0.0,7737.0,-569.0,944.0,-343.0,30.0,-261.0,207.0,-2.0,-378.0,0.986449,-0.073236,0.147153,15306.0,-1134.0,1914.0,18.0,-15.0,10.0
2885.0,2758.0,2832.0,3063.0,3035.0,0.757019,-0.034851,-0.652283,0.015808,0.0,-2.0,0.0,7741.0,-554.0,966.0,-340.0,47.0,-235.0,182.0,15.0,-373.0,0.986479,-0.073389,0.14664,15592.0,-1028.0,2114.0,8.0,-39.0,17.0
2877.0,2757.0,2829.0,3071.0,3027.0,0.756714,-0.035095,-0.652588,0.015869,-1.0,-1.0,1.0,7828.0,-542.0,1004.0,-253.0,62.0,-190.0,151.0,37.0,-281.0,0.986531,-0.073826,0.145765,15834.0,-1070.0,1996.0,-22.0,-18.0,31.0
2896.0,2767.0,2832.0,3055.0,3057.0,0.756592,-0.035278,-0.65271,0.01593,-2.0,-1.0,1.0,7825.0,-576.0,985.0,-256.0,31.0,-206.0,166.0,6.0,-284.0,0.986546,-0.074178,0.14541,15608.0,-1432.0,1878.0,-28.0,-9.0,26.0
2891.0,2766.0,2850.0,3047.0,3047.0,0.75647,-0.035522,-0.652893,0.016113,0.0,0.0,0.0,7856.0,-635.0,970.0,-226.0,-22.0,-217.0,180.0,-45.0,-252.0,0.986643,-0.074784,0.144975,15912.0,-1280.0,1950.0,13.0,12.0,12.0
2891.0,2757.0,2851.0,3071.0,3027.0,0.756531,-0.035522,-0.652832,0.016235,0.0,1.0,0.0,7862.0,-638.0,962.0,-220.0,-24.0,-227.0,191.0,-46.0,-248.0,0.986622,-0.074946,0.145151,15688.0,-1284.0,1846.0,15.0,39.0,12.0
2881.0,2751.0,2833.0,3071.0,3047.0,0.756653,-0.035522,-0.652649,0.016418,0.0,1.0,0.0,7791.0,-665.0,927.0,-290.0,-49.0,-265.0,218.0,-78.0,-320.0,0.986491,-0.075187,0.145581,15286.0,-1440.0,1730.0,18.0,34.0,2.0
2879.0,2767.0,2845.0,3063.0,3039.0,0.756592,-0.035461,-0.652649,0.016541,1.0,0.0,-1.0,7758.0,-678.0,921.0,-322.0,-61.0,-270.0,218.0,-92.0,-352.0,0.986405,-0.07525,0.145497,15366.0,-1414.0,1840.0,27.0,3.0,-8.0
2879.0,2762.0,2837.0,3069.0,3039.0,0.756409,-0.035217,-0.652954,0.016602,0.0,-1.0,-1.0,7820.0,-649.0,954.0,-262.0,-34.0,-232.0,190.0,-59.0,-289.0,0.986631,-0.074957,0.14484,15976.0,-1242.0,2052.0,13.0,-20.0,-10.0
2891.0,2768.0,2827.0,3055.0,3029.0,0.756287,-0.035217,-0.653076,0.016602,-1.0,-1.0,-1.0,7861.0,-632.0,961.0,-221.0,-17.0,-222.0,186.0,-39.0,-248.0,0.986656,-0.074953,0.144496,15924.0,-1144.0,1948.0,-4.0,-10.0,-3.0
2893.0,2757.0,2831.0,3071.0,3045.0,0.756165,-0.035278,-0.653259,0.016479,-1.0,-1.0,-1.0,7853.0,-618.0,940.0,-230.0,-4.0,-240.0,203.0,-27.0,-261.0,0.98678,-0.074883,0.144064,15618.0,-1156.0,1798.0,-9.0,0.0,-7.0
2877.0,2757.0,2855.0,3046.0,3055.0,0.756104,-0.035217,-0.65332,0.016418,0.0,0.0,-1.0,7841.0,-607.0,937.0,-242.0,5.0,-241.0,203.0,-19.0,-273.0,0.986799,-0.074709,0.143894,15634.0,-1148.0,1898.0,4.0,3.0,-18.0
2886.0,2753.0,2851.0,3061.0,3071.0,0.756104,-0.034912,-0.653259,0.016296,0.0,1.0,-2.0,7815.0,-551.0,948.0,-268.0,55.0,-231.0,190.0,28.0,-301.0,0.986725,-0.074086,0.143992,15452.0,-864.0,1908.0,18.0,30.0,-25.0
2878.0,2757.0,2833.0,3063.0,3039.0,0.756165,-0.034729,-0.653198,0.016174,0.0,1.0,-1.0,7780.0,-491.0,955.0,-303.0,112.0,-226.0,181.0,83.0,-339.0,0.986727,-0.073652,0.144172,15376.0,-590.0,1964.0,9.0,32.0,-22.0
2864.0,2727.0,2843.0,3071.0,3015.0,0.756348,-0.034607,-0.653076,0.015747,-2.0,1.0,-1.0,7776.0,-441.0,979.0,-307.0,156.0,-205.0,161.0,127.0,-343.0,0.986815,-0.072918,0.144604,15532.0,-916.0,1968.0,-31.0,34.0,-10.0
2893.0,2759.0,2832.0,3063.0,3056.0,0.756409,-0.034668,-0.653015,0.015625,-1.0,1.0,-1.0,7759.0,-463.0,981.0,-324.0,133.0,-204.0,157.0,103.0,-358.0,0.986809,-0.072853,0.144768,15412.0,-1068.0,1986.0,-17.0,26.0,-2.0
2884.0,2751.0,2837.0,3059.0,3043.0,0.756348,-0.034546,-0.653076,0.015625,1.0,-1.0,-1.0,7778.0,-502.0,996.0,-306.0,93.0,-188.0,143.0,65.0,-335.0,0.986826,-0.072666,0.144604,15752.0,-1070.0,2078.0,27.0,-10.0,-2.0
2874.0,2755.0,2807.0,3051.0,3047.0,0.756287,-0.034363,-0.653137,0.015747,1.0,-1.0,0.0,7823.0,-500.0,1024.0,-261.0,94.0,-159.0,121.0,70.0,-287.0,0.986836,-0.072546,0.144448,15890.0,-978.0,2208.0,30.0,-3.0,3.0
2879.0,2763.0,2855.0,3057.0,3023.0,0.756409,-0.034241,-0.653015,0.015808,0.0,1.0,0.0,7810.0,-491.0,1045.0,-273.0,102.0,-141.0,101.0,78.0,-297.0,0.98681,-0.072446,0.144803,15430.0,-1020.0,2106.0,1.0,32.0,8.0
2881.0,2773.0,2863.0,3054.0,3023.0,0.75647,-0.034302,-0.652954,0.015808,-1.0,0.0,0.0,7779.0,-531.0,1030.0,-304.0,63.0,-157.0,111.0,37.0,-327.0,0.986796,-0.07254,0.144971,15380.0,-1364.0,1918.0,-16.0,18.0,10.0
2891.0,2768.0,2832.0,3067.0,3059.0,0.756348,-0.034546,-0.653076,0.015869,-1.0,-1.0,0.0,7758.0,-615.0,1012.0,-325.0,-17.0,-172.0,122.0,-44.0,-344.0,0.986809,-0.072985,0.144612,15540.0,-1466.0,1982.0,-6.0,-11.0,6.0
2895.0,2759.0,2831.0,3071.0,3035.0,0.756226,-0.034607,-0.653137,0.01593,0.0,-1.0,0.0,7775.0,-650.0,1012.0,-308.0,-50.0,-170.0,122.0,-76.0,-324.0,0.986736,-0.07315,0.144345,15688.0,-1498.0,2084.0,3.0,-10.0,3.0
2894.0,2751.0,2821.0,3055.0,3067.0,0.756104,-0.034546,-0.65332,0.016113,1.0,-1.0,-1.0,7774.0,-688.0,1000.0,-310.0,-87.0,-179.0,130.0,-113.0,-325.0,0.986842,-0.073295,0.143931,15524.0,-1488.0,1928.0,26.0,-11.0,-14.0
2879.0,2754.0,2847.0,3071.0,3047.0,0.756042,-0.034424,-0.653442,0.016235,1.0,-1.0,-1.0,7782.0,-680.0,999.0,-303.0,-79.0,-178.0,130.0,-105.0,-318.0,0.986943,-0.073269,0.143692,15652.0,-1252.0,2038.0,38.0,-21.0,-20.0
2896.0,2767.0,2839.0,3057.0,3063.0,0.75592,-0.033936,-0.653564,0.016296,1.0,0.0,-2.0,7855.0,-634.0,1009.0,-230.0,-39.0,-165.0,129.0,-59.0,-247.0,0.986979,-0.072607,0.143383,15918.0,-1058.0,2008.0,37.0,12.0,-26.0
2895.0,2768.0,2827.0,3058.0,3038.0,0.755981,-0.033691,-0.653503,0.016296,1.0,1.0,-2.0,7858.0,-597.0,999.0,-227.0,-5.0,-177.0,142.0,-25.0,-249.0,0.986975,-0.07224,0.143572,15640.0,-960.0,1916.0,35.0,40.0,-33.0
2885.0,2739.0,2832.0,3055.0,3051.0,0.756165,-0.033081,-0.65332,0.016113,1.0,1.0,-2.0,7802.0,-546.0,965.0,-283.0,36.0,-215.0,172.0,10.0,-312.0,0.986969,-0.071084,0.144123,15552.0,-940.0,1878.0,36.0,32.0,-37.0
2891.0,2759.0,2822.0,3071.0,3053.0,0.756226,-0.032837,-0.653259,0.016052,1.0,1.0,-2.0,7814.0,-524.0,961.0,-271.0,54.0,-221.0,180.0,29.0,-303.0,0.986969,-0.070637,0.144309,15726.0,-988.0,1902.0,25.0,30.0,-29.0
2883.0,2768.0,2827.0,3055.0,3031.0,0.756409,-0.03241,-0.653137,0.015991,1.0,1.0,-2.0,7795.0,-561.0,947.0,-290.0,11.0,-238.0,193.0,-15.0,-321.0,0.987041,-0.069919,0.144771,15452.0,-1340.0,1856.0,36.0,36.0,-39.0
2883.0,2747.0,2847.0,3051.0,3006.0,0.756409,-0.032104,-0.653137,0.015991,2.0,0.0,-3.0,7776.0,-586.0,940.0,-309.0,-17.0,-246.0,197.0,-44.0,-339.0,0.987051,-0.069457,0.144791,15484.0,-1298.0,1890.0,67.0,16.0,-54.0
2886.0,2765.0,2845.0,3059.0,3055.0,0.756409,-0.031067,-0.653198,0.016113,3.0,0.0,-3.0,7875.0,-551.0,1006.0,-211.0,6.0,-180.0,147.0,-12.0,-234.0,0.987168,-0.068049,0.144781,16166.0,-968.0,2314.0,71.0,14.0,-55.0
2885.0,2768.0,2855.0,3063.0,3043.0,0.756531,-0.03064,-0.653076,0.016052,2.0,1.0,-3.0,7905.0,-541.0,1022.0,-181.0,10.0,-167.0,138.0,-5.0,-203.0,0.987161,-0.067326,0.145149,15866.0,-1034.0,2108.0,53.0,44.0,-54.0
2889.0,2734.0,2843.0,3056.0,3025.0,0.756775,-0.029724,-0.652832,0.01593,3.0,1.0,-4.0,7819.0,-572.0,1009.0,-267.0,-33.0,-186.0,144.0,-54.0,-288.0,0.987147,-0.065788,0.145889,15406.0,-1256.0,2046.0,74.0,34.0,-73.0
2897.0,2751.0,2843.0,3063.0,3053.0,0.756836,-0.029175,-0.652771,0.015991,4.0,1.0,-4.0,7792.0,-570.0,1027.0,-294.0,-37.0,-169.0,123.0,-59.0,-312.0,0.987148,-0.065038,0.146095,15414.0,-1086.0,2164.0,95.0,25.0,-77.0
2895.0,2766.0,2839.0,3071.0,3057.0,0.757019,-0.027893,-0.652588,0.015991,3.0,0.0,-3.0,7759.0,-489.0,1095.0,-327.0,27.0,-106.0,56.0,4.0,-340.0,0.987151,-0.063103,0.146685,15356.0,-746.0,2360.0,80.0,19.0,-68.0
2888.0,2765.0,2835.0,3051.0,3027.0,0.75708,-0.027344,-0.652588,0.01593,2.0,-1.0,-3.0,7734.0,-475.0,1127.0,-353.0,34.0,-75.0,22.0,11.0,-361.0,0.987251,-0.062194,0.146805,15364.0,-912.0,2464.0,67.0,-4.0,-64.0
2885.0,2768.0,2845.0,3055.0,3047.0,0.756958,-0.026306,-0.65271,0.015991,3.0,-2.0,-3.0,7802.0,-450.0,1188.0,-286.0,47.0,-12.0,-29.0,29.0,-286.0,0.987307,-0.060701,0.146519,15920.0,-776.0,2480.0,78.0,-35.0,-48.0
2879.0,2751.0,2839.0,3071.0,3027.0,0.756897,-0.025818,-0.652832,0.016052,2.0,-2.0,-2.0,7836.0,-427.0,1195.0,-252.0,64.0,-3.0,-33.0,49.0,-253.0,0.987424,-0.060042,0.146294,15862.0,-760.0,2418.0,66.0,-33.0,-42.0
2881.0,2750.0,2845.0,3053.0,3043.0,0.756592,-0.025024,-0.653198,0.016113,2.0,-3.0,-2.0,7817.0,-440.0,1165.0,-273.0,42.0,-26.0,-13.0,25.0,-275.0,0.987602,-0.058917,0.145397,15590.0,-936.0,2246.0,64.0,-60.0,-43.0
2879.0,2763.0,2842.0,3071.0,3027.0,0.756348,-0.024536,-0.653503,0.016174,3.0,-4.0,-3.0,7815.0,-451.0,1149.0,-276.0,26.0,-36.0,-4.0,9.0,-279.0,0.987758,-0.058256,0.144655,15634.0,-986.0,2214.0,72.0,-69.0,-49.0
2885.0,2764.0,2839.0,3055.0,3047.0,0.75592,-0.023499,-0.654053,0.016357,3.0,-3.0,-3.0,7787.0,-427.0,1102.0,-307.0,39.0,-72.0,27.0,20.0,-315.0,0.988055,-0.056923,0.143346,15524.0,-720.0,2038.0,89.0,-61.0,-60.0
2891.0,2763.0,2833.0,3056.0,3043.0,0.755676,-0.022827,-0.654358,0.016357,3.0,-3.0,-4.0,7786.0,-407.0,1075.0,-309.0,50.0,-93.0,48.0,31.0,-321.0,0.988219,-0.055907,0.142609,15574.0,-722.0,1980.0,90.0,-60.0,-69.0
2879.0,2739.0,2830.0,3057.0,3043.0,0.755249,-0.021545,-0.654907,0.016357,3.0,-3.0,-4.0,7841.0,-368.0,1041.0,-257.0,74.0,-116.0,78.0,59.0,-274.0,0.988531,-0.053969,0.141301,15938.0,-606.0,1954.0,86.0,-52.0,-73.0
2889.0,2768.0,2831.0,3055.0,3038.0,0.755066,-0.020935,-0.65509,0.016296,3.0,-2.0,-4.0,7876.0,-369.0,1018.0,-222.0,64.0,-135.0,102.0,50.0,-241.0,0.98859,-0.052966,0.140809,15952.0,-776.0,1890.0,80.0,-38.0,-75.0
2881.0,2763.0,2836.0,3067.0,3039.0,0.754822,-0.019531,-0.655457,0.016296,4.0,-1.0,-5.0,7886.0,-384.0,959.0,-214.0,32.0,-188.0,156.0,19.0,-239.0,0.988869,-0.050848,0.140017,15600.0,-810.0,1720.0,106.0,-12.0,-92.0
2879.0,2751.0,2839.0,3067.0,3035.0,0.7547,-0.018738,-0.655579,0.016296,5.0,-1.0,-5.0,7836.0,-381.0,929.0,-265.0,25.0,-215.0,175.0,10.0,-293.0,0.988919,-0.04965,0.139703,15356.0,-740.0,1710.0,118.0,-22.0,-100.0
2875.0,2751.0,2843.0,3055.0,3047.0,0.754272,-0.016968,-0.656128,0.016418,5.0,-3.0,-5.0,7776.0,-358.0,879.0,-327.0,28.0,-254.0,206.0,11.0,-359.0,0.989241,-0.047142,0.138405,15518.0,-564.0,1716.0,135.0,-60.0,-95.0
2887.0,2767.0,2847.0,3063.0,3043.0,0.753967,-0.016113,-0.656494,0.016479,5.0,-3.0,-4.0,7789.0,-322.0,874.0,-316.0,54.0,-252.0,205.0,38.0,-349.0,0.989419,-0.045935,0.137494,15672.0,-418.0,1702.0,122.0,-58.0,-83.0
2891.0,2765.0,2835.0,3071.0,3047.0,0.75354,-0.014832,-0.656982,0.016479,3.0,-2.0,-3.0,7826.0,-274.0,872.0,-281.0,86.0,-244.0,202.0,73.0,-315.0,0.989636,-0.044006,0.136248,15816.0,-438.0,1738.0,72.0,-31.0,-50.0
2877.0,2751.0,2834.0,3187.0,3039.0,0.753479,-0.014404,-0.657104,0.016479,2.0,-1.0,-2.0,7833.0,-278.0,859.0,-275.0,77.0,-255.0,214.0,64.0,-310.0,0.989754,-0.043364,0.136008,15678.0,-644.0,1606.0,60.0,-4.0,-40.0
2891.0,2755.0,2832.0,3055.0,3047.0,0.753479,-0.01355,-0.657104,0.016724,3.0,1.0,-2.0,7799.0,-303.0,805.0,-309.0,44.0,-309.0,263.0,31.0,-349.0,0.989776,-0.042397,0.13604,15380.0,-686.0,1402.0,86.0,44.0,-35.0
2883.0,2762.0,2833.0,3061.0,3039.0,0.753601,-0.013062,-0.656982,0.016907,4.0,2.0,-2.0,7770.0,-301.0,793.0,-338.0,42.0,-324.0,274.0,28.0,-380.0,0.989764,-0.041901,0.136404,15398.0,-562.0,1550.0,98.0,48.0,-35.0
2879.0,2757.0,2835.0,3059.0,3045.0,0.753723,-0.012024,-0.65686,0.017334,4.0,1.0,-1.0,7734.0,-266.0,784.0,-374.0,69.0,-336.0,281.0,54.0,-418.0,0.989765,-0.040897,0.136789,15210.0,-438.0,1454.0,94.0,40.0,-21.0
2890.0,2757.0,2832.0,3055.0,3039.0,0.753723,-0.011658,-0.65686,0.017578,3.0,0.0,-1.0,7742.0,-248.0,834.0,-366.0,85.0,-286.0,232.0,71.0,-404.0,0.989772,-0.040666,0.136806,15556.0,-420.0,1958.0,84.0,12.0,-3.0
2879.0,2753.0,2838.0,3059.0,3039.0,0.753784,-0.011108,-0.656799,0.018127,3.0,0.0,1.0,7776.0,-236.0,957.0,-332.0,96.0,-165.0,116.0,83.0,-355.0,0.989767,-0.040559,0.13701,15664.0,-476.0,2282.0,70.0,6.0,27.0
2889.0,2758.0,2833.0,3058.0,3039.0,0.753845,-0.010925,-0.656738,0.018494,2.0,0.0,1.0,7818.0,-236.0,1023.0,-290.0,97.0,-100.0,58.0,85.0,-304.0,0.989754,-0.040763,0.1372,15918.0,-492.0,2418.0,62.0,9.0,36.0
2893.0,2768.0,2837.0,3055.0,3047.0,0.754089,-0.01062,-0.656372,0.019165,2.0,2.0,1.0,7884.0,-275.0,1091.0,-222.0,62.0,-40.0,8.0,52.0,-227.0,0.989519,-0.041176,0.138081,15820.0,-720.0,2278.0,68.0,49.0,30.0
2882.0,2763.0,2829.0,3063.0,3047.0,0.754272,-0.010376,-0.656128,0.019531,3.0,2.0,0.0,7858.0,-289.0,1104.0,-247.0,49.0,-32.0,-3.0,38.0,-250.0,0.989393,-0.041283,0.138697,15484.0,-648.0,2274.0,80.0,46.0,18.0
2891.0,2755.0,2830.0,3055.0,3039.0,0.754395,-0.009827,-0.656006,0.020203,3.0,-1.0,0.0,7765.0,-309.0,1124.0,-339.0,29.0,-15.0,-32.0,14.0,-338.0,0.989377,-0.041332,0.139079,15322.0,-696.0,2372.0,81.0,-14.0,9.0
2886.0,2754.0,2837.0,3071.0,3055.0,0.754333,-0.009521,-0.656128,0.020508,3.0,-3.0,0.0,7750.0,-318.0,1143.0,-355.0,20.0,5.0,-54.0,4.0,-351.0,0.989488,-0.041276,0.138845,15478.0,-658.0,2402.0,73.0,-47.0,12.0
2891.0,2767.0,2842.0,3063.0,3055.0,0.753845,-0.009277,-0.656616,0.021057,1.0,-4.0,1.0,7803.0,-348.0,1164.0,-303.0,-6.0,37.0,-77.0,-19.0,-294.0,0.989583,-0.04164,0.137495,15850.0,-788.0,2360.0,41.0,-85.0,23.0
2877.0,2754.0,2833.0,3063.0,3046.0,0.753601,-0.009216,-0.656921,0.021301,1.0,-4.0,0.0,7850.0,-354.0,1170.0,-257.0,-10.0,49.0,-83.0,-22.0,-247.0,0.989721,-0.041877,0.136738,15980.0,-716.0,2366.0,28.0,-83.0,20.0
2883.0,2759.0,2835.0,3062.0,3043.0,0.753174,-0.009033,-0.657349,0.021423,1.0,-2.0,-1.0,7887.0,-366.0,1129.0,-221.0,-23.0,18.0,-47.0,-32.0,-215.0,0.989809,-0.041772,0.135541,15784.0,-822.0,2022.0,24.0,-45.0,-21.0
2891.0,2757.0,2837.0,3063.0,3051.0,0.753052,-0.008789,-0.657532,0.021484,1.0,-2.0,-2.0,7871.0,-372.0,1077.0,-238.0,-32.0,-29.0,-2.0,-41.0,-238.0,0.989933,-0.041491,0.135123,15614.0,-742.0,1858.0,40.0,-32.0,-33.0
2894.0,2763.0,2842.0,3057.0,3039.0,0.752686,-0.008179,-0.65802,0.021484,1.0,-3.0,-2.0,7754.0,-327.0,975.0,-357.0,5.0,-122.0,73.0,-8.0,-370.0,0.990213,-0.040586,0.13394,15090.0,-544.0,1624.0,41.0,-59.0,-33.0
2885.0,2759.0,2843.0,3063.0,3039.0,0.752319,-0.007935,-0.658447,0.021545,2.0,-5.0,-2.0,7684.0,-354.0,932.0,-429.0,-23.0,-156.0,98.0,-38.0,-444.0,0.990383,-0.040312,0.132833,14936.0,-962.0,1592.0,50.0,-105.0,-26.0
2891.0,2757.0,2830.0,3056.0,3031.0,0.750854,-0.007263,-0.660034,0.022522,6.0,-11.0,1.0,7578.0,-414.0,915.0,-539.0,-81.0,-138.0,69.0,-101.0,-548.0,0.990852,-0.040638,0.128592,15134.0,-648.0,1994.0,147.0,-247.0,44.0
2893.0,2763.0,2837.0,3071.0,3047.0,0.749878,-0.006836,-0.661133,0.023315,6.0,-13.0,3.0,7657.0,-292.0,979.0,-463.0,44.0,-50.0,-9.0,24.0,-467.0,0.991219,-0.041081,0.125717,15936.0,274.0,2432.0,139.0,-284.0,77.0
2887.0,2800.0,2843.0,3063.0,3045.0,0.748291,-0.006714,-0.662903,0.023926,-2.0,-9.0,4.0,7975.0,-65.0,1049.0,-149.0,277.0,57.0,-81.0,268.0,-152.0,0.991767,-0.041769,0.121027,16858.0,180.0,2030.0,-32.0,-188.0,93.0
2885.0,2758.0,2838.0,3059.0,3039.0,0.747803,-0.00708,-0.663391,0.023987,-3.0,-5.0,3.0,8063.0,-85.0,998.0,-62.0,262.0,17.0,-31.0,258.0,-70.0,0.991832,-0.042414,0.119646,16506.0,-388.0,1598.0,-63.0,-107.0,83.0
2884.0,2762.0,2839.0,3063.0,3063.0,0.747375,-0.007629,-0.66394,0.024048,-1.0,-1.0,1.0,8003.0,-130.0,808.0,-123.0,225.0,-160.0,138.0,222.0,-150.0,0.992059,-0.043337,0.118273,15624.0,-282.0,998.0,-15.0,-7.0,27.0
2887.0,2767.0,2847.0,3067.0,3039.0,0.747253,-0.00769,-0.664001,0.023987,-2.0,0.0,0.0,7913.0,-145.0,707.0,-213.0,210.0,-259.0,226.0,205.0,-250.0,0.991986,-0.043348,0.118006,15328.0,-388.0,898.0,-24.0,16.0,18.0
2890.0,2768.0,2845.0,3061.0,3047.0,0.74707,-0.008118,-0.664307,0.023865,-2.0,0.0,1.0,7752.0,-180.0,588.0,-375.0,179.0,-373.0,322.0,168.0,-423.0,0.99218,-0.043836,0.117314,15180.0,-524.0,1024.0,-38.0,2.0,37.0
2886.0,2759.0,2835.0,3065.0,3031.0,0.746948,-0.008362,-0.664429,0.023865,-2.0,-1.0,1.0,7747.0,-201.0,597.0,-381.0,161.0,-361.0,310.0,149.0,-427.0,0.992189,-0.044205,0.116966,15576.0,-544.0,1304.0,-35.0,-5.0,43.0
2886.0,2761.0,2831.0,3063.0,3039.0,0.746948,-0.008789,-0.664429,0.023987,-1.0,1.0,1.0,7855.0,-231.0,682.0,-272.0,137.0,-276.0,239.0,129.0,-308.0,0.992166,-0.045005,0.116964,16032.0,-528.0,1590.0,-18.0,42.0,44.0
2891.0,2767.0,2837.0,3056.0,3051.0,0.74707,-0.008972,-0.664246,0.024109,-1.0,2.0,1.0,7894.0,-254.0,722.0,-232.0,118.0,-239.0,207.0,111.0,-263.0,0.992044,-0.045434,0.117393,15984.0,-664.0,1684.0,-14.0,62.0,44.0
2889.0,2763.0,2839.0,3066.0,3055.0,0.74762,-0.009399,-0.663635,0.024353,-1.0,3.0,2.0,7895.0,-284.0,800.0,-230.0,95.0,-175.0,144.0,86.0,-253.0,0.991836,-0.046377,0.119028,15502.0,-600.0,1752.0,-11.0,86.0,48.0
2879.0,2763.0,2835.0,3062.0,3037.0,0.747864,-0.009583,-0.663391,0.024475,-1.0,2.0,2.0,7819.0,-294.0,808.0,-305.0,89.0,-172.0,132.0,76.0,-327.0,0.991783,-0.046806,0.11972,15206.0,-690.0,1664.0,-19.0,67.0,46.0
2887.0,2763.0,2838.0,3059.0,3046.0,0.747986,-0.010071,-0.663208,0.024658,-2.0,0.0,1.0,7763.0,-363.0,844.0,-360.0,28.0,-140.0,95.0,12.0,-375.0,0.991644,-0.047773,0.120145,15554.0,-944.0,1772.0,-23.0,4.0,41.0
2891.0,2767.0,2838.0,3067.0,3043.0,0.747925,-0.010376,-0.663208,0.02478,-2.0,-1.0,1.0,7787.0,-386.0,859.0,-335.0,10.0,-124.0,82.0,-4.0,-347.0,0.991545,-0.04839,0.120053,15740.0,-886.0,1842.0,-28.0,-2.0,40.0
2895.0,2763.0,2847.0,3047.0,3043.0,0.747925,-0.010925,-0.663208,0.024841,-1.0,0.0,0.0,7840.0,-462.0,852.0,-282.0,-58.0,-131.0,97.0,-70.0,-292.0,0.991517,-0.049293,0.120044,15802.0,-1196.0,1696.0,-22.0,16.0,22.0
2887.0,2743.0,2839.0,3061.0,3055.0,0.747986,-0.011047,-0.663147,0.024963,-1.0,1.0,0.0,7851.0,-473.0,859.0,-271.0,-66.0,-125.0,93.0,-77.0,-280.0,0.991498,-0.049635,0.12022,15772.0,-948.0,1786.0,-1.0,27.0,9.0
2883.0,2763.0,2845.0,3065.0,3039.0,0.748291,-0.011047,-0.662842,0.024902,-1.0,2.0,-1.0,7854.0,-429.0,891.0,-267.0,-23.0,-100.0,67.0,-35.0,-275.0,0.991447,-0.049546,0.121078,15580.0,-716.0,1848.0,-13.0,55.0,-9.0
2893.0,2765.0,2838.0,3069.0,3035.0,0.748413,-0.011169,-0.662659,0.02478,-2.0,2.0,0.0,7805.0,-415.0,893.0,-315.0,-9.0,-102.0,63.0,-23.0,-324.0,0.991331,-0.04956,0.121495,15260.0,-744.0,1798.0,-32.0,47.0,3.0
2883.0,2759.0,2849.0,3063.0,3055.0,0.748474,-0.011597,-0.662659,0.024475,-3.0,-1.0,0.0,7769.0,-414.0,930.0,-352.0,-6.0,-65.0,22.0,-23.0,-356.0,0.991398,-0.049797,0.121562,15682.0,-808.0,2050.0,-52.0,-18.0,5.0
2893.0,2757.0,2835.0,3063.0,3047.0,0.748413,-0.01178,-0.662659,0.024292,-3.0,-1.0,-1.0,7812.0,-407.0,960.0,-308.0,1.0,-34.0,-3.0,-14.0,-309.0,0.991313,-0.049827,0.121457,15888.0,-752.0,2104.0,-51.0,-17.0,-3.0
2891.0,2762.0,2835.0,3063.0,3039.0,0.748413,-0.012146,-0.66272,0.023865,-3.0,0.0,-1.0,7878.0,-407.0,976.0,-243.0,1.0,-18.0,-11.0,-11.0,-243.0,0.991396,-0.049812,0.121347,15804.0,-784.0,1952.0,-46.0,7.0,-13.0
2902.0,2768.0,2837.0,3059.0,3043.0,0.748413,-0.012268,-0.662659,0.023682,-3.0,0.0,-1.0,7868.0,-386.0,957.0,-252.0,21.0,-37.0,5.0,8.0,-255.0,0.991304,-0.049749,0.121416,15626.0,-642.0,1786.0,-46.0,9.0,-11.0
2898.0,2774.0,2846.0,3057.0,3057.0,0.748413,-0.012573,-0.66272,0.023193,-3.0,0.0,0.0,7843.0,-362.0,899.0,-278.0,44.0,-94.0,58.0,30.0,-289.0,0.991393,-0.049561,0.121305,15678.0,-754.0,1588.0,-54.0,5.0,0.0
2896.0,2763.0,2834.0,3067.0,3034.0,0.748352,-0.012756,-0.662781,0.023071,-2.0,0.0,0.0,7817.0,-362.0,865.0,-304.0,44.0,-127.0,88.0,29.0,-318.0,0.991398,-0.049675,0.121122,15430.0,-708.0,1528.0,-39.0,9.0,7.0
2879.0,2759.0,2833.0,3059.0,3043.0,0.74823,-0.013,-0.662903,0.022888,-1.0,-1.0,0.0,7779.0,-362.0,804.0,-342.0,45.0,-185.0,141.0,29.0,-363.0,0.991412,-0.0498,0.120763,15584.0,-734.0,1494.0,-14.0,-5.0,1.0
2893.0,2755.0,2845.0,3071.0,3047.0,0.748169,-0.013,-0.662964,0.022888,-1.0,0.0,0.0,7810.0,-341.0,807.0,-311.0,66.0,-180.0,140.0,51.0,-333.0,0.991423,-0.049801,0.12059,15844.0,-508.0,1670.0,-9.0,3.0,6.0
2887.0,2759.0,2839.0,3065.0,3043.0,0.748291,-0.013245,-0.662842,0.022766,-2.0,2.0,0.0,7862.0,-319.0,806.0,-259.0,90.0,-184.0,150.0,78.0,-283.0,0.991394,-0.050002,0.120923,15698.0,-664.0,1524.0,-26.0,53.0,21.0
2884.0,2765.0,2830.0,3069.0,3031.0,0.748474,-0.013367,-0.662659,0.022766,-1.0,2.0,1.0,7830.0,-332.0,796.0,-291.0,79.0,-198.0,160.0,65.0,-316.0,0.991357,-0.050182,0.121437,15440.0,-748.0,1574.0,-18.0,54.0,26.0
2887.0,2757.0,2825.0,3061.0,3027.0,0.748657,-0.01355,-0.662415,0.022949,0.0,1.0,1.0,7805.0,-342.0,819.0,-315.0,73.0,-180.0,139.0,58.0,-337.0,0.991221,-0.050692,0.122038,15638.0,-646.0,1804.0,11.0,38.0,26.0
2887.0,2763.0,2838.0,3071.0,3063.0,0.748779,-0.01355,-0.662292,0.023071,0.0,1.0,1.0,7815.0,-317.0,855.0,-304.0,99.0,-147.0,107.0,84.0,-324.0,0.991197,-0.050852,0.122388,15704.0,-454.0,1968.0,15.0,40.0,29.0
2887.0,2770.0,2815.0,3059.0,3059.0,0.749084,-0.013733,-0.661926,0.023254,-1.0,1.0,2.0,7821.0,-283.0,928.0,-297.0,137.0,-82.0,42.0,121.0,-311.0,0.991039,-0.05136,0.123333,15626.0,-606.0,2056.0,-12.0,36.0,46.0
2885.0,2755.0,2829.0,3059.0,3071.0,0.749207,-0.013916,-0.661804,0.023376,-1.0,1.0,2.0,7812.0,-305.0,951.0,-306.0,119.0,-62.0,21.0,103.0,-317.0,0.991005,-0.051793,0.123678,15562.0,-774.0,2032.0,-8.0,32.0,51.0
2879.0,2766.0,2842.0,3063.0,3055.0,0.74939,-0.01416,-0.661499,0.023804,0.0,1.0,2.0,7826.0,-331.0,981.0,-290.0,100.0,-37.0,0.0,84.0,-297.0,0.990767,-0.052715,0.12437,15670.0,-684.0,2006.0,20.0,32.0,46.0
2879.0,2767.0,2807.0,3067.0,3046.0,0.749512,-0.014221,-0.661377,0.024048,1.0,1.0,1.0,7821.0,-336.0,976.0,-295.0,99.0,-45.0,6.0,83.0,-303.0,0.990736,-0.053127,0.124724,15582.0,-716.0,1906.0,27.0,36.0,45.0
2879.0,2765.0,2839.0,3067.0,3039.0,0.749634,-0.014221,-0.661255,0.024353,1.0,1.0,2.0,7819.0,-337.0,977.0,-296.0,101.0,-47.0,8.0,84.0,-304.0,0.990705,-0.053528,0.125084,15648.0,-648.0,1998.0,29.0,32.0,47.0
2883.0,2773.0,2843.0,3063.0,3054.0,0.749817,-0.014343,-0.661011,0.02478,0.0,1.0,1.0,7772.0,-340.0,969.0,-342.0,104.0,-60.0,14.0,85.0,-351.0,0.990563,-0.05427,0.125699,15318.0,-726.0,1914.0,15.0,23.0,44.0
2897.0,2758.0,2831.0,3059.0,3047.0,0.749817,-0.014404,-0.66095,0.024963,0.0,-1.0,1.0,7755.0,-364.0,975.0,-358.0,83.0,-55.0,8.0,63.0,-366.0,0.990463,-0.0546,0.125787,15474.0,-870.0,1982.0,8.0,-4.0,38.0
2895.0,2787.0,2843.0,3071.0,3039.0,0.749756,-0.014587,-0.661072,0.025391,0.0,-1.0,1.0,7820.0,-402.0,1008.0,-294.0,52.0,-20.0,-17.0,35.0,-296.0,0.990544,-0.055444,0.12555,15922.0,-886.0,2062.0,13.0,-20.0,39.0
2897.0,2751.0,2815.0,3063.0,3047.0,0.749695,-0.014709,-0.661133,0.025574,0.0,-1.0,1.0,7843.0,-415.0,1016.0,-271.0,42.0,-11.0,-23.0,26.0,-272.0,0.990543,-0.05587,0.125383,15756.0,-942.0,2000.0,8.0,-10.0,36.0
2895.0,2751.0,2848.0,3059.0,3055.0,0.749573,-0.014893,-0.661255,0.025879,0.0,-1.0,1.0,7861.0,-459.0,983.0,-253.0,4.0,-41.0,9.0,-10.0,-255.0,0.990546,-0.056551,0.125049,15814.0,-1002.0,1852.0,11.0,-12.0,25.0
2879.0,2758.0,2847.0,3059.0,3053.0,0.749573,-0.014893,-0.661255,0.026062,0.0,-1.0,0.0,7875.0,-458.0,968.0,-239.0,7.0,-56.0,25.0,-6.0,-244.0,0.990541,-0.056793,0.125059,15838.0,-860.0,1814.0,15.0,-3.0,21.0
2879.0,2771.0,2835.0,3049.0,3051.0,0.749573,-0.015015,-0.661255,0.026184,-1.0,0.0,0.0,7845.0,-458.0,927.0,-269.0,10.0,-97.0,62.0,-4.0,-279.0,0.990531,-0.057138,0.125061,15440.0,-990.0,1710.0,-8.0,21.0,20.0
2903.0,2762.0,2843.0,3045.0,3103.0,0.749573,-0.015137,-0.661255,0.026245,-1.0,0.0,0.0,7787.0,-476.0,897.0,-327.0,-5.0,-127.0,85.0,-22.0,-339.0,0.990523,-0.057402,0.125061,15242.0,-1060.0,1658.0,-9.0,8.0,16.0
2883.0,2767.0,2843.0,3063.0,3039.0,0.74939,-0.01532,-0.661438,0.026306,-1.0,-2.0,0.0,7775.0,-466.0,896.0,-339.0,7.0,-124.0,80.0,-11.0,-351.0,0.990544,-0.057761,0.124542,15728.0,-780.0,1876.0,-4.0,-24.0,10.0
2896.0,2753.0,2833.0,3043.0,3039.0,0.749268,-0.015381,-0.66156,0.026306,-1.0,-1.0,0.0,7816.0,-452.0,921.0,-298.0,21.0,-96.0,58.0,4.0,-308.0,0.990562,-0.057855,0.124196,15892.0,-872.0,2010.0,-17.0,-17.0,12.0
2896.0,2765.0,2823.0,3089.0,3055.0,0.749329,-0.015625,-0.661499,0.026245,-1.0,0.0,0.0,7869.0,-467.0,972.0,-245.0,9.0,-46.0,15.0,-5.0,-248.0,0.99054,-0.058139,0.124357,15846.0,-988.0,2098.0,-16.0,9.0,9.0
2879.0,2757.0,2835.0,3071.0,3039.0,0.74939,-0.015686,-0.661438,0.026245,-1.0,0.0,0.0,7873.0,-469.0,980.0,-241.0,8.0,-40.0,9.0,-6.0,-244.0,0.990526,-0.058229,0.124527,15718.0,-940.0,1988.0,-9.0,21.0,6.0
2887.0,2769.0,2823.0,3069.0,3043.0,0.749512,-0.015686,-0.661316,0.026245,0.0,0.0,-1.0,7827.0,-490.0,978.0,-287.0,-13.0,-44.0,8.0,-29.0,-289.0,0.990505,-0.058226,0.124872,15396.0,-1004.0,1936.0,8.0,8.0,-6.0
2880.0,2775.0,2835.0,3051.0,3067.0,0.749451,-0.015625,-0.661316,0.026306,0.0,-1.0,-1.0,7784.0,-490.0,982.0,-329.0,-13.0,-40.0,0.0,-32.0,-330.0,0.990425,-0.058214,0.124785,15332.0,-954.0,1992.0,16.0,-20.0,-11.0
2887.0,2747.0,2839.0,3045.0,3055.0,0.749146,-0.015442,-0.661743,0.026245,-1.0,-3.0,-1.0,7771.0,-456.0,1004.0,-344.0,18.0,-9.0,-33.0,-2.0,-342.0,0.990673,-0.057872,0.123765,15632.0,-894.0,2124.0,-9.0,-63.0,-9.0
2887.0,2771.0,2847.0,3059.0,3059.0,0.748901,-0.015503,-0.661987,0.026123,-2.0,-3.0,-1.0,7796.0,-458.0,996.0,-319.0,15.0,-12.0,-27.0,-3.0,-318.0,0.990716,-0.057807,0.123068,15748.0,-952.0,1948.0,-24.0,-66.0,-1.0
2891.0,2774.0,2843.0,3059.0,3059.0,0.748474,-0.015625,-0.662415,0.026062,-1.0,-3.0,-1.0,7862.0,-488.0,971.0,-254.0,-13.0,-27.0,-3.0,-27.0,-254.0,0.990786,-0.057918,0.121856,15980.0,-992.0,1846.0,-1.0,-47.0,-7.0
2885.0,2741.0,2846.0,3055.0,3043.0,0.748352,-0.015564,-0.662598,0.026062,0.0,-1.0,-1.0,7896.0,-473.0,954.0,-221.0,0.0,-40.0,13.0,-12.0,-223.0,0.990901,-0.057832,0.121432,15964.0,-828.0,1804.0,7.0,-18.0,-14.0
2899.0,2763.0,2839.0,3059.0,3031.0,0.748413,-0.015381,-0.662537,0.025818,-1.0,1.0,-2.0,7853.0,-444.0,875.0,-264.0,24.0,-121.0,87.0,9.0,-277.0,0.990908,-0.057233,0.121597,15442.0,-876.0,1528.0,-4.0,26.0,-26.0
2890.0,2769.0,2827.0,3069.0,3057.0,0.748413,-0.015259,-0.662537,0.025757,0.0,0.0,-2.0,7789.0,-458.0,839.0,-328.0,8.0,-157.0,116.0,-9.0,-344.0,0.990916,-0.056969,0.121598,15184.0,-1000.0,1456.0,2.0,16.0,-25.0
2893.0,2759.0,2838.0,3055.0,3035.0,0.748291,-0.015015,-0.66272,0.025696,0.0,-1.0,-1.0,7751.0,-436.0,839.0,-367.0,27.0,-153.0,107.0,7.0,-383.0,0.991043,-0.056529,0.121177,15574.0,-700.0,1788.0,17.0,-20.0,-17.0
2887.0,2759.0,2832.0,3057.0,3058.0,0.713562,0.027405,-0.697693,0.057434,0.0,1.0,2.0,7797.0,-95.0,80.0,-385.0,241.0,-124.0,86.0,237.0,-397.0,0.998842,-0.041033,0.024943,15090.0,-330.0,70.0,16.0,32.0,49.0
2883.0,2763.0,2841.0,3061.0,3057.0,0.713501,0.027344,-0.697754,0.057617,0.0,-1.0,2.0,7741.0,-120.0,85.0,-441.0,219.0,-118.0,82.0,211.0,-452.0,0.998847,-0.041386,0.024795,15238.0,-392.0,236.0,10.0,-10.0,53.0
2891.0,2759.0,2833.0,3055.0,3057.0,0.713196,0.0271,-0.698059,0.058044,0.0,-2.0,2.0,7796.0,-203.0,122.0,-386.0,144.0,-74.0,48.0,134.0,-393.0,0.998852,-0.042382,0.023997,15990.0,-670.0,410.0,17.0,-43.0,53.0
2886.0,2767.0,2846.0,3061.0,3056.0,0.713013,0.026978,-0.698181,0.05835,0.0,-2.0,2.0,7873.0,-221.0,144.0,-308.0,131.0,-49.0,27.0,121.0,-314.0,0.998772,-0.043007,0.023607,16218.0,-494.0,388.0,17.0,-24.0,62.0
2895.0,2759.0,2855.0,3071.0,3038.0,0.713135,0.026489,-0.698059,0.058777,-1.0,2.0,3.0,7982.0,-243.0,168.0,-199.0,119.0,-28.0,9.0,112.0,-204.0,0.998734,-0.044279,0.024028,16116.0,-606.0,356.0,-12.0,48.0,76.0
2883.0,2751.0,2845.0,3059.0,3039.0,0.713379,0.026123,-0.697815,0.059021,-1.0,3.0,3.0,7956.0,-276.0,160.0,-225.0,93.0,-42.0,26.0,86.0,-229.0,0.998697,-0.0451,0.024765,15628.0,-768.0,276.0,-12.0,74.0,69.0
2899.0,2762.0,2835.0,3071.0,3046.0,0.713562,0.025879,-0.697571,0.059265,0.0,2.0,2.0,7859.0,-339.0,141.0,-321.0,35.0,-67.0,55.0,27.0,-323.0,0.998587,-0.045751,0.025408,15106.0,-1090.0,168.0,1.0,61.0,52.0
2897.0,2746.0,2819.0,3067.0,3035.0,0.713562,0.025818,-0.69751,0.059875,2.0,-1.0,0.0,7742.0,-423.0,144.0,-437.0,-40.0,-65.0,60.0,-53.0,-436.0,0.998525,-0.046682,0.025569,15220.0,-906.0,360.0,57.0,-15.0,11.0
2875.0,2743.0,2851.0,3035.0,3063.0,0.713379,0.026001,-0.697693,0.060059,1.0,-3.0,0.0,7751.0,-406.0,164.0,-429.0,-23.0,-41.0,35.0,-39.0,-428.0,0.998562,-0.046708,0.025065,15670.0,-670.0,484.0,44.0,-53.0,1.0
2871.0,2767.0,2838.0,3067.0,3067.0,0.713074,0.026062,-0.698059,0.06012,-1.0,-2.0,0.0,7964.0,-395.0,223.0,-217.0,-11.0,25.0,-27.0,-24.0,-215.0,0.998669,-0.046766,0.024123,16746.0,-866.0,542.0,-14.0,-37.0,9.0
2886.0,2741.0,2837.0,3067.0,3050.0,0.713074,0.02594,-0.697998,0.06012,-1.0,0.0,0.0,8095.0,-403.0,223.0,-85.0,-18.0,24.0,-23.0,-24.0,-83.0,0.998567,-0.046933,0.024214,16926.0,-846.0,380.0,-12.0,21.0,16.0
2885.0,2759.0,2833.0,3067.0,3066.0,0.713806,0.025696,-0.697266,0.060181,-1.0,5.0,0.0,8118.0,-439.0,216.0,-61.0,-52.0,0.0,5.0,-54.0,-58.0,0.998518,-0.04724,0.026301,15788.0,-1062.0,344.0,-14.0,135.0,1.0
2897.0,2759.0,2839.0,3058.0,3071.0,0.714294,0.025574,-0.696777,0.06012,-1.0,5.0,-1.0,7989.0,-471.0,194.0,-190.0,-83.0,-32.0,37.0,-87.0,-186.0,0.998483,-0.047246,0.027678,15136.0,-1152.0,254.0,-17.0,123.0,-18.0
2899.0,2743.0,2845.0,3063.0,3031.0,0.714661,0.025757,-0.696411,0.059937,0.0,0.0,-4.0,7766.0,-546.0,175.0,-413.0,-163.0,-59.0,68.0,-175.0,-406.0,0.998483,-0.046666,0.02868,15212.0,-1196.0,334.0,21.0,12.0,-71.0
2885.0,2762.0,2835.0,3067.0,3051.0,0.714661,0.026123,-0.696411,0.059814,1.0,-1.0,-4.0,7753.0,-537.0,195.0,-426.0,-160.0,-39.0,48.0,-174.0,-419.0,0.99852,-0.045973,0.028647,15448.0,-972.0,516.0,34.0,-20.0,-83.0
2893.0,2765.0,2864.0,3071.0,3051.0,0.714417,0.026917,-0.696655,0.059387,0.0,-2.0,-4.0,7826.0,-480.0,220.0,-354.0,-117.0,-8.0,14.0,-131.0,-348.0,0.998601,-0.044286,0.027865,16044.0,-788.0,550.0,15.0,-36.0,-83.0
2889.0,2763.0,2858.0,3059.0,3043.0,0.714417,0.027222,-0.696655,0.059143,-1.0,-1.0,-3.0,7928.0,-423.0,252.0,-252.0,-66.0,24.0,-21.0,-80.0,-248.0,0.998624,-0.043509,0.027819,16482.0,-484.0,670.0,-2.0,-3.0,-68.0
2878.0,2759.0,2813.0,3031.0,3031.0,0.715027,0.027283,-0.696106,0.058472,-3.0,4.0,-2.0,8080.0,-355.0,273.0,-101.0,-7.0,32.0,-33.0,-15.0,-99.0,0.998659,-0.042389,0.029375,16458.0,-650.0,610.0,-46.0,106.0,-36.0
2887.0,2768.0,2847.0,3055.0,3053.0,0.715576,0.027222,-0.695557,0.058167,-2.0,6.0,-2.0,8060.0,-335.0,259.0,-120.0,8.0,5.0,-9.0,1.0,-120.0,0.998614,-0.041958,0.030893,15842.0,-554.0,398.0,-39.0,156.0,-41.0
2882.0,2763.0,2853.0,3067.0,3045.0,0.716614,0.027527,-0.69458,0.057434,-1.0,4.0,-4.0,7808.0,-339.0,234.0,-372.0,-8.0,-41.0,31.0,-19.0,-372.0,0.998653,-0.040333,0.033635,14796.0,-742.0,442.0,-15.0,93.0,-91.0
2871.0,2751.0,2832.0,3070.0,3035.0,0.716736,0.027832,-0.694458,0.057129,0.0,0.0,-5.0,7718.0,-346.0,233.0,-463.0,-22.0,-44.0,32.0,-36.0,-463.0,0.998666,-0.039451,0.033927,15036.0,-696.0,472.0,1.0,8.0,-94.0
2871.0,2751.0,2837.0,3063.0,3039.0,0.71637,0.028503,-0.694824,0.056458,-1.0,-3.0,-4.0,7823.0,-271.0,287.0,-358.0,37.0,18.0,-32.0,19.0,-358.0,0.99872,-0.037618,0.03278,16234.0,-238.0,712.0,-8.0,-67.0,-71.0
2887.0,2768.0,2833.0,3067.0,3039.0,0.716248,0.028687,-0.694946,0.05603,-2.0,-2.0,-3.0,7943.0,-213.0,316.0,-238.0,88.0,50.0,-66.0,71.0,-239.0,0.998722,-0.036783,0.032377,16586.0,-96.0,800.0,-37.0,-40.0,-59.0
2895.0,2767.0,2847.0,3071.0,3051.0,0.716614,0.028625,-0.694702,0.055115,-3.0,2.0,-2.0,8083.0,-210.0,316.0,-99.0,81.0,44.0,-56.0,71.0,-100.0,0.998822,-0.03555,0.033142,16264.0,-564.0,514.0,-66.0,66.0,-37.0
2895.0,2759.0,2831.0,3071.0,3047.0,0.716919,0.028564,-0.694397,0.054749,-2.0,4.0,-3.0,8055.0,-208.0,305.0,-127.0,79.0,26.0,-38.0,70.0,-128.0,0.99878,-0.035078,0.033967,15886.0,-342.0,616.0,-44.0,94.0,-48.0
2887.0,2755.0,2835.0,3071.0,3051.0,0.717651,0.02887,-0.693726,0.053894,-1.0,3.0,-5.0,7865.0,-245.0,273.0,-317.0,28.0,-20.0,6.0,18.0,-318.0,0.998818,-0.033339,0.035839,15056.0,-714.0,408.0,-20.0,70.0,-95.0
2893.0,2761.0,2839.0,3067.0,3051.0,0.717773,0.029175,-0.693604,0.053589,0.0,0.0,-4.0,7787.0,-261.0,264.0,-395.0,4.0,-32.0,18.0,-6.0,-395.0,0.998827,-0.032457,0.036133,15170.0,-572.0,484.0,3.0,15.0,-91.0
2879.0,2766.0,2839.0,3063.0,3039.0,0.717529,0.029846,-0.693848,0.053101,0.0,-3.0,-3.0,7779.0,-205.0,271.0,-403.0,47.0,-18.0,0.0,34.0,-404.0,0.998882,-0.030856,0.035353,15726.0,-110.0,620.0,14.0,-56.0,-59.0
2885.0,2766.0,2848.0,3063.0,3047.0,0.717346,0.030151,-0.694031,0.052795,-1.0,-3.0,-3.0,7815.0,-139.0,289.0,-368.0,106.0,4.0,-27.0,92.0,-370.0,0.998904,-0.030025,0.034785,15866.0,120.0,664.0,-6.0,-57.0,-50.0
2882.0,2750.0,2838.0,3059.0,3045.0,0.717102,0.030334,-0.694397,0.052002,-3.0,-2.0,-2.0,7905.0,-65.0,300.0,-279.0,170.0,22.0,-50.0,157.0,-282.0,0.999062,-0.028714,0.033832,16208.0,-16.0,636.0,-53.0,-32.0,-32.0
2886.0,2771.0,2839.0,3069.0,3059.0,0.717102,0.030273,-0.694397,0.051636,-3.0,0.0,-1.0,7959.0,-44.0,299.0,-225.0,187.0,22.0,-50.0,175.0,-229.0,0.999033,-0.028293,0.033798,16200.0,44.0,602.0,-55.0,13.0,-19.0
2887.0,2755.0,2835.0,3057.0,3051.0,0.717529,0.030151,-0.69397,0.050964,-3.0,2.0,-2.0,7942.0,-52.0,253.0,-241.0,173.0,-33.0,5.0,167.0,-246.0,0.99896,-0.027466,0.034943,15638.0,-372.0,308.0,-52.0,67.0,-30.0
2895.0,2750.0,2818.0,3057.0,3039.0,0.717712,0.030151,-0.693787,0.05072,-1.0,2.0,-2.0,7902.0,-102.0,226.0,-281.0,119.0,-64.0,40.0,116.0,-286.0,0.998937,-0.027098,0.035435,15596.0,-470.0,274.0,-22.0,55.0,-38.0
2891.0,2759.0,2835.0,3055.0,3037.0,0.717834,0.030334,-0.693726,0.050354,-1.0,-1.0,-2.0,7833.0,-105.0,189.0,-350.0,110.0,-103.0,78.0,110.0,-356.0,0.999015,-0.026313,0.035646,15540.0,-102.0,300.0,-14.0,-5.0,-24.0
2895.0,2768.0,2854.0,3069.0,3047.0,0.717712,0.030334,-0.693909,0.05011,-2.0,-2.0,-1.0,7840.0,-107.0,182.0,-344.0,105.0,-106.0,82.0,106.0,-350.0,0.999094,-0.026,0.035193,15772.0,-292.0,322.0,-36.0,-33.0,-12.0
2903.0,2759.0,2838.0,3059.0,3039.0,0.717346,0.030151,-0.694275,0.049805,-2.0,-2.0,-1.0,7883.0,-146.0,135.0,-301.0,66.0,-144.0,126.0,72.0,-307.0,0.999074,-0.025898,0.034139,15934.0,-456.0,178.0,-23.0,-32.0,-1.0
2895.0,2753.0,2843.0,3063.0,3051.0,0.717224,0.030151,-0.694397,0.049805,0.0,-1.0,-1.0,7929.0,-164.0,124.0,-255.0,48.0,-152.0,137.0,57.0,-261.0,0.99908,-0.025918,0.033795,16136.0,-386.0,156.0,4.0,-4.0,-10.0
2887.0,2759.0,2832.0,3071.0,3039.0,0.717346,0.030457,-0.694275,0.049622,0.0,2.0,-2.0,7876.0,-136.0,98.0,-308.0,70.0,-181.0,162.0,81.0,-315.0,0.999094,-0.025206,0.034103,15416.0,-114.0,174.0,3.0,47.0,-41.0
2894.0,2763.0,2843.0,3063.0,3055.0,0.717468,0.03064,-0.694153,0.049316,-1.0,1.0,-3.0,7844.0,-135.0,105.0,-340.0,65.0,-176.0,156.0,74.0,-347.0,0.999087,-0.0245,0.034406,15568.0,-320.0,304.0,-18.0,41.0,-55.0
2883.0,2768.0,2849.0,3056.0,3047.0,0.717773,0.030762,-0.693848,0.048767,-2.0,2.0,-3.0,7860.0,-179.0,121.0,-324.0,13.0,-167.0,153.0,22.0,-329.0,0.999051,-0.023514,0.035206,15812.0,-458.0,238.0,-29.0,60.0,-49.0
2886.0,2747.0,2821.0,3063.0,3038.0,0.718018,0.030823,-0.693604,0.048462,-2.0,3.0,-2.0,7875.0,-183.0,130.0,-309.0,5.0,-163.0,151.0,14.0,-314.0,0.999026,-0.022964,0.035862,15846.0,-388.0,330.0,-32.0,79.0,-45.0
2894.0,2751.0,2835.0,3071.0,3047.0,0.718628,0.030701,-0.693054,0.047913,-2.0,3.0,-2.0,7771.0,-242.0,153.0,-413.0,-59.0,-153.0,144.0,-52.0,-417.0,0.999038,-0.022287,0.037455,15164.0,-770.0,488.0,-42.0,74.0,-42.0
2890.0,2759.0,2839.0,3071.0,3039.0,0.718811,0.030701,-0.692871,0.047729,-1.0,2.0,-3.0,7717.0,-266.0,195.0,-466.0,-85.0,-115.0,107.0,-83.0,-468.0,0.999017,-0.022005,0.037955,15164.0,-644.0,678.0,-20.0,50.0,-60.0
2895.0,2767.0,2839.0,3063.0,3047.0,0.719238,0.031494,-0.692444,0.04718,1.0,1.0,-6.0,7823.0,-263.0,336.0,-361.0,-98.0,16.0,-18.0,-107.0,-358.0,0.999036,-0.020036,0.039059,16274.0,-332.0,1122.0,43.0,44.0,-123.0
2881.0,2757.0,2833.0,3059.0,3039.0,0.719604,0.032104,-0.692078,0.046875,1.0,3.0,-6.0,7892.0,-230.0,388.0,-292.0,-76.0,60.0,-62.0,-88.0,-287.0,0.999054,-0.018677,0.040026,16086.0,-260.0,1070.0,34.0,86.0,-122.0
2895.0,2757.0,2844.0,3062.0,3039.0,0.720459,0.032776,-0.691223,0.046021,-2.0,3.0,-4.0,7922.0,-150.0,479.0,-261.0,-15.0,132.0,-139.0,-35.0,-254.0,0.999013,-0.016394,0.042315,16054.0,-80.0,1254.0,-33.0,81.0,-91.0
2887.0,2762.0,2837.0,3067.0,3047.0,0.720886,0.032898,-0.690796,0.045532,-3.0,4.0,-4.0,7946.0,-128.0,514.0,-237.0,-1.0,157.0,-165.0,-23.0,-229.0,0.998966,-0.015476,0.043469,15980.0,-168.0,1208.0,-61.0,94.0,-84.0
2891.0,2767.0,2847.0,3067.0,3047.0,0.721802,0.032837,-0.689941,0.044434,-4.0,3.0,-4.0,7854.0,-137.0,528.0,-329.0,-23.0,152.0,-162.0,-45.0,-321.0,0.99892,-0.01391,0.045875,15124.0,-268.0,1070.0,-70.0,74.0,-75.0
2887.0,2752.0,2838.0,3063.0,3037.0,0.721985,0.032837,-0.689758,0.043884,-4.0,0.0,-4.0,7760.0,-132.0,529.0,-422.0,-24.0,149.0,-164.0,-47.0,-414.0,0.998872,-0.013124,0.046343,14990.0,-254.0,1062.0,-77.0,9.0,-73.0
2883.0,2757.0,2835.0,3059.0,3037.0,0.721497,0.032959,-0.690308,0.042908,-1.0,-6.0,-5.0,7696.0,-190.0,522.0,-487.0,-94.0,155.0,-164.0,-117.0,-478.0,0.998938,-0.011679,0.044788,15730.0,-464.0,1170.0,-18.0,-134.0,-96.0
2885.0,2763.0,2839.0,3069.0,3047.0,0.721069,0.033447,-0.690735,0.042603,0.0,-6.0,-5.0,7850.0,-164.0,544.0,-333.0,-77.0,187.0,-191.0,-101.0,-323.0,0.998985,-0.010619,0.043523,16828.0,-106.0,1250.0,22.0,-136.0,-107.0
2887.0,2767.0,2843.0,3067.0,3061.0,0.721191,0.03418,-0.690613,0.041687,-3.0,3.0,-3.0,8269.0,39.0,561.0,85.0,106.0,202.0,-208.0,84.0,92.0,0.998978,-0.008279,0.043741,17236.0,704.0,974.0,-51.0,87.0,-67.0
2882.0,2763.0,2835.0,3062.0,3047.0,0.721802,0.034119,-0.690002,0.041016,-5.0,7.0,-3.0,8237.0,93.0,505.0,54.0,153.0,132.0,-144.0,138.0,58.0,0.998889,-0.007348,0.045413,15978.0,342.0,634.0,-108.0,168.0,-64.0
2887.0,2753.0,2835.0,3061.0,3019.0,0.7229,0.034058,-0.688965,0.039612,-3.0,4.0,-5.0,7962.0,-6.0,402.0,-220.0,37.0,6.0,-20.0,33.0,-219.0,0.998804,-0.005342,0.048322,15348.0,-312.0,638.0,-67.0,102.0,-110.0
2891.0,2767.0,2843.0,3067.0,3051.0,0.723145,0.034241,-0.688721,0.039062,-2.0,2.0,-6.0,7894.0,-14.0,376.0,-287.0,21.0,-25.0,8.0,20.0,-287.0,0.998764,-0.004284,0.048955,15380.0,6.0,574.0,-39.0,67.0,-115.0
2893.0,2764.0,2837.0,3067.0,3047.0,0.723145,0.034668,-0.688782,0.037842,-2.0,-2.0,-5.0,7768.0,-42.0,290.0,-414.0,-25.0,-109.0,90.0,-16.0,-418.0,0.998801,-0.00199,0.048748,15302.0,-336.0,384.0,-42.0,-35.0,-108.0
2882.0,2758.0,2835.0,3071.0,3051.0,0.7229,0.034973,-0.689026,0.037415,-1.0,-3.0,-5.0,7790.0,-47.0,283.0,-392.0,-38.0,-110.0,94.0,-28.0,-396.0,0.998811,-0.000995,0.048005,15838.0,8.0,584.0,-5.0,-67.0,-106.0
2886.0,2759.0,2839.0,3071.0,3047.0,0.722534,0.035889,-0.689392,0.03656,-1.0,-2.0,-5.0,7883.0,77.0,303.0,-299.0,65.0,-80.0,58.0,71.0,-302.0,0.998843,0.001453,0.046843,15758.0,534.0,552.0,-10.0,-34.0,-93.0
2887.0,2767.0,2842.0,3059.0,3047.0,0.722473,0.036194,-0.689514,0.036011,-2.0,-2.0,-4.0,7893.0,122.0,305.0,-290.0,100.0,-76.0,51.0,106.0,-292.0,0.998918,0.002638,0.046524,15936.0,458.0,650.0,-29.0,-23.0,-83.0
2886.0,2762.0,2842.0,3071.0,3043.0,0.722656,0.036682,-0.689331,0.035095,-2.0,2.0,-4.0,7968.0,176.0,328.0,-214.0,138.0,-56.0,31.0,142.0,-215.0,0.998874,0.004633,0.046941,15966.0,548.0,612.0,-23.0,62.0,-83.0
2883.0,2759.0,2839.0,3067.0,3039.0,0.722961,0.036987,-0.689026,0.034607,-2.0,3.0,-5.0,7952.0,177.0,321.0,-230.0,129.0,-70.0,45.0,135.0,-232.0,0.998838,0.005791,0.047746,15778.0,264.0,600.0,-30.0,87.0,-93.0
2885.0,2764.0,2831.0,3063.0,3039.0,0.723633,0.037598,-0.688293,0.033936,1.0,3.0,-4.0,7870.0,117.0,321.0,-311.0,53.0,-85.0,63.0,62.0,-314.0,0.998695,0.007699,0.049635,15422.0,168.0,712.0,24.0,91.0,-86.0
2886.0,2763.0,2850.0,3067.0,3051.0,0.723938,0.038025,-0.687988,0.033752,1.0,2.0,-4.0,7814.0,112.0,333.0,-367.0,41.0,-80.0,56.0,50.0,-370.0,0.998689,0.008613,0.050452,15298.0,172.0,730.0,36.0,68.0,-76.0
2891.0,2767.0,2842.0,3067.0,3043.0,0.72406,0.038757,-0.687805,0.033691,1.0,-1.0,-2.0,7717.0,143.0,359.0,-463.0,62.0,-57.0,26.0,69.0,-464.0,0.998636,0.009779,0.05082,15266.0,512.0,790.0,41.0,-16.0,-32.0
2883.0,2763.0,2842.0,3063.0,3039.0,0.723938,0.039001,-0.687988,0.03363,0.0,-3.0,-1.0,7743.0,173.0,375.0,-438.0,89.0,-37.0,5.0,94.0,-438.0,0.998745,0.010195,0.050368,15748.0,480.0,872.0,19.0,-46.0,-14.0
2883.0,2763.0,2839.0,3061.0,3045.0,0.723694,0.039001,-0.688171,0.033691,0.0,-1.0,1.0,7901.0,134.0,382.0,-280.0,51.0,-25.0,5.0,54.0,-280.0,0.998679,0.010079,0.049767,16236.0,84.0,730.0,11.0,-1.0,25.0
2895.0,2762.0,2832.0,3071.0,3053.0,0.723816,0.039001,-0.688049,0.033936,1.0,1.0,1.0,7936.0,110.0,374.0,-245.0,30.0,-36.0,20.0,34.0,-246.0,0.998689,0.009761,0.050128,15966.0,112.0,648.0,33.0,41.0,28.0
2886.0,2759.0,2838.0,3063.0,3043.0,0.723999,0.039124,-0.687866,0.03418,1.0,2.0,0.0,7938.0,100.0,370.0,-243.0,21.0,-44.0,29.0,26.0,-244.0,0.998703,0.009629,0.050652,15934.0,136.0,754.0,45.0,65.0,12.0
2891.0,2762.0,2835.0,3063.0,3047.0,0.724548,0.039551,-0.687195,0.034546,2.0,3.0,-2.0,7854.0,68.0,338.0,-326.0,-12.0,-90.0,73.0,-1.0,-330.0,0.998544,0.009833,0.052363,15188.0,-60.0,572.0,57.0,87.0,-29.0
2895.0,2769.0,2834.0,3070.0,3055.0,0.72467,0.039978,-0.687012,0.034668,3.0,1.0,-3.0,7737.0,29.0,314.0,-442.0,-55.0,-118.0,99.0,-40.0,-448.0,0.998486,0.010307,0.052766,14766.0,-142.0,528.0,81.0,38.0,-49.0
2879.0,2763.0,2837.0,3059.0,3051.0,0.724304,0.041016,-0.687317,0.034912,3.0,-4.0,-3.0,7705.0,35.0,370.0,-474.0,-58.0,-53.0,33.0,-49.0,-476.0,0.998517,0.011424,0.051749,15678.0,258.0,988.0,78.0,-82.0,-57.0
2887.0,2757.0,2833.0,3059.0,3039.0,0.723999,0.041443,-0.687622,0.034851,1.0,-5.0,-3.0,7786.0,61.0,408.0,-394.0,-37.0,-8.0,-8.0,-33.0,-394.0,0.998564,0.01208,0.050848,16122.0,244.0,1040.0,43.0,-96.0,-48.0
2887.0,2757.0,2835.0,3061.0,3055.0,0.723694,0.04187,-0.687988,0.034668,0.0,-1.0,-2.0,8057.0,78.0,498.0,-124.0,-27.0,89.0,-91.0,-35.0,-119.0,0.998689,0.0129,0.049854,16918.0,328.0,1246.0,9.0,-19.0,-31.0
2891.0,2761.0,2839.0,3071.0,3055.0,0.723877,0.041931,-0.687805,0.034546,-1.0,2.0,-2.0,8137.0,112.0,527.0,-44.0,3.0,114.0,-115.0,-9.0,-38.0,0.99867,0.013184,0.050357,16640.0,422.0,1144.0,-13.0,53.0,-32.0
2893.0,2767.0,2838.0,3071.0,3055.0,0.724854,0.041992,-0.686829,0.033875,-3.0,5.0,-3.0,8082.0,151.0,532.0,-98.0,33.0,97.0,-105.0,23.0,-92.0,0.998545,0.014344,0.053063,15612.0,376.0,988.0,-50.0,136.0,-58.0
2887.0,2763.0,2838.0,3063.0,3039.0,0.725281,0.042053,-0.68634,0.033447,-2.0,4.0,-4.0,7940.0,95.0,502.0,-238.0,-28.0,57.0,-66.0,-31.0,-234.0,0.998392,0.015088,0.054319,14982.0,-224.0,826.0,-45.0,104.0,-79.0
2879.0,2758.0,2839.0,3069.0,3045.0,0.725342,0.042419,-0.686279,0.032837,-1.0,-3.0,-4.0,7711.0,92.0,485.0,-467.0,-42.0,39.0,-60.0,-40.0,-464.0,0.99836,0.016467,0.05442,15208.0,410.0,1122.0,-10.0,-68.0,-71.0
2894.0,2765.0,2835.0,3063.0,3051.0,0.725037,0.042603,-0.686646,0.032471,-2.0,-5.0,-3.0,7773.0,115.0,512.0,-406.0,-25.0,74.0,-93.0,-28.0,-401.0,0.998453,0.017185,0.053435,16020.0,370.0,1160.0,-37.0,-114.0,-53.0
2891.0,2759.0,2839.0,3069.0,3046.0,0.724487,0.042542,-0.687256,0.03186,-2.0,-3.0,-2.0,7983.0,113.0,517.0,-196.0,-33.0,92.0,-98.0,-40.0,-191.0,0.998527,0.017849,0.051767,16572.0,278.0,1060.0,-35.0,-60.0,-32.0
2883.0,2754.0,2839.0,3061.0,3047.0,0.724487,0.042603,-0.687256,0.031616,-1.0,0.0,-2.0,8063.0,129.0,515.0,-116.0,-20.0,91.0,-94.0,-27.0,-111.0,0.99851,0.018273,0.051746,16524.0,350.0,996.0,-19.0,3.0,-43.0
2887.0,2791.0,2832.0,3063.0,3055.0,0.724915,0.042908,-0.686768,0.031128,-1.0,3.0,-3.0,7999.0,184.0,468.0,-179.0,24.0,33.0,-45.0,22.0,-176.0,0.998367,0.019454,0.052979,15578.0,572.0,792.0,-10.0,72.0,-59.0
2896.0,2774.0,2847.0,3061.0,3053.0,0.725159,0.043091,-0.686523,0.030823,-2.0,2.0,-3.0,7873.0,211.0,429.0,-305.0,45.0,-10.0,-11.0,50.0,-304.0,0.998333,0.020174,0.053634,14840.0,524.0,578.0,-25.0,54.0,-56.0
2883.0,2759.0,2838.0,3071.0,3055.0,0.724792,0.043335,-0.68689,0.030212,-1.0,-5.0,-2.0,7628.0,228.0,386.0,-550.0,53.0,-44.0,8.0,65.0,-550.0,0.998323,0.021313,0.052542,14946.0,670.0,832.0,-14.0,-108.0,-42.0
2891.0,2755.0,2831.0,3067.0,3039.0,0.724304,0.043518,-0.687439,0.029907,-2.0,-7.0,-2.0,7663.0,276.0,409.0,-516.0,96.0,-9.0,-28.0,104.0,-513.0,0.998433,0.021922,0.051045,15696.0,844.0,928.0,-30.0,-150.0,-35.0
2891.0,2763.0,2839.0,3058.0,3054.0,0.723511,0.043335,-0.688293,0.029175,-4.0,-4.0,0.0,7929.0,325.0,426.0,-250.0,140.0,27.0,-53.0,140.0,-245.0,0.998504,0.022545,0.048693,16786.0,708.0,882.0,-70.0,-74.0,0.0
2879.0,2767.0,2835.0,3061.0,3051.0,0.723511,0.043152,-0.688354,0.02887,-3.0,0.0,-1.0,8028.0,326.0,406.0,-152.0,140.0,7.0,-28.0,141.0,-148.0,0.998555,0.022697,0.048607,16512.0,634.0,652.0,-59.0,19.0,-1.0
2897.0,2768.0,2847.0,3071.0,3055.0,0.724121,0.04303,-0.687744,0.028503,-1.0,4.0,-1.0,7947.0,317.0,341.0,-232.0,127.0,-71.0,45.0,137.0,-232.0,0.998473,0.023111,0.05032,15314.0,524.0,462.0,-19.0,110.0,-13.0
2883.0,2759.0,2839.0,3063.0,3051.0,0.724426,0.043091,-0.687439,0.028503,0.0,3.0,-1.0,7799.0,311.0,303.0,-380.0,120.0,-116.0,82.0,137.0,-382.0,0.998454,0.023244,0.051177,14632.0,612.0,392.0,1.0,83.0,-5.0
2882.0,2775.0,2832.0,3057.0,3039.0,0.724182,0.043274,-0.687622,0.028503,0.0,-4.0,0.0,7623.0,299.0,295.0,-555.0,106.0,-119.0,78.0,127.0,-557.0,0.998394,0.023477,0.050555,15208.0,570.0,652.0,15.0,-75.0,6.0
2879.0,2766.0,2835.0,3071.0,3035.0,0.723816,0.043335,-0.688049,0.028503,0.0,-5.0,0.0,7667.0,294.0,314.0,-512.0,101.0,-90.0,52.0,119.0,-513.0,0.998513,0.02351,0.049432,15642.0,548.0,748.0,7.0,-105.0,11.0
2885.0,2758.0,2832.0,3067.0,3045.0,0.723083,0.043274,-0.688782,0.028503,-1.0,-4.0,0.0,7894.0,277.0,363.0,-286.0,85.0,-25.0,2.0,92.0,-284.0,0.99856,0.023316,0.047369,16620.0,502.0,858.0,-1.0,-79.0,20.0
2886.0,2757.0,2826.0,3071.0,3047.0,0.723022,0.043213,-0.688904,0.028564,-1.0,-1.0,0.0,8018.0,285.0,381.0,-162.0,95.0,-5.0,-12.0,97.0,-159.0,0.998655,0.023131,0.047122,16740.0,578.0,810.0,-13.0,-11.0,22.0
2903.0,2751.0,2847.0,3057.0,3039.0,0.72345,0.043213,-0.688416,0.028687,1.0,4.0,-1.0,8063.0,226.0,353.0,-117.0,37.0,-43.0,33.0,43.0,-118.0,0.998547,0.023028,0.048419,15960.0,380.0,646.0,34.0,108.0,-6.0
2883.0,2758.0,2845.0,3063.0,3057.0,0.723877,0.043396,-0.687927,0.028809,1.0,5.0,-1.0,7957.0,258.0,340.0,-222.0,68.0,-67.0,48.0,78.0,-223.0,0.99845,0.02319,0.049701,15100.0,736.0,576.0,35.0,124.0,-10.0
2886.0,2765.0,2823.0,3089.0,3039.0,0.72406,0.043579,-0.687744,0.02887,1.0,-2.0,-1.0,7536.0,158.0,270.0,-643.0,-33.0,-141.0,109.0,-6.0,-649.0,0.998452,0.023398,0.050205,13792.0,-200.0,300.0,28.0,-41.0,-3.0
2883.0,2759.0,2855.0,3071.0,3059.0,0.72345,0.043823,-0.688354,0.029175,3.0,-8.0,-1.0,7388.0,88.0,247.0,-792.0,-102.0,-150.0,119.0,-71.0,-800.0,0.998537,0.023243,0.048478,14038.0,-214.0,354.0,89.0,-180.0,-8.0
2894.0,2755.0,2831.0,3062.0,3038.0,0.72113,0.044983,-0.690674,0.030151,6.0,-15.0,0.0,7580.0,134.0,298.0,-602.0,-56.0,-45.0,24.0,-39.0,-604.0,0.998844,0.023228,0.041884,16574.0,842.0,944.0,156.0,-325.0,0.0
2903.0,2767.0,2834.0,3061.0,3070.0,0.720215,0.045593,-0.691589,0.030396,4.0,-10.0,0.0,7909.0,238.0,355.0,-274.0,44.0,33.0,-48.0,45.0,-271.0,0.998958,0.023631,0.039259,17928.0,1034.0,1028.0,101.0,-229.0,1.0
2896.0,2751.0,2851.0,3071.0,3039.0,0.720215,0.045959,-0.691528,0.030579,0.0,5.0,0.0,8383.0,316.0,376.0,199.0,120.0,53.0,-57.0,109.0,203.0,0.998909,0.023909,0.039321,17400.0,786.0,674.0,9.0,126.0,7.0
2887.0,2753.0,2846.0,3067.0,3047.0,0.721008,0.045898,-0.690735,0.030518,-2.0,10.0,0.0,8345.0,313.0,359.0,162.0,116.0,18.0,-23.0,110.0,165.0,0.998853,0.024027,0.041563,16190.0,620.0,536.0,-30.0,230.0,13.0
2881.0,2763.0,2835.0,3071.0,3047.0,0.722595,0.045532,-0.689087,0.030396,-2.0,7.0,-1.0,7842.0,187.0,271.0,-338.0,-8.0,-107.0,90.0,9.0,-342.0,0.99863,0.023912,0.046154,13826.0,-204.0,260.0,-23.0,172.0,-14.0
2894.0,2749.0,2847.0,3069.0,3034.0,0.722778,0.045593,-0.688904,0.030457,1.0,1.0,-2.0,7596.0,104.0,245.0,-584.0,-92.0,-137.0,117.0,-65.0,-591.0,0.998627,0.023944,0.046669,13896.0,-140.0,400.0,27.0,29.0,-32.0
2895.0,2766.0,2832.0,3071.0,3037.0,0.721985,0.046204,-0.689636,0.030518,2.0,-7.0,-2.0,7586.0,100.0,325.0,-594.0,-101.0,-39.0,21.0,-84.0,-597.0,0.998634,0.024625,0.044461,15774.0,272.0,906.0,47.0,-158.0,-41.0
2879.0,2759.0,2861.0,3091.0,3055.0,0.721436,0.046509,-0.690186,0.030579,2.0,-7.0,-2.0,7753.0,103.0,373.0,-428.0,-100.0,21.0,-29.0,-93.0,-429.0,0.998693,0.024896,0.042885,16602.0,262.0,1044.0,48.0,-154.0,-28.0
2879.0,2770.0,2833.0,3057.0,3055.0,0.721069,0.046936,-0.690552,0.03064,0.0,-1.0,-1.0,8109.0,247.0,477.0,-72.0,39.0,134.0,-140.0,25.0,-65.0,0.998748,0.025372,0.041815,17040.0,1148.0,1188.0,10.0,-5.0,-12.0
2874.0,2737.0,2823.0,3071.0,3047.0,0.721375,0.046997,-0.690308,0.030396,-2.0,2.0,-1.0,8169.0,300.0,505.0,-13.0,88.0,156.0,-165.0,70.0,-4.0,0.998798,0.02584,0.042572,16592.0,734.0,1248.0,-45.0,68.0,-9.0
2910.0,2763.0,2821.0,3059.0,3031.0,0.722229,0.04657,-0.689453,0.029907,-3.0,3.0,-1.0,7983.0,268.0,480.0,-198.0,54.0,111.0,-125.0,45.0,-191.0,0.998672,0.026029,0.044995,15080.0,300.0,798.0,-55.0,90.0,-5.0
2899.0,2762.0,2819.0,3071.0,3039.0,0.722412,0.046509,-0.68927,0.029846,-1.0,1.0,-1.0,7795.0,191.0,442.0,-385.0,-22.0,69.0,-84.0,-21.0,-381.0,0.99865,0.026053,0.045514,14398.0,-52.0,608.0,-12.0,24.0,-20.0
2895.0,2755.0,2843.0,3063.0,3047.0,0.72168,0.04718,-0.689941,0.029907,3.0,-8.0,-3.0,7646.0,173.0,455.0,-534.0,-46.0,98.0,-116.0,-44.0,-530.0,0.998655,0.026829,0.043471,15386.0,404.0,1022.0,76.0,-163.0,-48.0
2894.0,2771.0,2831.0,3063.0,3031.0,0.721008,0.047607,-0.690613,0.03009,3.0,-9.0,-2.0,7733.0,186.0,468.0,-448.0,-35.0,127.0,-142.0,-38.0,-443.0,0.99874,0.027089,0.041546,16112.0,540.0,1056.0,88.0,-201.0,-24.0
2894.0,2743.0,2815.0,3054.0,3026.0,0.719849,0.048035,-0.691833,0.030457,0.0,-7.0,2.0,8040.0,346.0,519.0,-143.0,124.0,206.0,-224.0,103.0,-131.0,0.998957,0.027014,0.038169,17098.0,1164.0,1176.0,15.0,-147.0,55.0
2890.0,2773.0,2839.0,3067.0,3069.0,0.719543,0.047791,-0.692078,0.030457,-2.0,-3.0,2.0,8172.0,417.0,516.0,-10.0,198.0,209.0,-229.0,173.0,3.0,0.998871,0.026618,0.037415,17042.0,1206.0,1014.0,-39.0,-67.0,66.0
2901.0,2765.0,2846.0,3071.0,3039.0,0.719788,0.047119,-0.691895,0.030273,-3.0,1.0,1.0,8067.0,383.0,429.0,-115.0,170.0,117.0,-139.0,158.0,-106.0,0.998887,0.025939,0.038072,15242.0,464.0,530.0,-54.0,44.0,40.0
2893.0,2757.0,2815.0,3063.0,3043.0,0.719849,0.046936,-0.691895,0.030273,-1.0,-1.0,0.0,7848.0,325.0,363.0,-335.0,114.0,50.0,-75.0,114.0,-329.0,0.99896,0.025682,0.038177,14322.0,300.0,358.0,-17.0,-12.0,22.0
2865.0,2741.0,2830.0,3061.0,3024.0,0.718689,0.04718,-0.693054,0.030518,2.0,-10.0,-1.0,7619.0,228.0,302.0,-565.0,18.0,16.0,-39.0,28.0,-563.0,0.99906,0.025515,0.034895,15172.0,216.0,530.0,52.0,-217.0,-4.0
2875.0,2763.0,2849.0,3055.0,3059.0,0.717712,0.047424,-0.694031,0.030701,2.0,-12.0,0.0,7684.0,213.0,286.0,-500.0,4.0,22.0,-39.0,12.0,-498.0,0.999141,0.02546,0.032126,15930.0,440.0,526.0,68.0,-252.0,10.0
2895.0,2751.0,2815.0,3063.0,3031.0,0.716064,0.047607,-0.695679,0.031067,0.0,-9.0,1.0,7972.0,284.0,290.0,-213.0,79.0,64.0,-78.0,75.0,-209.0,0.99926,0.024955,0.027478,16912.0,882.0,632.0,7.0,-187.0,41.0
2891.0,2763.0,2811.0,3071.0,3039.0,0.715637,0.047424,-0.696167,0.031006,-3.0,-5.0,2.0,8131.0,323.0,281.0,-55.0,120.0,66.0,-80.0,113.0,-50.0,0.999347,0.024707,0.0262,17128.0,834.0,454.0,-47.0,-92.0,48.0
2892.0,2754.0,2857.0,3101.0,3055.0,0.715759,0.046631,-0.696106,0.030701,-3.0,2.0,0.0,8060.0,241.0,189.0,-126.0,44.0,-28.0,19.0,49.0,-125.0,0.999352,0.024011,0.026516,15168.0,40.0,-48.0,-65.0,57.0,22.0
2883.0,2767.0,2839.0,3056.0,3047.0,0.71582,0.046387,-0.696045,0.030701,-2.0,0.0,0.0,7858.0,167.0,120.0,-328.0,-26.0,-98.0,90.0,-8.0,-331.0,0.999334,0.023671,0.026711,14490.0,-84.0,-100.0,-26.0,14.0,4.0
2864.0,2736.0,2831.0,3063.0,3031.0,0.715576,0.046387,-0.69635,0.030701,0.0,-3.0,-1.0,7704.0,124.0,93.0,-483.0,-69.0,-119.0,112.0,-45.0,-487.0,0.999431,0.02363,0.025937,14598.0,62.0,68.0,15.0,-66.0,-11.0
2907.0,2748.0,2829.0,3063.0,3031.0,0.714417,0.046631,-0.697449,0.030762,0.0,-8.0,-1.0,7661.0,109.0,95.0,-526.0,-85.0,-91.0,86.0,-63.0,-529.0,0.999407,0.023718,0.022728,15626.0,160.0,174.0,17.0,-174.0,-4.0
2897.0,2759.0,2861.0,3071.0,3055.0,0.713745,0.046631,-0.69812,0.030823,0.0,-8.0,0.0,7776.0,129.0,121.0,-411.0,-63.0,-49.0,45.0,-48.0,-413.0,0.999434,0.023529,0.020836,16356.0,446.0,418.0,2.0,-176.0,21.0
2896.0,2750.0,2823.0,3087.0,3051.0,0.713074,0.046265,-0.698914,0.03064,-3.0,-2.0,0.0,8060.0,166.0,163.0,-128.0,-23.0,9.0,-9.0,-21.0,-128.0,0.999589,0.023151,0.018792,16762.0,218.0,292.0,-53.0,-40.0,10.0
2887.0,2738.0,2806.0,3057.0,3037.0,0.713135,0.046082,-0.698853,0.030518,-2.0,1.0,-2.0,8099.0,113.0,143.0,-89.0,-75.0,-12.0,18.0,-71.0,-90.0,0.999565,0.02307,0.018974,16330.0,-134.0,124.0,-34.0,38.0,-25.0
2910.0,2727.0,2834.0,3067.0,3038.0,0.713684,0.046509,-0.698242,0.030334,1.0,3.0,-4.0,7979.0,58.0,121.0,-208.0,-138.0,-47.0,56.0,-127.0,-212.0,0.99947,0.024024,0.02056,15290.0,170.0,168.0,38.0,90.0,-89.0
2879.0,2783.0,2831.0,3056.0,3059.0,0.713928,0.047058,-0.697998,0.03009,1.0,2.0,-6.0,7832.0,55.0,107.0,-355.0,-151.0,-66.0,73.0,-134.0,-360.0,0.999473,0.025186,0.021183,14742.0,36.0,136.0,43.0,48.0,-116.0
2879.0,2751.0,2843.0,3055.0,3043.0,0.713623,0.04834,-0.698242,0.029724,3.0,-4.0,-6.0,7730.0,60.0,167.0,-457.0,-165.0,1.0,6.0,-152.0,-461.0,0.999437,0.027484,0.020262,15746.0,428.0,758.0,75.0,-89.0,-129.0
2879.0,2753.0,2847.0,3071.0,3039.0,0.713318,0.049072,-0.698486,0.029419,2.0,-4.0,-6.0,7821.0,132.0,228.0,-365.0,-104.0,69.0,-65.0,-101.0,-366.0,0.999373,0.028911,0.019397,16218.0,694.0,802.0,50.0,-90.0,-128.0
2883.0,2759.0,2835.0,3067.0,3038.0,0.713013,0.049988,-0.698792,0.028442,-2.0,-3.0,-5.0,7958.0,205.0,268.0,-228.0,-53.0,117.0,-115.0,-58.0,-227.0,0.999338,0.031533,0.018388,16164.0,530.0,590.0,-27.0,-60.0,-100.0
2887.0,2769.0,2855.0,3067.0,3057.0,0.712891,0.050171,-0.698914,0.027954,-2.0,-3.0,-5.0,7997.0,225.0,275.0,-189.0,-40.0,127.0,-125.0,-48.0,-187.0,0.999303,0.032458,0.017997,16212.0,568.0,598.0,-41.0,-48.0,-93.0
2895.0,2768.0,2847.0,3059.0,3063.0,0.71283,0.050598,-0.698975,0.026917,-2.0,-1.0,-5.0,8029.0,193.0,248.0,-156.0,-89.0,102.0,-94.0,-94.0,-157.0,0.999223,0.034508,0.017725,15884.0,182.0,304.0,-25.0,-2.0,-105.0
2897.0,2758.0,2827.0,3055.0,3055.0,0.71283,0.050964,-0.698975,0.02655,0.0,-1.0,-6.0,7930.0,178.0,205.0,-255.0,-113.0,60.0,-52.0,-110.0,-257.0,0.999206,0.035542,0.017668,15150.0,274.0,128.0,3.0,-9.0,-118.0
2890.0,2755.0,2832.0,3071.0,3029.0,0.712219,0.052124,-0.699585,0.025757,1.0,-6.0,-6.0,7763.0,200.0,171.0,-422.0,-113.0,41.0,-36.0,-101.0,-425.0,0.999201,0.038209,0.015784,15392.0,600.0,346.0,33.0,-135.0,-135.0
2891.0,2768.0,2845.0,3062.0,3045.0,0.71167,0.052734,-0.700073,0.025269,0.0,-8.0,-6.0,7766.0,249.0,167.0,-418.0,-76.0,50.0,-49.0,-65.0,-419.0,0.999107,0.039679,0.014229,15556.0,758.0,302.0,21.0,-164.0,-134.0
2893.0,2759.0,2831.0,3071.0,3037.0,0.710327,0.053894,-0.701416,0.024292,0.0,-8.0,-6.0,7852.0,339.0,132.0,-332.0,-9.0,47.0,-50.0,0.0,-331.0,0.999088,0.042487,0.010266,16196.0,998.0,180.0,13.0,-183.0,-121.0
2887.0,2769.0,2829.0,3063.0,3047.0,0.709778,0.054443,-0.701965,0.023743,0.0,-7.0,-6.0,7958.0,391.0,123.0,-226.0,30.0,52.0,-58.0,33.0,-224.0,0.999064,0.043952,0.008629,16528.0,1112.0,208.0,12.0,-140.0,-120.0
2877.0,2753.0,2845.0,3055.0,3059.0,0.70929,0.055603,-0.702332,0.022705,0.0,-2.0,-6.0,8035.0,485.0,73.0,-147.0,100.0,13.0,-25.0,104.0,-142.0,0.998838,0.046984,0.007246,15984.0,1178.0,-20.0,11.0,-25.0,-128.0
2893.0,2763.0,2850.0,3071.0,3055.0,0.709229,0.056213,-0.702393,0.022217,0.0,-1.0,-6.0,7962.0,510.0,42.0,-220.0,112.0,-15.0,0.0,123.0,-214.0,0.998811,0.048526,0.006983,15336.0,1214.0,-122.0,20.0,-12.0,-128.0
2891.0,2768.0,2850.0,3071.0,3051.0,0.708801,0.057434,-0.702759,0.021179,0.0,-4.0,-6.0,7768.0,576.0,7.0,-413.0,152.0,-39.0,17.0,176.0,-404.0,0.998665,0.051651,0.005679,15184.0,1300.0,6.0,9.0,-83.0,-120.0
2891.0,2768.0,2835.0,3058.0,3035.0,0.708435,0.058044,-0.703125,0.02063,0.0,-5.0,-5.0,7746.0,621.0,3.0,-434.0,184.0,-34.0,8.0,209.0,-423.0,0.998632,0.053231,0.004552,15458.0,1508.0,-18.0,5.0,-110.0,-109.0
2883.0,2753.0,2845.0,3063.0,3043.0,0.707947,0.058533,-0.703491,0.020142,-1.0,-6.0,-4.0,7761.0,668.0,-15.0,-418.0,221.0,-41.0,12.0,246.0,-405.0,0.998427,0.054537,0.003268,15618.0,1638.0,-140.0,0.0,-115.0,-91.0
2896.0,2769.0,2839.0,3071.0,3051.0,0.707214,0.059204,-0.704224,0.019226,-1.0,-4.0,-3.0,7886.0,715.0,-40.0,-292.0,250.0,-48.0,17.0,269.0,-277.0,0.998351,0.056661,0.001086,16280.0,1394.0,-206.0,-16.0,-73.0,-53.0
2895.0,2755.0,2839.0,3063.0,3039.0,0.707092,0.059387,-0.704346,0.018921,-1.0,-1.0,-2.0,7934.0,711.0,-57.0,-244.0,241.0,-62.0,33.0,259.0,-229.0,0.998322,0.057331,0.000708,16070.0,1404.0,-222.0,-8.0,-19.0,-34.0
2891.0,2762.0,2823.0,3046.0,3051.0,0.707092,0.059692,-0.704346,0.018494,-1.0,1.0,-2.0,7908.0,682.0,-94.0,-269.0,203.0,-99.0,74.0,227.0,-256.0,0.998283,0.058364,0.000655,15590.0,1242.0,-274.0,-6.0,24.0,-26.0
2882.0,2762.0,2843.0,3054.0,3039.0,0.707153,0.059814,-0.704285,0.018372,0.0,0.0,-2.0,7842.0,659.0,-113.0,-335.0,177.0,-119.0,96.0,208.0,-324.0,0.998272,0.058718,0.000809,15244.0,1194.0,-336.0,4.0,15.0,-24.0
2901.0,2767.0,2832.0,3071.0,3039.0,0.706909,0.060059,-0.704529,0.018005,-1.0,-2.0,-1.0,7760.0,678.0,-107.0,-417.0,190.0,-107.0,82.0,224.0,-404.0,0.998239,0.059541,7.7e-05,15428.0,1378.0,-166.0,-22.0,-37.0,-13.0
2891.0,2766.0,2810.0,3063.0,3043.0,0.706726,0.060059,-0.704712,0.017822,-1.0,-2.0,-1.0,7786.0,665.0,-101.0,-391.0,175.0,-97.0,74.0,207.0,-379.0,0.998217,0.059771,-0.000447,15824.0,1230.0,-186.0,-21.0,-42.0,-9.0
2894.0,2749.0,2815.0,3071.0,3023.0,0.706543,0.06012,-0.704895,0.0177,0.0,-1.0,0.0,7840.0,648.0,-98.0,-337.0,156.0,-90.0,70.0,184.0,-326.0,0.998205,0.060001,-0.000975,15758.0,1374.0,-176.0,8.0,-3.0,9.0
2903.0,2768.0,2822.0,3057.0,3063.0,0.706543,0.060181,-0.704895,0.0177,-1.0,0.0,0.0,7854.0,668.0,-90.0,-323.0,175.0,-81.0,59.0,201.0,-311.0,0.998208,0.060087,-0.000982,15804.0,1456.0,-126.0,0.0,11.0,15.0
2879.0,2768.0,2819.0,3059.0,3031.0,0.706848,0.059998,-0.70459,0.017639,-2.0,2.0,1.0,7892.0,659.0,-91.0,-285.0,167.0,-90.0,69.0,192.0,-274.0,0.998193,0.059962,-0.000101,15804.0,1162.0,-300.0,-27.0,65.0,30.0
2879.0,2755.0,2821.0,3099.0,3017.0,0.707092,0.059814,-0.704346,0.0177,-1.0,3.0,1.0,7865.0,638.0,-102.0,-312.0,149.0,-107.0,87.0,178.0,-302.0,0.998192,0.059655,0.000612,15540.0,1222.0,-240.0,-5.0,79.0,38.0
2891.0,2767.0,2863.0,3071.0,3014.0,0.707581,0.059753,-0.703857,0.018127,1.0,3.0,2.0,7781.0,640.0,-103.0,-396.0,156.0,-119.0,97.0,191.0,-386.0,0.998238,0.059042,0.002013,15162.0,1326.0,-200.0,23.0,69.0,46.0
2899.0,2759.0,2822.0,3059.0,3047.0,0.707642,0.059692,-0.703796,0.018311,0.0,1.0,2.0,7719.0,633.0,-96.0,-458.0,152.0,-114.0,92.0,189.0,-448.0,0.998257,0.058708,0.002199,15104.0,1184.0,-108.0,7.0,30.0,53.0
2898.0,2761.0,2835.0,3071.0,3039.0,0.707642,0.059509,-0.703796,0.018494,-1.0,-1.0,3.0,7714.0,620.0,-80.0,-463.0,143.0,-98.0,77.0,179.0,-454.0,0.998272,0.058191,0.002228,15482.0,1142.0,-56.0,-7.0,-9.0,70.0
2883.0,2762.0,2849.0,3063.0,3029.0,0.707458,0.058716,-0.704041,0.01886,-2.0,-1.0,3.0,7822.0,555.0,-44.0,-356.0,91.0,-58.0,44.0,116.0,-350.0,0.998374,0.056522,0.001733,16074.0,870.0,-46.0,-27.0,-19.0,84.0
2885.0,2767.0,2826.0,3058.0,3043.0,0.707458,0.05835,-0.704102,0.019104,-1.0,0.0,3.0,7894.0,502.0,-31.0,-285.0,46.0,-44.0,36.0,66.0,-282.0,0.998475,0.055658,0.001699,16230.0,706.0,36.0,-8.0,2.0,71.0
2894.0,2757.0,2845.0,3071.0,3039.0,0.707703,0.057983,-0.703857,0.019653,0.0,2.0,1.0,7948.0,447.0,-19.0,-231.0,1.0,-39.0,36.0,17.0,-230.0,0.998523,0.054404,0.002452,15900.0,714.0,4.0,15.0,54.0,44.0
2893.0,2771.0,2834.0,3058.0,3063.0,0.707886,0.057922,-0.703674,0.019897,1.0,2.0,1.0,7936.0,432.0,-17.0,-244.0,-10.0,-41.0,39.0,7.0,-244.0,0.998547,0.054002,0.002986,15736.0,830.0,-56.0,26.0,65.0,35.0
2897.0,2770.0,2811.0,3047.0,3053.0,0.028198,-0.000183,-1.21228,-1.302429,27299.0,-7781.0,-21818.0,-25752.0,6259.0,-30933.0,-26315.0,-19609.0,32740.0,14083.0,-21334.0,9252.0,0.068845,3.157808,0.227493,15348.0,922.0,12.0,-9.0,48.0,35.0
2897.0,2769.0,2835.0,3071.0,3023.0,0.708435,0.057617,-0.703125,0.020325,-1.0,0.0,1.0,7777.0,447.0,-2.0,-403.0,12.0,-39.0,33.0,37.0,-401.0,0.998579,0.053054,0.004589,15158.0,736.0,-72.0,-10.0,16.0,43.0
2885.0,2763.0,2838.0,3063.0,3055.0,0.708191,0.057251,-0.703369,0.020691,0.0,-2.0,2.0,7794.0,425.0,41.0,-386.0,0.0,8.0,-11.0,18.0,-385.0,0.998608,0.051983,0.003957,15902.0,826.0,240.0,1.0,-42.0,52.0
2895.0,2741.0,2851.0,3059.0,3055.0,0.708069,0.057007,-0.703491,0.020874,-1.0,-2.0,2.0,7858.0,415.0,56.0,-322.0,-5.0,26.0,-28.0,8.0,-321.0,0.99862,0.05136,0.003648,16100.0,752.0,180.0,-3.0,-32.0,60.0
2896.0,2771.0,2843.0,3063.0,3058.0,0.708008,0.056763,-0.703552,0.021118,0.0,-1.0,2.0,7918.0,413.0,61.0,-262.0,-2.0,32.0,-33.0,7.0,-261.0,0.998638,0.050661,0.003513,16168.0,846.0,176.0,3.0,-10.0,64.0
2895.0,2768.0,2839.0,3087.0,3055.0,0.708191,0.056458,-0.70343,0.021545,0.0,1.0,1.0,7980.0,403.0,77.0,-201.0,-3.0,44.0,-45.0,2.0,-200.0,0.998759,0.049654,0.003997,16114.0,642.0,224.0,9.0,30.0,35.0
2879.0,2768.0,2815.0,3055.0,3063.0,0.708374,0.056396,-0.703247,0.021729,1.0,2.0,1.0,7976.0,394.0,79.0,-205.0,-10.0,41.0,-41.0,-4.0,-205.0,0.998775,0.049339,0.004529,15844.0,774.0,142.0,24.0,49.0,31.0
2871.0,2766.0,2849.0,3067.0,3059.0,0.708557,0.056396,-0.703064,0.021973,1.0,2.0,1.0,7945.0,402.0,76.0,-237.0,0.0,34.0,-36.0,7.0,-236.0,0.9988,0.049024,0.005056,15706.0,836.0,130.0,26.0,49.0,26.0
2887.0,2765.0,2843.0,3055.0,3027.0,0.708801,0.056335,-0.70282,0.022339,0.0,0.0,1.0,7842.0,396.0,83.0,-340.0,0.0,35.0,-38.0,12.0,-339.0,0.998836,0.048461,0.005769,15362.0,758.0,228.0,20.0,6.0,34.0
2865.0,2762.0,2832.0,3056.0,3031.0,0.708679,0.056213,-0.702881,0.022522,0.0,-2.0,1.0,7805.0,406.0,89.0,-376.0,12.0,43.0,-48.0,24.0,-374.0,0.998766,0.048014,0.005532,15468.0,900.0,220.0,13.0,-31.0,41.0
2887.0,2762.0,2832.0,3061.0,3027.0,0.708496,0.056091,-0.703064,0.022705,0.0,-3.0,2.0,7811.0,411.0,95.0,-371.0,21.0,53.0,-58.0,32.0,-369.0,0.998783,0.047555,0.005037,15740.0,852.0,212.0,3.0,-58.0,46.0
2895.0,2769.0,2825.0,3055.0,3035.0,0.70813,0.055725,-0.703491,0.023132,0.0,-2.0,2.0,7933.0,381.0,105.0,-250.0,1.0,72.0,-73.0,4.0,-249.0,0.998904,0.046374,0.003978,16342.0,792.0,218.0,19.0,-44.0,64.0
2881.0,2759.0,2834.0,3069.0,3039.0,0.708069,0.055603,-0.703552,0.023438,0.0,-1.0,2.0,7981.0,398.0,101.0,-202.0,23.0,69.0,-72.0,24.0,-200.0,0.998933,0.045763,0.003833,16200.0,844.0,158.0,19.0,-8.0,56.0
2895.0,2766.0,2847.0,3071.0,3047.0,0.70813,0.055542,-0.703491,0.023682,1.0,1.0,1.0,8002.0,375.0,94.0,-181.0,3.0,61.0,-62.0,4.0,-180.0,0.998957,0.045342,0.004024,16098.0,598.0,182.0,24.0,26.0,42.0
2891.0,2767.0,2843.0,3053.0,3063.0,0.708496,0.055603,-0.703064,0.024353,2.0,2.0,1.0,7963.0,350.0,77.0,-220.0,-14.0,34.0,-34.0,-8.0,-220.0,0.998944,0.044546,0.005169,15644.0,698.0,112.0,48.0,60.0,25.0
2903.0,2765.0,2835.0,3046.0,3027.0,0.708679,0.055603,-0.702881,0.024597,1.0,1.0,1.0,7887.0,342.0,64.0,-296.0,-20.0,17.0,-17.0,-8.0,-296.0,0.998969,0.044232,0.005698,15304.0,592.0,76.0,35.0,43.0,26.0
2887.0,2759.0,2836.0,3067.0,3035.0,0.70874,0.055664,-0.70282,0.02478,1.0,0.0,1.0,7825.0,328.0,62.0,-358.0,-33.0,13.0,-13.0,-18.0,-359.0,0.998992,0.044071,0.005873,15316.0,528.0,158.0,28.0,5.0,23.0
2899.0,2767.0,2847.0,3059.0,3058.0,0.708496,0.055664,-0.703064,0.025208,1.0,-3.0,1.0,7809.0,315.0,80.0,-375.0,-40.0,37.0,-35.0,-27.0,-376.0,0.999042,0.043431,0.005205,15676.0,614.0,238.0,25.0,-47.0,23.0
2891.0,2747.0,2847.0,3071.0,3037.0,0.708313,0.055603,-0.703247,0.025391,0.0,-3.0,1.0,7826.0,303.0,95.0,-358.0,-49.0,56.0,-53.0,-39.0,-359.0,0.999062,0.043057,0.004704,15766.0,526.0,244.0,21.0,-57.0,30.0
2895.0,2761.0,2843.0,3069.0,3035.0,0.707886,0.055359,-0.703674,0.025757,0.0,-3.0,1.0,7926.0,288.0,107.0,-258.0,-57.0,77.0,-72.0,-54.0,-259.0,0.999094,0.042127,0.003543,16208.0,584.0,232.0,8.0,-52.0,43.0
2887.0,2768.0,2853.0,3056.0,3039.0,0.707825,0.055237,-0.703735,0.026001,0.0,-1.0,1.0,8010.0,293.0,115.0,-174.0,-47.0,87.0,-82.0,-49.0,-175.0,0.999115,0.0416,0.003397,16574.0,608.0,314.0,12.0,-13.0,36.0
2887.0,2765.0,2832.0,3063.0,3055.0,0.708313,0.055054,-0.703247,0.02655,1.0,4.0,1.0,8077.0,248.0,72.0,-108.0,-84.0,32.0,-23.0,-82.0,-111.0,0.999161,0.040648,0.004825,15818.0,506.0,-56.0,40.0,108.0,44.0
2891.0,2759.0,2827.0,3063.0,3051.0,0.708679,0.054993,-0.702881,0.026917,1.0,4.0,2.0,7921.0,293.0,37.0,-264.0,-35.0,-11.0,12.0,-23.0,-265.0,0.999195,0.040106,0.005885,14780.0,886.0,-184.0,31.0,93.0,50.0
2885.0,2767.0,2845.0,3071.0,3039.0,0.70874,0.054932,-0.702759,0.027039,-1.0,0.0,1.0,7755.0,331.0,22.0,-429.0,4.0,-28.0,22.0,23.0,-428.0,0.999117,0.039861,0.006156,14590.0,812.0,-2.0,-1.0,18.0,38.0
2895.0,2759.0,2839.0,3063.0,3047.0,0.708191,0.054749,-0.703369,0.0271,-1.0,-5.0,0.0,7659.0,309.0,19.0,-526.0,-13.0,-18.0,14.0,9.0,-526.0,0.999207,0.039423,0.004543,15390.0,530.0,96.0,0.0,-112.0,15.0
2881.0,2755.0,2842.0,3071.0,3045.0,0.707703,0.054749,-0.703857,0.027161,0.0,-6.0,1.0,7735.0,324.0,35.0,-450.0,2.0,9.0,-12.0,18.0,-449.0,0.999218,0.039257,0.003168,16040.0,798.0,214.0,8.0,-134.0,25.0
2885.0,2767.0,2846.0,3061.0,3035.0,-6.1e-05,-0.000366,6.1e-05,0.478699,370.0,49.0,-19862.0,-15753.0,-30082.0,20060.0,-15750.0,-30082.0,18182.0,3601.0,6895.0,4170.0,-0.000351,5.8e-05,0.229152,16608.0,1056.0,158.0,-37.0,-74.0,42.0
2891.0,2755.0,2838.0,3059.0,3047.0,0.706909,0.054199,-0.704712,0.027039,-3.0,-1.0,1.0,8055.0,429.0,52.0,-130.0,113.0,44.0,-57.0,112.0,-125.0,0.999266,0.038519,0.000895,16628.0,888.0,38.0,-47.0,-9.0,29.0
2895.0,2763.0,2846.0,3071.0,3039.0,0.707336,0.054016,-0.704346,0.026917,0.0,3.0,-1.0,8006.0,376.0,0.0,-180.0,60.0,-16.0,7.0,68.0,-177.0,0.999327,0.038498,0.002029,15524.0,584.0,-154.0,2.0,74.0,-10.0
2879.0,2753.0,2843.0,3058.0,3045.0,0.70752,0.054199,-0.704102,0.026917,1.0,2.0,-1.0,7920.0,375.0,-8.0,-265.0,57.0,-29.0,20.0,70.0,-262.0,0.999249,0.03879,0.002612,15294.0,818.0,-42.0,23.0,59.0,-20.0
2893.0,2765.0,2834.0,3066.0,3047.0,0.707642,0.054382,-0.703979,0.026917,1.0,1.0,-1.0,7822.0,387.0,-22.0,-363.0,66.0,-46.0,35.0,84.0,-360.0,0.999258,0.039069,0.002937,15074.0,832.0,-144.0,24.0,25.0,-21.0
2891.0,2759.0,2843.0,3063.0,3047.0,0.707275,0.054688,-0.704285,0.026855,0.0,-4.0,-1.0,7742.0,397.0,-16.0,-443.0,73.0,-31.0,19.0,93.0,-439.0,0.999184,0.03953,0.001952,15556.0,842.0,36.0,10.0,-69.0,-2.0
2887.0,2767.0,2837.0,3063.0,3043.0,0.707031,0.054688,-0.704529,0.026794,-1.0,-4.0,0.0,7809.0,408.0,2.0,-376.0,83.0,-8.0,-3.0,98.0,-372.0,0.999178,0.039577,0.00126,16128.0,868.0,110.0,-6.0,-73.0,9.0
2885.0,2762.0,2837.0,3067.0,3039.0,0.706848,0.054626,-0.704712,0.026794,-1.0,-2.0,0.0,7888.0,405.0,8.0,-297.0,81.0,1.0,-11.0,91.0,-293.0,0.999176,0.039461,0.000749,16258.0,770.0,58.0,-15.0,-44.0,19.0
2887.0,2759.0,2831.0,3095.0,3051.0,0.706848,0.054382,-0.704773,0.026794,-1.0,1.0,1.0,7969.0,380.0,-19.0,-216.0,59.0,-24.0,15.0,69.0,-213.0,0.999249,0.039112,0.00069,16090.0,684.0,-94.0,-10.0,26.0,24.0
2895.0,2759.0,2838.0,3056.0,3045.0,0.707031,0.05426,-0.70459,0.026855,-1.0,2.0,1.0,7977.0,363.0,-21.0,-208.0,44.0,-31.0,24.0,55.0,-206.0,0.999248,0.038883,0.001223,15956.0,658.0,-50.0,-7.0,56.0,23.0
2887.0,2753.0,2831.0,3057.0,3045.0,0.707581,0.054016,-0.704102,0.026978,-1.0,3.0,0.0,7892.0,327.0,-32.0,-294.0,12.0,-54.0,50.0,29.0,-293.0,0.999332,0.038452,0.002721,15314.0,568.0,-106.0,-13.0,78.0,14.0
2896.0,2763.0,2837.0,3059.0,3043.0,0.707703,0.053955,-0.703918,0.026978,-1.0,1.0,0.0,7779.0,309.0,-48.0,-406.0,-5.0,-73.0,70.0,18.0,-406.0,0.999241,0.038388,0.003158,14854.0,500.0,-198.0,-16.0,41.0,13.0
2887.0,2768.0,2845.0,3067.0,3051.0,0.707458,0.053772,-0.704163,0.027039,-1.0,-3.0,0.0,7722.0,276.0,-14.0,-463.0,-35.0,-34.0,34.0,-13.0,-464.0,0.999239,0.038004,0.002492,15586.0,520.0,96.0,-2.0,-58.0,9.0
2887.0,2763.0,2835.0,3063.0,3047.0,0.707214,0.053772,-0.704407,0.027039,0.0,-3.0,0.0,7762.0,291.0,4.0,-423.0,-20.0,-10.0,9.0,-2.0,-423.0,0.999241,0.037964,0.001803,15794.0,702.0,120.0,4.0,-68.0,6.0
2887.0,2767.0,2845.0,3067.0,3051.0,0.70697,0.053833,-0.704651,0.027039,0.0,-4.0,0.0,7823.0,303.0,24.0,-362.0,-8.0,14.0,-14.0,4.0,-362.0,0.999246,0.038011,0.001107,16090.0,672.0,180.0,9.0,-69.0,0.0
2893.0,2758.0,2839.0,3070.0,3051.0,0.706848,0.054077,-0.704773,0.0271,1.0,0.0,-1.0,8023.0,333.0,64.0,-162.0,19.0,57.0,-59.0,18.0,-161.0,0.999266,0.038251,0.000739,16528.0,842.0,184.0,31.0,16.0,-13.0
2894.0,2757.0,2837.0,3059.0,3039.0,0.707092,0.054321,-0.704529,0.027161,1.0,2.0,-2.0,8043.0,352.0,51.0,-143.0,36.0,39.0,-43.0,36.0,-141.0,0.999285,0.038549,0.001406,16098.0,798.0,2.0,36.0,63.0,-23.0
2887.0,2765.0,2847.0,3063.0,3047.0,0.707336,0.054504,-0.704224,0.027161,1.0,3.0,-2.0,8001.0,374.0,47.0,-184.0,55.0,29.0,-36.0,58.0,-181.0,0.999207,0.038852,0.002161,15642.0,876.0,68.0,30.0,77.0,-23.0
2893.0,2767.0,2845.0,3067.0,3055.0,0.707642,0.05481,-0.703857,0.027161,0.0,0.0,-1.0,7809.0,369.0,38.0,-375.0,46.0,12.0,-20.0,58.0,-372.0,0.999135,0.039337,0.003075,15112.0,664.0,174.0,13.0,10.0,-7.0
2887.0,2759.0,2839.0,3063.0,3047.0,0.707581,0.054871,-0.703979,0.027161,0.0,-2.0,0.0,7765.0,366.0,49.0,-420.0,43.0,25.0,-32.0,56.0,-417.0,0.999225,0.03941,0.00281,15372.0,756.0,170.0,11.0,-40.0,4.0
2893.0,2767.0,2843.0,3067.0,3047.0,0.707397,0.054871,-0.704163,0.027222,0.0,-3.0,0.0,7784.0,364.0,62.0,-401.0,42.0,43.0,-50.0,52.0,-398.0,0.999233,0.039294,0.002296,15748.0,722.0,174.0,3.0,-68.0,10.0
2883.0,2768.0,2839.0,3059.0,3047.0,0.706909,0.05481,-0.704651,0.027161,-1.0,-3.0,0.0,7909.0,374.0,75.0,-276.0,52.0,67.0,-74.0,54.0,-273.0,0.999226,0.039213,0.000921,16242.0,824.0,166.0,-13.0,-59.0,11.0
2891.0,2757.0,2832.0,3059.0,3043.0,0.706787,0.054688,-0.704773,0.0271,-1.0,-2.0,0.0,7986.0,383.0,75.0,-199.0,62.0,70.0,-77.0,61.0,-196.0,0.999213,0.039107,0.000587,16434.0,820.0,160.0,-20.0,-30.0,11.0
2887.0,2763.0,2832.0,3059.0,3055.0,0.707092,0.054504,-0.704529,0.026978,-1.0,3.0,0.0,8054.0,375.0,49.0,-132.0,54.0,37.0,-43.0,54.0,-129.0,0.999275,0.039066,0.001376,15946.0,748.0,-92.0,-18.0,69.0,5.0
2893.0,2767.0,2845.0,3071.0,3045.0,0.707336,0.054504,-0.704224,0.026917,-1.0,3.0,-1.0,7974.0,360.0,9.0,-211.0,38.0,-8.0,2.0,46.0,-209.0,0.99918,0.039195,0.002148,15354.0,604.0,-220.0,-11.0,80.0,-4.0
2895.0,2767.0,2837.0,3071.0,3055.0,-1.21228,1.580872,-1.770386,-0.091675,24731.0,17165.0,22617.0,-8854.0,24331.0,28111.0,28683.0,-12465.0,-3385.0,17154.0,2227.0,-8099.0,-4.58226,-3.508319,-4.155393,14910.0,580.0,-156.0,6.0,-15.0,-26.0
2887.0,2759.0,2838.0,3057.0,3047.0,0.707275,0.054749,-0.704285,0.026672,0.0,-3.0,-2.0,7708.0,325.0,-42.0,-477.0,-1.0,-57.0,53.0,24.0,-476.0,0.999167,0.039875,0.001936,15474.0,652.0,-10.0,9.0,-64.0,-28.0
2893.0,2758.0,2831.0,3071.0,3045.0,0.706848,0.054993,-0.704712,0.026428,-1.0,-2.0,-1.0,7879.0,342.0,1.0,-306.0,10.0,-4.0,1.0,22.0,-305.0,0.999155,0.040494,0.00069,16372.0,668.0,136.0,-11.0,-42.0,-15.0
2886.0,2772.0,2847.0,3063.0,3047.0,0.706848,0.054932,-0.704773,0.026367,-1.0,-1.0,-1.0,7940.0,336.0,1.0,-245.0,4.0,-3.0,1.0,14.0,-244.0,0.999232,0.040491,0.000607,16156.0,614.0,-20.0,-14.0,0.0,-5.0
