flex_1,flex_2,flex_3,flex_4,flex_5,Qw,Qx,Qy,Qz,GYRx,GYRy,GYRz,ACCx,ACCy,ACCz,ACCx_real,ACCy_real,ACCz_real,ACCx_world,ACCy_world,ACCz_world,GRAx,GRAy,GRAz,ACCx_raw,ACCy_raw,ACCz_raw,GYRx_raw,GYRy_raw,GYRz_raw
2829.0,2815.0,2899.0,3131.0,2960.0,1.0,0.0,0.0,0.0,0.0,0.0,0.0,0.0,0.0,0.0,0.0,0.0,0.0,0.0,0.0,0.0,0.0,0.0,0.0,0.0,0.0,0.0,0.0,0.0,0.0
2832.0,2810.0,2895.0,3123.0,2975.0,0.874207,-0.015869,-0.485291,0.00116,-1.0,2.0,-2.0,7749.0,-300.0,1463.0,798.0,-63.0,-2866.0,2853.0,-125.0,-835.0,0.848451,-0.028871,0.52848,15114.0,-692.0,2992.0,-13.0,56.0,-42.0
2831.0,2810.0,2887.0,3119.0,2970.0,0.872986,-0.015991,-0.487427,0.000854,-2.0,-2.0,-1.0,7570.0,-275.0,1495.0,598.0,-39.0,-2799.0,2695.0,-104.0,-957.0,0.851006,-0.028753,0.524264,14636.0,-374.0,3130.0,-27.0,-39.0,-19.0
2833.0,2815.0,2886.0,3134.0,2979.0,0.872192,-0.016113,-0.488831,0.00061,-2.0,-4.0,-2.0,7551.0,-278.0,1555.0,565.0,-42.0,-2717.0,2611.0,-107.0,-933.0,0.852689,-0.028704,0.521505,14972.0,-642.0,3466.0,-37.0,-90.0,-31.0
2835.0,2822.0,2891.0,3135.0,2975.0,0.870361,-0.016296,-0.492065,0.000122,-1.0,-6.0,-3.0,7671.0,-337.0,1677.0,654.0,-103.0,-2542.0,2512.0,-164.0,-746.0,0.856545,-0.028488,0.515135,16066.0,-870.0,3788.0,-8.0,-133.0,-52.0
2827.0,2803.0,2883.0,3123.0,2967.0,0.869507,-0.016235,-0.493652,0.0,0.0,-5.0,-2.0,7768.0,-332.0,1716.0,735.0,-100.0,-2479.0,2503.0,-158.0,-635.0,0.858468,-0.028233,0.512086,16064.0,-542.0,3592.0,13.0,-99.0,-38.0
2832.0,2803.0,2881.0,3122.0,2971.0,0.86792,-0.015991,-0.496399,-0.000244,-1.0,-4.0,-2.0,7755.0,-236.0,1672.0,696.0,-10.0,-2478.0,2487.0,-68.0,-655.0,0.861677,-0.027516,0.506617,15234.0,-236.0,2994.0,-11.0,-76.0,-34.0
2831.0,2819.0,2897.0,3135.0,2975.0,0.867065,-0.015991,-0.497925,-0.000488,-1.0,-4.0,-2.0,7742.0,-255.0,1605.0,668.0,-31.0,-2520.0,2512.0,-92.0,-691.0,0.863482,-0.027245,0.503618,15378.0,-700.0,2778.0,-20.0,-84.0,-40.0
2831.0,2815.0,2895.0,3135.0,2979.0,0.865234,-0.01593,-0.50116,-0.000916,-1.0,-7.0,-3.0,7589.0,-277.0,1450.0,484.0,-58.0,-2623.0,2514.0,-125.0,-882.0,0.86727,-0.026649,0.497217,15084.0,-650.0,2544.0,-4.0,-156.0,-60.0
2831.0,2815.0,2894.0,3122.0,2967.0,0.864136,-0.015869,-0.502991,-0.00116,0.0,-7.0,-3.0,7658.0,-289.0,1423.0,536.0,-73.0,-2619.0,2540.0,-140.0,-824.0,0.869341,-0.02626,0.49348,15836.0,-628.0,2712.0,4.0,-160.0,-58.0
2833.0,2814.0,2887.0,3126.0,2967.0,0.862305,-0.015686,-0.506165,-0.001465,0.0,-2.0,-2.0,7876.0,-313.0,1391.0,724.0,-103.0,-2599.0,2619.0,-167.0,-631.0,0.872982,-0.025569,0.487123,16308.0,-814.0,2636.0,12.0,-44.0,-32.0
2832.0,2823.0,2897.0,3135.0,2967.0,0.861633,-0.015625,-0.507263,-0.001404,1.0,0.0,-1.0,7941.0,-354.0,1383.0,779.0,-145.0,-2588.0,2637.0,-207.0,-570.0,0.874194,-0.025502,0.484854,16228.0,-956.0,2702.0,29.0,19.0,-15.0
2833.0,2829.0,2865.0,3139.0,2975.0,0.860779,-0.015259,-0.508728,-0.00116,2.0,4.0,-1.0,7846.0,-338.0,1333.0,671.0,-132.0,-2614.0,2610.0,-194.0,-668.0,0.87584,-0.025089,0.481904,14600.0,-126.0,2450.0,67.0,114.0,-22.0
2832.0,2813.0,2883.0,3122.0,2969.0,0.860352,-0.014954,-0.50946,-0.001343,0.0,1.0,-3.0,7698.0,-261.0,1331.0,516.0,-61.0,-2604.0,2529.0,-124.0,-797.0,0.87667,-0.024363,0.480433,14802.0,-182.0,2846.0,12.0,35.0,-64.0
2835.0,2807.0,2890.0,3131.0,2971.0,0.859192,-0.015015,-0.511353,-0.002075,-3.0,-1.0,-3.0,7681.0,-224.0,1426.0,482.0,-30.0,-2477.0,2405.0,-93.0,-756.0,0.878762,-0.023679,0.476508,15396.0,-398.0,3220.0,-63.0,-13.0,-46.0
2834.0,2787.0,2897.0,3147.0,2989.0,0.858582,-0.01532,-0.51239,-0.002502,-4.0,-2.0,-2.0,7673.0,-224.0,1476.0,464.0,-29.0,-2410.0,2340.0,-93.0,-734.0,0.879934,-0.023742,0.47439,15310.0,-472.0,3228.0,-82.0,-29.0,-41.0
2835.0,2831.0,2896.0,3142.0,2983.0,0.857178,-0.015869,-0.514771,-0.003113,-2.0,-4.0,-2.0,7721.0,-339.0,1553.0,490.0,-142.0,-2293.0,2250.0,-206.0,-640.0,0.882598,-0.024001,0.469523,15874.0,-1248.0,3268.0,-31.0,-79.0,-35.0
2832.0,2815.0,2894.0,3127.0,2971.0,0.856445,-0.015808,-0.515991,-0.002991,2.0,-2.0,-1.0,7830.0,-402.0,1565.0,588.0,-205.0,-2260.0,2267.0,-266.0,-530.0,0.883931,-0.023991,0.467011,16296.0,-1064.0,3182.0,51.0,-44.0,-19.0
2827.0,2815.0,2895.0,3127.0,2975.0,0.855286,-0.015015,-0.517883,-0.002502,4.0,1.0,-1.0,7868.0,-315.0,1493.0,610.0,-125.0,-2300.0,2317.0,-183.0,-521.0,0.885951,-0.023092,0.463091,15638.0,-230.0,2718.0,107.0,25.0,-10.0
2829.0,2815.0,2891.0,3143.0,2982.0,0.854797,-0.014526,-0.518738,-0.00238,3.0,1.0,-1.0,7771.0,-201.0,1432.0,505.0,-17.0,-2347.0,2314.0,-75.0,-634.0,0.886901,-0.022365,0.461384,14890.0,318.0,2510.0,77.0,28.0,-20.0
2843.0,2811.0,2896.0,3127.0,2971.0,0.853638,-0.014282,-0.520691,-0.002686,-2.0,-1.0,-1.0,7712.0,-127.0,1356.0,428.0,49.0,-2390.0,2321.0,-11.0,-713.0,0.88904,-0.021587,0.457382,15384.0,-252.0,2534.0,-42.0,-6.0,-4.0
2833.0,2815.0,2891.0,3129.0,2963.0,0.853027,-0.014587,-0.521667,-0.002869,-3.0,-1.0,-1.0,7685.0,-136.0,1331.0,393.0,43.0,-2398.0,2313.0,-19.0,-742.0,0.890077,-0.021894,0.455314,15230.0,-378.0,2520.0,-66.0,-2.0,-8.0
2839.0,2818.0,2896.0,3131.0,2967.0,0.851868,-0.015076,-0.523438,-0.003235,-2.0,1.0,-1.0,7725.0,-263.0,1350.0,418.0,-80.0,-2348.0,2280.0,-143.0,-685.0,0.891896,-0.022298,0.451475,15452.0,-830.0,2838.0,-24.0,25.0,-16.0
2821.0,2815.0,2887.0,3147.0,2975.0,0.85144,-0.015137,-0.524231,-0.003296,0.0,1.0,-1.0,7727.0,-278.0,1389.0,413.0,-95.0,-2296.0,2233.0,-157.0,-662.0,0.892803,-0.02232,0.449914,15502.0,-608.0,3022.0,9.0,25.0,-22.0
2839.0,2832.0,2895.0,3133.0,2979.0,0.850586,-0.014832,-0.525635,-0.003113,2.0,1.0,-1.0,7793.0,-289.0,1487.0,466.0,-109.0,-2174.0,2149.0,-166.0,-552.0,0.894287,-0.021959,0.446994,15684.0,-510.0,3172.0,65.0,44.0,-6.0
2833.0,2803.0,2895.0,3135.0,2973.0,0.850159,-0.014465,-0.526306,-0.00293,3.0,1.0,-1.0,7794.0,-263.0,1503.0,462.0,-86.0,-2147.0,2125.0,-140.0,-541.0,0.894972,-0.021512,0.445571,15580.0,-362.0,3128.0,78.0,44.0,-9.0
2827.0,2819.0,2893.0,3125.0,2991.0,0.849304,-0.013794,-0.52771,-0.002686,2.0,0.0,-1.0,7693.0,-166.0,1501.0,349.0,2.0,-2125.0,2059.0,-50.0,-627.0,0.896447,-0.020596,0.442657,14966.0,-18.0,2934.0,52.0,6.0,-8.0
2843.0,2798.0,2907.0,3147.0,2965.0,0.848755,-0.013611,-0.528625,-0.002686,0.0,-2.0,-1.0,7636.0,-106.0,1485.0,284.0,60.0,-2125.0,2033.0,7.0,-682.0,0.89742,-0.020265,0.440762,15006.0,152.0,2904.0,11.0,-40.0,-7.0
2830.0,2815.0,2847.0,3123.0,2983.0,0.847412,-0.013794,-0.530762,-0.00293,-3.0,-2.0,-1.0,7736.0,-106.0,1480.0,366.0,60.0,-2093.0,2043.0,8.0,-584.0,0.899629,-0.020268,0.436218,15880.0,-362.0,2930.0,-47.0,-32.0,-4.0
2835.0,2815.0,2883.0,3111.0,2991.0,0.846863,-0.013977,-0.531616,-0.003113,-2.0,0.0,-1.0,7779.0,-163.0,1463.0,402.0,3.0,-2095.0,2061.0,-49.0,-548.0,0.900499,-0.020364,0.434375,15766.0,-708.0,2808.0,-37.0,6.0,-21.0
2833.0,2821.0,2871.0,3131.0,2989.0,0.845886,-0.014099,-0.533142,-0.003296,1.0,1.0,-2.0,7758.0,-271.0,1423.0,368.0,-104.0,-2108.0,2057.0,-158.0,-574.0,0.902048,-0.020338,0.431095,15418.0,-730.0,2802.0,24.0,24.0,-26.0
2815.0,2833.0,2864.0,3123.0,2989.0,0.845459,-0.013916,-0.533875,-0.003235,2.0,1.0,-1.0,7744.0,-280.0,1427.0,348.0,-115.0,-2092.0,2035.0,-168.0,-582.0,0.902828,-0.020077,0.429596,15426.0,-546.0,2920.0,47.0,23.0,-20.0
2827.0,2819.0,2895.0,3159.0,2947.0,0.844543,-0.013428,-0.535339,-0.003052,2.0,-1.0,-1.0,7681.0,-236.0,1441.0,272.0,-76.0,-2052.0,1969.0,-126.0,-627.0,0.904317,-0.019413,0.426494,15130.0,-332.0,2964.0,54.0,0.0,-18.0
2829.0,2815.0,2907.0,3143.0,2975.0,0.843994,-0.013184,-0.536194,-0.002991,1.0,-2.0,-1.0,7664.0,-199.0,1461.0,248.0,-42.0,-2017.0,1929.0,-91.0,-631.0,0.905168,-0.019047,0.424657,15272.0,-106.0,3046.0,44.0,-27.0,-14.0
2829.0,2807.0,2908.0,3127.0,2971.0,0.842773,-0.012939,-0.538025,-0.003113,-1.0,-3.0,-1.0,7687.0,-107.0,1517.0,257.0,44.0,-1928.0,1857.0,-2.0,-578.0,0.906947,-0.018461,0.420639,15338.0,-112.0,3138.0,-18.0,-51.0,-11.0
2831.0,2814.0,2903.0,3135.0,2959.0,0.842163,-0.013,-0.539062,-0.003235,-2.0,-4.0,-1.0,7700.0,-132.0,1527.0,261.0,18.0,-1901.0,1835.0,-28.0,-558.0,0.908041,-0.018409,0.418492,15552.0,-478.0,3082.0,-26.0,-69.0,-7.0
2839.0,2807.0,2901.0,3135.0,2951.0,0.840881,-0.013062,-0.541077,-0.003113,1.0,-2.0,-1.0,7808.0,-208.0,1488.0,352.0,-55.0,-1904.0,1877.0,-100.0,-467.0,0.910044,-0.018598,0.414157,15798.0,-488.0,2754.0,39.0,-26.0,-6.0
2835.0,2797.0,2883.0,3119.0,2967.0,0.840332,-0.012817,-0.541931,-0.002991,2.0,-1.0,-1.0,7823.0,-205.0,1455.0,361.0,-55.0,-1922.0,1898.0,-99.0,-462.0,0.910881,-0.0183,0.412313,15698.0,-360.0,2694.0,53.0,-1.0,-11.0
2807.0,2791.0,2891.0,3111.0,2975.0,0.839417,-0.01239,-0.543335,-0.002808,0.0,0.0,-1.0,7722.0,-101.0,1364.0,248.0,44.0,-1988.0,1915.0,-1.0,-588.0,0.912238,-0.01775,0.409262,14724.0,340.0,2418.0,16.0,19.0,-9.0
2844.0,2815.0,2893.0,3103.0,2963.0,0.838867,-0.012451,-0.544189,-0.002991,-2.0,-1.0,-1.0,7706.0,-84.0,1360.0,226.0,60.0,-1977.0,1898.0,14.0,-600.0,0.91308,-0.017635,0.40741,15480.0,-184.0,2740.0,-42.0,-19.0,-5.0
2835.0,2823.0,2909.0,3120.0,2942.0,0.83783,-0.013062,-0.545776,-0.003296,-3.0,-1.0,0.0,7714.0,-159.0,1356.0,221.0,-9.0,-1952.0,1874.0,-56.0,-586.0,0.914621,-0.018289,0.403927,15498.0,-692.0,2760.0,-57.0,-7.0,0.0
2839.0,2815.0,2917.0,3133.0,2967.0,0.837341,-0.013306,-0.546509,-0.003357,-1.0,0.0,0.0,7745.0,-219.0,1382.0,246.0,-66.0,-1913.0,1848.0,-113.0,-543.0,0.915318,-0.018614,0.402303,15666.0,-738.0,2920.0,-22.0,1.0,6.0
2846.0,2807.0,2879.0,3121.0,2975.0,0.836487,-0.013245,-0.547791,-0.003113,1.0,0.0,0.0,7765.0,-216.0,1457.0,256.0,-62.0,-1815.0,1764.0,-105.0,-489.0,0.916522,-0.018748,0.39947,15510.0,-232.0,3176.0,43.0,13.0,1.0
2843.0,2821.0,2855.0,3123.0,2967.0,0.83606,-0.013062,-0.548462,-0.002991,1.0,0.0,-1.0,7778.0,-164.0,1485.0,264.0,-11.0,-1775.0,1732.0,-53.0,-464.0,0.917172,-0.01856,0.398023,15684.0,6.0,3126.0,35.0,6.0,-2.0
2832.0,2831.0,2879.0,3130.0,2961.0,0.835205,-0.012878,-0.549744,-0.00293,0.0,0.0,0.0,7742.0,-141.0,1463.0,218.0,8.0,-1774.0,1715.0,-33.0,-501.0,0.918373,-0.018291,0.395192,15202.0,-336.0,2806.0,9.0,2.0,4.0
2842.0,2827.0,2907.0,3151.0,2966.0,0.834717,-0.012878,-0.550476,-0.002869,0.0,-1.0,0.0,7707.0,-139.0,1435.0,178.0,11.0,-1789.0,1714.0,-31.0,-540.0,0.919057,-0.018341,0.393571,15256.0,-260.0,2696.0,9.0,-21.0,10.0
2833.0,2819.0,2893.0,3107.0,2992.0,0.833557,-0.013123,-0.552246,-0.002686,-1.0,-2.0,1.0,7708.0,-148.0,1402.0,165.0,6.0,-1790.0,1712.0,-36.0,-545.0,0.920728,-0.018911,0.389677,15656.0,-420.0,2732.0,-8.0,-45.0,33.0
2823.0,2822.0,2879.0,3103.0,2971.0,0.833008,-0.013245,-0.55304,-0.002502,0.0,-1.0,1.0,7783.0,-191.0,1397.0,234.0,-32.0,-1780.0,1730.0,-73.0,-474.0,0.921439,-0.019298,0.38788,16072.0,-618.0,2800.0,10.0,-16.0,39.0
2821.0,2807.0,2878.0,3147.0,2963.0,0.832275,-0.013184,-0.554199,-0.002136,1.0,1.0,-1.0,7792.0,-192.0,1380.0,234.0,-31.0,-1777.0,1728.0,-71.0,-468.0,0.922549,-0.019577,0.385376,15412.0,-372.0,2744.0,34.0,44.0,-3.0
2826.0,2805.0,2903.0,3135.0,2975.0,0.831909,-0.013,-0.554688,-0.002075,1.0,1.0,-1.0,7751.0,-172.0,1381.0,190.0,-13.0,-1766.0,1702.0,-53.0,-502.0,0.922953,-0.019328,0.38423,15262.0,-188.0,2798.0,30.0,31.0,-18.0
2839.0,2832.0,2867.0,3119.0,2992.0,0.831177,-0.012817,-0.555847,-0.002319,-1.0,0.0,-1.0,7769.0,-110.0,1442.0,198.0,43.0,-1685.0,1633.0,4.0,-461.0,0.924074,-0.018729,0.38173,15682.0,-90.0,3042.0,-21.0,17.0,-14.0
2833.0,2821.0,2879.0,3135.0,2967.0,0.830811,-0.012939,-0.556335,-0.002502,-2.0,1.0,0.0,7761.0,-116.0,1459.0,187.0,37.0,-1658.0,1604.0,-1.0,-458.0,0.924483,-0.018716,0.380576,15372.0,-312.0,3010.0,-43.0,25.0,6.0
2833.0,2831.0,2887.0,3126.0,2981.0,0.829956,-0.013489,-0.557617,-0.002502,-1.0,-2.0,0.0,7710.0,-200.0,1461.0,126.0,-39.0,-1633.0,1558.0,-78.0,-499.0,0.925663,-0.019599,0.377714,15580.0,-714.0,2994.0,-19.0,-25.0,22.0
2822.0,2815.0,2890.0,3122.0,2987.0,0.829529,-0.01355,-0.558289,-0.002319,0.0,-1.0,0.0,7785.0,-240.0,1476.0,196.0,-77.0,-1606.0,1559.0,-115.0,-421.0,0.926296,-0.01989,0.376254,16052.0,-662.0,3040.0,20.0,-1.0,19.0
2838.0,2832.0,2897.0,3135.0,2991.0,0.828918,-0.013306,-0.559204,-0.002136,1.0,1.0,-1.0,7732.0,-200.0,1449.0,136.0,-38.0,-1616.0,1548.0,-75.0,-477.0,0.927126,-0.019669,0.374224,15160.0,-342.0,2756.0,23.0,31.0,-17.0
2839.0,2790.0,2883.0,3127.0,2975.0,0.828552,-0.013245,-0.559753,-0.002136,0.0,0.0,-1.0,7712.0,-207.0,1450.0,112.0,-46.0,-1605.0,1529.0,-83.0,-493.0,0.927626,-0.019556,0.373004,15324.0,-418.0,2870.0,4.0,13.0,-11.0
2818.0,2833.0,2909.0,3123.0,2958.0,0.827759,-0.013367,-0.560852,-0.002319,-2.0,0.0,-1.0,7709.0,-181.0,1471.0,102.0,-21.0,-1563.0,1488.0,-58.0,-483.0,0.928562,-0.019527,0.370456,15532.0,-404.0,3054.0,-32.0,7.0,-12.0
2831.0,2819.0,2879.0,3103.0,2981.0,0.827454,-0.01355,-0.561401,-0.002441,-2.0,0.0,0.0,7702.0,-188.0,1477.0,90.0,-26.0,-1548.0,1470.0,-63.0,-487.0,0.929133,-0.019682,0.36933,15310.0,-406.0,2994.0,-39.0,13.0,0.0
2821.0,2823.0,2896.0,3127.0,2991.0,0.82666,-0.013916,-0.5625,-0.002563,-1.0,0.0,0.0,7765.0,-259.0,1492.0,145.0,-94.0,-1512.0,1457.0,-131.0,-417.0,0.930064,-0.020124,0.366774,15890.0,-828.0,3024.0,-12.0,12.0,3.0
2819.0,2813.0,2879.0,3143.0,2943.0,0.826355,-0.013977,-0.562927,-0.002441,1.0,1.0,0.0,7800.0,-299.0,1481.0,177.0,-132.0,-1515.0,1471.0,-169.0,-386.0,0.930424,-0.020351,0.365786,15758.0,-814.0,2946.0,24.0,39.0,2.0
2827.0,2814.0,2903.0,3143.0,2994.0,0.825928,-0.013611,-0.563599,-0.002075,2.0,2.0,-1.0,7757.0,-292.0,1445.0,129.0,-126.0,-1539.0,1477.0,-162.0,-438.0,0.93104,-0.020144,0.364332,15124.0,-380.0,2790.0,68.0,62.0,-19.0
2832.0,2803.0,2911.0,3146.0,2982.0,0.825623,-0.013306,-0.564026,-0.002075,1.0,1.0,-2.0,7679.0,-231.0,1433.0,48.0,-70.0,-1543.0,1453.0,-106.0,-514.0,0.9314,-0.01963,0.363355,14900.0,-58.0,2756.0,44.0,32.0,-31.0
2830.0,2815.0,2887.0,3127.0,2993.0,0.82489,-0.013123,-0.565186,-0.002319,-1.0,-1.0,-2.0,7677.0,-205.0,1449.0,38.0,-49.0,-1507.0,1417.0,-85.0,-507.0,0.932493,-0.019028,0.360842,15382.0,-448.0,2972.0,-14.0,-10.0,-24.0
2831.0,2785.0,2870.0,3119.0,2935.0,0.824463,-0.013123,-0.565796,-0.002441,-1.0,-1.0,-2.0,7684.0,-221.0,1457.0,40.0,-66.0,-1487.0,1400.0,-101.0,-495.0,0.93302,-0.018875,0.359448,15450.0,-552.0,2988.0,-13.0,-20.0,-27.0
2821.0,2786.0,2859.0,3131.0,2951.0,0.823608,-0.013062,-0.567017,-0.002686,0.0,-1.0,-2.0,7744.0,-209.0,1490.0,92.0,-57.0,-1431.0,1368.0,-91.0,-423.0,0.934069,-0.01847,0.35666,15834.0,-354.0,3114.0,4.0,-7.0,-35.0
2835.0,2826.0,2897.0,3127.0,2965.0,0.823303,-0.012939,-0.567444,-0.002808,0.0,1.0,-2.0,7786.0,-191.0,1504.0,131.0,-42.0,-1409.0,1362.0,-75.0,-377.0,0.934429,-0.01812,0.355676,15790.0,-252.0,3086.0,11.0,27.0,-35.0
2835.0,2827.0,2895.0,3153.0,2987.0,0.822815,-0.012573,-0.568115,-0.002991,1.0,2.0,-2.0,7739.0,-169.0,1485.0,79.0,-27.0,-1415.0,1350.0,-60.0,-426.0,0.934983,-0.017293,0.35412,15164.0,-264.0,2806.0,27.0,49.0,-27.0
2839.0,2783.0,2887.0,3127.0,2965.0,0.822571,-0.01239,-0.568481,-0.002991,1.0,1.0,-2.0,7720.0,-171.0,1479.0,57.0,-31.0,-1415.0,1342.0,-64.0,-446.0,0.935307,-0.016983,0.353307,15400.0,-384.0,2934.0,35.0,28.0,-24.0
2815.0,2807.0,2871.0,3135.0,2975.0,0.82196,-0.011841,-0.569336,-0.002869,2.0,0.0,-1.0,7666.0,-137.0,1466.0,-1.0,-4.0,-1412.0,1321.0,-36.0,-496.0,0.936011,-0.016199,0.351344,15012.0,-96.0,2818.0,55.0,12.0,-21.0
2835.0,2813.0,2891.0,3151.0,2982.0,0.821594,-0.011536,-0.569946,-0.002808,2.0,-1.0,-1.0,7642.0,-126.0,1476.0,-30.0,3.0,-1391.0,1292.0,-28.0,-515.0,0.936594,-0.015755,0.350053,15256.0,-190.0,3046.0,49.0,-22.0,-17.0
2837.0,2815.0,2879.0,3134.0,2987.0,0.820801,-0.011108,-0.571106,-0.002625,1.0,-1.0,-1.0,7710.0,-60.0,1535.0,29.0,64.0,-1311.0,1240.0,36.0,-429.0,0.937587,-0.015238,0.347435,15528.0,184.0,3236.0,33.0,-16.0,-3.0
2832.0,2815.0,2895.0,3143.0,2975.0,0.820435,-0.010986,-0.571655,-0.002625,0.0,-2.0,0.0,7727.0,-53.0,1562.0,42.0,70.0,-1274.0,1210.0,43.0,-402.0,0.938069,-0.015026,0.346209,15588.0,-144.0,3246.0,7.0,-25.0,1.0
2823.0,2791.0,2879.0,3123.0,2965.0,0.81958,-0.011047,-0.572815,-0.00238,0.0,-2.0,1.0,7771.0,-87.0,1574.0,78.0,39.0,-1239.0,1190.0,13.0,-352.0,0.938988,-0.015381,0.343478,15528.0,-186.0,3108.0,21.0,-23.0,24.0
2837.0,2807.0,2890.0,3143.0,2975.0,0.819214,-0.010925,-0.573364,-0.002258,1.0,-2.0,0.0,7752.0,-81.0,1569.0,55.0,44.0,-1234.0,1178.0,19.0,-371.0,0.939465,-0.015311,0.34225,15352.0,-112.0,3102.0,28.0,-31.0,16.0
2844.0,2819.0,2886.0,3143.0,2983.0,0.818237,-0.010864,-0.574768,-0.002014,0.0,-4.0,0.0,7692.0,-77.0,1549.0,-13.0,49.0,-1228.0,1151.0,24.0,-429.0,0.940637,-0.015464,0.33904,15326.0,-232.0,2996.0,8.0,-74.0,15.0
2827.0,2810.0,2896.0,3121.0,2983.0,0.817627,-0.010925,-0.575623,-0.001892,0.0,-4.0,0.0,7722.0,-118.0,1529.0,10.0,10.0,-1232.0,1163.0,-14.0,-405.0,0.94133,-0.015687,0.337057,15660.0,-504.0,2910.0,7.0,-77.0,20.0
2831.0,2811.0,2895.0,3127.0,2970.0,0.816589,-0.010925,-0.577148,-0.001587,1.0,-3.0,0.0,7724.0,-184.0,1446.0,2.0,-52.0,-1286.0,1211.0,-77.0,-426.0,0.942621,-0.016011,0.333601,15384.0,-510.0,2690.0,30.0,-58.0,1.0
2833.0,2815.0,2885.0,3131.0,2971.0,0.81604,-0.010803,-0.577881,-0.001465,1.0,-3.0,-1.0,7711.0,-178.0,1415.0,-15.0,-47.0,-1303.0,1223.0,-72.0,-445.0,0.943179,-0.015939,0.33186,15270.0,-234.0,2648.0,31.0,-60.0,-4.0
2832.0,2807.0,2885.0,3135.0,2959.0,0.814941,-0.010742,-0.579407,-0.001465,-1.0,-2.0,-1.0,7787.0,-173.0,1373.0,50.0,-43.0,-1316.0,1258.0,-67.0,-384.0,0.944397,-0.015811,0.328304,15948.0,-440.0,2544.0,-2.0,-39.0,-3.0
2835.0,2803.0,2879.0,3123.0,2967.0,0.814575,-0.010803,-0.579956,-0.001404,-1.0,0.0,-1.0,7802.0,-191.0,1363.0,61.0,-60.0,-1316.0,1262.0,-84.0,-371.0,0.944866,-0.015972,0.327069,15614.0,-584.0,2636.0,0.0,2.0,-1.0
2831.0,2791.0,2891.0,3123.0,2971.0,0.813904,-0.010681,-0.580933,-0.001343,1.0,0.0,-1.0,7777.0,-219.0,1349.0,30.0,-89.0,-1312.0,1249.0,-113.0,-396.0,0.945675,-0.015827,0.324844,15622.0,-478.0,2752.0,35.0,12.0,-15.0
2831.0,2815.0,2895.0,3135.0,2982.0,0.813599,-0.010498,-0.581299,-0.00116,2.0,1.0,0.0,7781.0,-206.0,1356.0,32.0,-77.0,-1297.0,1236.0,-100.0,-388.0,0.945912,-0.015734,0.323926,15548.0,-236.0,2762.0,55.0,23.0,5.0
2832.0,2813.0,2895.0,3135.0,2975.0,0.81311,-0.010132,-0.582031,-0.000854,0.0,0.0,0.0,7746.0,-58.0,1414.0,-7.0,68.0,-1226.0,1159.0,46.0,-402.0,0.946529,-0.015482,0.322286,15446.0,232.0,3042.0,14.0,10.0,14.0
2832.0,2815.0,2879.0,3123.0,2967.0,0.812805,-0.010132,-0.582397,-0.000916,-1.0,0.0,0.0,7754.0,-32.0,1441.0,-1.0,94.0,-1191.0,1128.0,73.0,-385.0,0.94677,-0.015404,0.321364,15548.0,44.0,3048.0,-12.0,10.0,17.0
2830.0,2809.0,2890.0,3126.0,2975.0,0.812256,-0.010437,-0.58313,-0.000793,-1.0,0.0,1.0,7752.0,-61.0,1465.0,-8.0,70.0,-1153.0,1090.0,49.0,-377.0,0.947318,-0.01603,0.319611,15498.0,-286.0,3006.0,-16.0,6.0,31.0
2842.0,2815.0,2891.0,3141.0,2982.0,0.812012,-0.010559,-0.583496,-0.000671,0.0,0.0,1.0,7772.0,-90.0,1464.0,9.0,44.0,-1147.0,1090.0,23.0,-357.0,0.947626,-0.016365,0.318784,15646.0,-364.0,2876.0,1.0,19.0,29.0
2833.0,2823.0,2896.0,3139.0,2967.0,0.811584,-0.010559,-0.584167,-0.000427,0.0,0.0,0.0,7690.0,-108.0,1423.0,-77.0,28.0,-1176.0,1090.0,6.0,-446.0,0.948212,-0.01664,0.317306,15132.0,-322.0,2774.0,15.0,13.0,11.0
2834.0,2815.0,2891.0,3120.0,2973.0,0.811279,-0.010498,-0.584595,-0.000305,0.0,0.0,0.0,7662.0,-127.0,1408.0,-108.0,9.0,-1183.0,1088.0,-12.0,-476.0,0.948546,-0.016677,0.316313,15156.0,-320.0,2738.0,18.0,1.0,11.0
2814.0,2815.0,2893.0,3125.0,2975.0,0.810608,-0.010498,-0.58551,-0.000305,-1.0,-2.0,0.0,7646.0,-94.0,1446.0,-130.0,42.0,-1127.0,1029.0,20.0,-478.0,0.949245,-0.016662,0.314153,15278.0,-134.0,3050.0,-12.0,-25.0,0.0
2835.0,2827.0,2901.0,3139.0,2975.0,0.810181,-0.01062,-0.58606,-0.000366,-2.0,-2.0,0.0,7663.0,-94.0,1485.0,-116.0,43.0,-1077.0,986.0,22.0,-447.0,0.949636,-0.016779,0.312814,15464.0,-210.0,3264.0,-32.0,-42.0,7.0
2832.0,2826.0,2903.0,3143.0,2974.0,0.809448,-0.010986,-0.587036,-0.000488,-1.0,-2.0,0.0,7746.0,-138.0,1547.0,-39.0,3.0,-996.0,934.0,-15.0,-346.0,0.950361,-0.017212,0.310475,15476.0,-374.0,3098.0,-20.0,-28.0,8.0
2835.0,2815.0,2891.0,3133.0,2966.0,0.809082,-0.011108,-0.587585,-0.000549,-1.0,-3.0,-1.0,7739.0,-152.0,1543.0,-50.0,-10.0,-990.0,925.0,-29.0,-353.0,0.950822,-0.01733,0.309234,15466.0,-404.0,3052.0,-17.0,-49.0,-5.0
2831.0,2811.0,2892.0,3123.0,2971.0,0.808167,-0.011169,-0.588867,-0.000488,0.0,-3.0,0.0,7797.0,-228.0,1509.0,0.0,-84.0,-999.0,949.0,-102.0,-304.0,0.951816,-0.017478,0.306244,15852.0,-616.0,2882.0,15.0,-48.0,0.0
2835.0,2815.0,2891.0,3135.0,2982.0,0.807739,-0.011169,-0.589355,-0.000366,1.0,-2.0,0.0,7808.0,-216.0,1479.0,8.0,-71.0,-1019.0,971.0,-89.0,-301.0,0.952099,-0.017612,0.304978,15646.0,-260.0,2780.0,24.0,-25.0,6.0
2838.0,2811.0,2890.0,3139.0,2975.0,0.807007,-0.011169,-0.590393,-0.000488,-2.0,-2.0,-1.0,7745.0,-145.0,1385.0,-61.0,-2.0,-1093.0,1023.0,-23.0,-388.0,0.952913,-0.017451,0.302572,15366.0,-180.0,2544.0,-33.0,-24.0,-20.0
2830.0,2815.0,2897.0,3125.0,2967.0,0.806641,-0.01123,-0.590942,-0.000793,-3.0,-2.0,-2.0,7720.0,-165.0,1342.0,-90.0,-24.0,-1126.0,1045.0,-46.0,-424.0,0.953374,-0.01718,0.301331,15302.0,-514.0,2442.0,-49.0,-24.0,-36.0
2831.0,2815.0,2883.0,3135.0,2963.0,0.805786,-0.011475,-0.592102,-0.001404,-3.0,-3.0,-2.0,7680.0,-181.0,1338.0,-137.0,-43.0,-1107.0,1014.0,-66.0,-460.0,0.954247,-0.01683,0.298577,15434.0,-364.0,2916.0,-53.0,-53.0,-38.0
2826.0,2819.0,2885.0,3135.0,2986.0,0.805359,-0.011658,-0.592651,-0.001709,-3.0,-3.0,-2.0,7726.0,-172.0,1387.0,-94.0,-34.0,-1047.0,970.0,-56.0,-400.0,0.954634,-0.016752,0.297234,15772.0,-320.0,3054.0,-55.0,-48.0,-24.0
2835.0,2815.0,2895.0,3147.0,2989.0,0.804688,-0.012024,-0.593567,-0.001953,-1.0,-1.0,0.0,7823.0,-195.0,1444.0,-2.0,-55.0,-973.0,927.0,-76.0,-288.0,0.955319,-0.017032,0.29506,15916.0,-522.0,2930.0,-22.0,-14.0,4.0
2826.0,2815.0,2895.0,3135.0,2971.0,0.804443,-0.012024,-0.593872,-0.001892,0.0,0.0,0.0,7838.0,-187.0,1436.0,10.0,-46.0,-974.0,932.0,-66.0,-276.0,0.955518,-0.017098,0.294304,15628.0,-222.0,2774.0,13.0,11.0,6.0
2832.0,2815.0,2895.0,3139.0,2975.0,0.803833,-0.01178,-0.594727,-0.002014,-1.0,-2.0,-1.0,7736.0,-93.0,1388.0,-96.0,42.0,-1006.0,934.0,19.0,-386.0,0.956169,-0.016542,0.292313,15190.0,38.0,2650.0,-8.0,-27.0,-19.0
2838.0,2803.0,2899.0,3149.0,2979.0,0.803406,-0.011841,-0.595276,-0.002136,-2.0,-3.0,-1.0,7705.0,-69.0,1357.0,-131.0,66.0,-1026.0,944.0,42.0,-424.0,0.956547,-0.016483,0.290972,15354.0,-22.0,2658.0,-38.0,-57.0,-3.0
2833.0,2815.0,2890.0,3127.0,2997.0,0.802551,-0.012451,-0.596436,-0.002197,-2.0,-2.0,1.0,7755.0,-109.0,1332.0,-87.0,33.0,-1028.0,959.0,8.0,-380.0,0.957395,-0.017364,0.288203,15572.0,-292.0,2624.0,-37.0,-31.0,37.0
2831.0,2803.0,2903.0,3135.0,2971.0,0.802185,-0.012634,-0.596924,-0.002197,-2.0,-1.0,0.0,7780.0,-135.0,1323.0,-65.0,9.0,-1028.0,965.0,-15.0,-357.0,0.957742,-0.017647,0.287028,15802.0,-494.0,2654.0,-23.0,-17.0,19.0
2830.0,2806.0,2903.0,3119.0,2981.0,0.801819,-0.012634,-0.597412,-0.002014,1.0,2.0,-1.0,7825.0,-152.0,1342.0,-23.0,-5.0,-999.0,950.0,-27.0,-307.0,0.958083,-0.017854,0.285857,15620.0,-158.0,2758.0,32.0,56.0,-10.0
2832.0,2821.0,2893.0,3140.0,2966.0,0.801758,-0.01239,-0.597473,-0.002075,0.0,2.0,-2.0,7777.0,-120.0,1349.0,-71.0,22.0,-991.0,929.0,0.0,-351.0,0.958109,-0.017388,0.285692,15220.0,-64.0,2752.0,20.0,58.0,-24.0
2821.0,2807.0,2891.0,3126.0,2991.0,0.801514,-0.012268,-0.597839,-0.002136,0.0,1.0,-1.0,7723.0,-125.0,1362.0,-128.0,15.0,-971.0,894.0,-8.0,-399.0,0.958405,-0.017112,0.284866,15378.0,-286.0,2792.0,1.0,25.0,-9.0
2819.0,2799.0,2874.0,3127.0,2983.0,0.801331,-0.012268,-0.598083,-0.002136,0.0,1.0,-1.0,7746.0,-159.0,1384.0,-106.0,-18.0,-944.0,874.0,-40.0,-369.0,0.958578,-0.017106,0.284281,15618.0,-542.0,2850.0,7.0,25.0,-5.0
2829.0,2822.0,2895.0,3119.0,2987.0,0.800964,-0.012207,-0.598572,-0.001953,0.0,-1.0,0.0,7678.0,-130.0,1416.0,-177.0,11.0,-903.0,815.0,-10.0,-425.0,0.958917,-0.017217,0.283111,15166.0,-78.0,3000.0,9.0,-7.0,12.0
2834.0,2813.0,2863.0,3125.0,2931.0,0.80072,-0.012268,-0.598938,-0.001892,-1.0,-1.0,0.0,7730.0,-129.0,1462.0,-127.0,13.0,-850.0,779.0,-7.0,-361.0,0.95921,-0.01738,0.282279,15878.0,-300.0,3208.0,-5.0,-21.0,12.0
2843.0,2807.0,2923.0,3107.0,2991.0,0.800293,-0.012329,-0.599426,-0.001953,-1.0,0.0,-1.0,7759.0,-118.0,1474.0,-101.0,24.0,-828.0,766.0,4.0,-330.0,0.959481,-0.017392,0.281009,15466.0,-340.0,2926.0,-16.0,7.0,-3.0
2832.0,2835.0,2925.0,3149.0,2959.0,0.80011,-0.012451,-0.599731,-0.002014,-1.0,0.0,-1.0,7776.0,-155.0,1460.0,-86.0,-11.0,-836.0,777.0,-30.0,-316.0,0.959752,-0.017509,0.280347,15666.0,-534.0,2794.0,-10.0,3.0,-7.0
2833.0,2811.0,2899.0,3103.0,3023.0,0.799622,-0.012268,-0.600342,-0.002014,0.0,-1.0,-2.0,7730.0,-171.0,1414.0,-135.0,-30.0,-870.0,797.0,-50.0,-371.0,0.960142,-0.017201,0.278838,15306.0,-328.0,2664.0,21.0,-4.0,-24.0
2837.0,2799.0,2886.0,3155.0,2949.0,0.799377,-0.012146,-0.600708,-0.002014,1.0,-1.0,-2.0,7708.0,-170.0,1406.0,-159.0,-30.0,-871.0,791.0,-50.0,-394.0,0.960434,-0.016999,0.278011,15304.0,-322.0,2816.0,25.0,-12.0,-25.0
2838.0,2819.0,2911.0,3101.0,2966.0,0.798767,-0.011719,-0.601501,-0.002136,0.0,-2.0,-2.0,7722.0,-144.0,1419.0,-150.0,-11.0,-842.0,767.0,-30.0,-376.0,0.960969,-0.016151,0.276092,15712.0,-298.0,2944.0,22.0,-26.0,-29.0
2839.0,2832.0,2878.0,3135.0,2975.0,0.798523,-0.011597,-0.601868,-0.002136,1.0,-1.0,-1.0,7740.0,-125.0,1425.0,-134.0,5.0,-829.0,759.0,-13.0,-357.0,0.96126,-0.015949,0.275264,15482.0,-50.0,2926.0,25.0,-8.0,-16.0
2843.0,2825.0,2882.0,3143.0,2959.0,0.798035,-0.011292,-0.602539,-0.002319,-1.0,-1.0,-1.0,7800.0,-84.0,1448.0,-78.0,40.0,-794.0,742.0,22.0,-292.0,0.961747,-0.015227,0.273684,16070.0,-252.0,2942.0,-4.0,0.0,-21.0
2829.0,2838.0,2878.0,3135.0,3007.0,0.797913,-0.01123,-0.602661,-0.002441,0.0,1.0,-1.0,7829.0,-86.0,1439.0,-50.0,36.0,-800.0,756.0,18.0,-267.0,0.961797,-0.014979,0.273344,15750.0,-170.0,2820.0,2.0,43.0,-17.0
2826.0,2801.0,2899.0,3138.0,2987.0,0.797729,-0.010986,-0.602844,-0.002686,0.0,1.0,-2.0,7746.0,-100.0,1405.0,-133.0,17.0,-830.0,762.0,-1.0,-354.0,0.961872,-0.01429,0.272838,15276.0,-366.0,2726.0,7.0,31.0,-38.0
2827.0,2811.0,2911.0,3151.0,2962.0,0.797546,-0.010864,-0.603088,-0.002686,0.0,0.0,-1.0,7709.0,-114.0,1394.0,-172.0,1.0,-836.0,757.0,-17.0,-393.0,0.96204,-0.01409,0.272254,15198.0,-270.0,2714.0,18.0,7.0,-18.0
2829.0,2819.0,2917.0,3119.0,2995.0,0.796997,-0.010864,-0.603882,-0.002625,-1.0,-2.0,0.0,7705.0,-111.0,1403.0,-180.0,4.0,-812.0,732.0,-14.0,-392.0,0.962641,-0.014148,0.27042,15618.0,-268.0,2834.0,-9.0,-38.0,17.0
2831.0,2811.0,2885.0,3135.0,2975.0,0.796692,-0.011047,-0.604248,-0.002563,-1.0,-1.0,1.0,7764.0,-140.0,1405.0,-123.0,-21.0,-802.0,738.0,-38.0,-334.0,0.962856,-0.014505,0.269487,15892.0,-444.0,2818.0,-16.0,-22.0,26.0
2833.0,2815.0,2943.0,3135.0,2975.0,0.796326,-0.011353,-0.604736,-0.00238,-1.0,1.0,0.0,7822.0,-178.0,1405.0,-68.0,-53.0,-792.0,743.0,-70.0,-277.0,0.963188,-0.015202,0.268305,15622.0,-392.0,2856.0,-3.0,34.0,13.0
2832.0,2811.0,2900.0,3121.0,2975.0,0.796265,-0.011414,-0.604858,-0.00238,-1.0,1.0,0.0,7800.0,-186.0,1403.0,-91.0,-60.0,-792.0,737.0,-77.0,-299.0,0.963309,-0.015297,0.268059,15484.0,-434.0,2850.0,-5.0,39.0,0.0
2842.0,2815.0,2889.0,3135.0,2983.0,0.796082,-0.011353,-0.605103,-0.002502,-1.0,1.0,-2.0,7754.0,-190.0,1416.0,-138.0,-66.0,-775.0,708.0,-83.0,-339.0,0.963479,-0.015047,0.267474,15446.0,-476.0,2934.0,-5.0,29.0,-26.0
2832.0,2807.0,2871.0,3121.0,2979.0,0.795959,-0.011353,-0.605225,-0.002563,0.0,1.0,-2.0,7729.0,-191.0,1422.0,-164.0,-68.0,-766.0,692.0,-85.0,-361.0,0.963527,-0.014969,0.267132,15236.0,-280.0,2878.0,1.0,24.0,-26.0
2832.0,2830.0,2879.0,3127.0,2983.0,0.795532,-0.011292,-0.605835,-0.00293,-2.0,-2.0,-1.0,7659.0,-139.0,1443.0,-237.0,-20.0,-733.0,643.0,-37.0,-422.0,0.963989,-0.014416,0.265717,15358.0,-284.0,3020.0,-29.0,-41.0,-20.0
2823.0,2801.0,2895.0,3147.0,2992.0,0.795166,-0.011414,-0.606262,-0.003052,-2.0,-3.0,-1.0,7676.0,-130.0,1459.0,-222.0,-11.0,-708.0,623.0,-28.0,-401.0,0.964228,-0.014451,0.264614,15472.0,-166.0,2988.0,-28.0,-46.0,-7.0
2820.0,2819.0,2899.0,3139.0,2975.0,0.794617,-0.011475,-0.606995,-0.003174,-1.0,-1.0,0.0,7761.0,-123.0,1474.0,-142.0,-5.0,-679.0,617.0,-21.0,-315.0,0.964729,-0.014383,0.262852,15706.0,-238.0,2942.0,-3.0,-15.0,1.0
2830.0,2801.0,2895.0,3143.0,2963.0,0.794434,-0.011475,-0.607239,-0.003174,0.0,-1.0,0.0,7791.0,-111.0,1470.0,-113.0,6.0,-678.0,624.0,-9.0,-286.0,0.964895,-0.014377,0.262264,15742.0,-134.0,2908.0,18.0,0.0,5.0
2826.0,2783.0,2887.0,3121.0,2967.0,0.79425,-0.011108,-0.607483,-0.002869,2.0,2.0,0.0,7801.0,-102.0,1424.0,-104.0,14.0,-719.0,666.0,-2.0,-288.0,0.965051,-0.01416,0.261683,15256.0,-8.0,2654.0,66.0,57.0,1.0
2843.0,2821.0,2879.0,3135.0,2961.0,0.794128,-0.010742,-0.607605,-0.002808,2.0,0.0,-2.0,7680.0,-34.0,1384.0,-226.0,77.0,-756.0,671.0,59.0,-416.0,0.965093,-0.01365,0.261349,14724.0,272.0,2564.0,49.0,19.0,-25.0
2831.0,2801.0,2913.0,3111.0,2983.0,0.79364,-0.010437,-0.608337,-0.002808,0.0,-2.0,0.0,7722.0,-53.0,1393.0,-188.0,54.0,-734.0,660.0,37.0,-372.0,0.965661,-0.013151,0.259689,15638.0,-132.0,2832.0,11.0,-26.0,15.0
2823.0,2783.0,2877.0,3071.0,2992.0,0.793396,-0.010437,-0.608643,-0.002686,0.0,-1.0,0.0,7752.0,-64.0,1405.0,-160.0,44.0,-716.0,650.0,28.0,-340.0,0.965845,-0.013292,0.25893,15698.0,-222.0,2850.0,11.0,-15.0,12.0
2823.0,2822.0,2883.0,3135.0,2983.0,0.79303,-0.010315,-0.60907,-0.00238,2.0,1.0,0.0,7859.0,-131.0,1418.0,-55.0,-20.0,-694.0,655.0,-33.0,-231.0,0.96607,-0.01346,0.257829,16016.0,-482.0,2760.0,46.0,30.0,10.0
2821.0,2830.0,2882.0,3122.0,2971.0,0.79303,-0.010132,-0.60907,-0.002075,3.0,3.0,0.0,7898.0,-152.0,1405.0,-15.0,-41.0,-707.0,678.0,-54.0,-196.0,0.966063,-0.013542,0.257832,15956.0,-368.0,2706.0,72.0,71.0,14.0
2832.0,2823.0,2899.0,3135.0,2943.0,0.793274,-0.009644,-0.608765,-0.001404,3.0,5.0,1.0,7819.0,-116.0,1364.0,-93.0,-4.0,-754.0,704.0,-17.0,-284.0,0.965861,-0.013591,0.258598,15140.0,-34.0,2620.0,74.0,116.0,29.0
2839.0,2813.0,2867.0,3121.0,2991.0,0.793396,-0.00946,-0.608643,-0.001099,2.0,3.0,1.0,7701.0,-84.0,1346.0,-210.0,28.0,-775.0,694.0,13.0,-403.0,0.96581,-0.013674,0.258943,14750.0,-22.0,2630.0,51.0,80.0,28.0
2827.0,2799.0,2881.0,3126.0,2973.0,0.793274,-0.009338,-0.608765,-0.000793,0.0,1.0,0.0,7634.0,-41.0,1377.0,-278.0,72.0,-741.0,644.0,57.0,-461.0,0.965849,-0.01385,0.258603,15160.0,218.0,2936.0,14.0,28.0,17.0
2849.0,2815.0,2879.0,3127.0,3005.0,0.793152,-0.009277,-0.608887,-0.000916,-2.0,0.0,0.0,7639.0,3.0,1424.0,-273.0,114.0,-691.0,598.0,100.0,-443.0,0.965896,-0.013602,0.258262,15354.0,214.0,3186.0,-26.0,11.0,3.0
2835.0,2819.0,2890.0,3127.0,2971.0,0.792969,-0.009705,-0.609192,-0.001221,-2.0,0.0,0.0,7706.0,-53.0,1518.0,-208.0,60.0,-592.0,519.0,47.0,-354.0,0.966164,-0.013904,0.257592,15494.0,-430.0,3232.0,-45.0,8.0,6.0
2843.0,2801.0,2889.0,3135.0,2987.0,0.792786,-0.009827,-0.609375,-0.001221,-1.0,-1.0,0.0,7724.0,-131.0,1520.0,-191.0,-15.0,-585.0,515.0,-26.0,-334.0,0.966231,-0.014093,0.257076,15632.0,-730.0,3098.0,-9.0,-4.0,3.0
2830.0,2798.0,2865.0,3107.0,2951.0,0.792542,-0.009644,-0.609741,-0.000732,2.0,0.0,0.0,7769.0,-141.0,1507.0,-148.0,-23.0,-592.0,533.0,-34.0,-294.0,0.966505,-0.014393,0.256245,15484.0,46.0,2946.0,68.0,13.0,17.0
2844.0,2815.0,2881.0,3127.0,2967.0,0.792419,-0.009399,-0.609924,-0.000549,2.0,0.0,0.0,7746.0,-75.0,1487.0,-172.0,41.0,-608.0,544.0,29.0,-322.0,0.966642,-0.014226,0.255833,15338.0,254.0,2850.0,48.0,7.0,14.0
2832.0,2826.0,2899.0,3141.0,2942.0,0.791931,-0.009399,-0.610474,-0.000488,-2.0,-2.0,1.0,7687.0,-7.0,1437.0,-233.0,110.0,-646.0,566.0,97.0,-391.0,0.966915,-0.014291,0.254389,15368.0,-4.0,2828.0,-34.0,-30.0,32.0
2832.0,2800.0,2875.0,3121.0,2961.0,0.791687,-0.009705,-0.61084,-0.000488,-3.0,-2.0,1.0,7715.0,-24.0,1421.0,-208.0,96.0,-656.0,582.0,83.0,-368.0,0.967197,-0.014769,0.253549,15644.0,-186.0,2730.0,-55.0,-29.0,42.0
2835.0,2807.0,2883.0,3119.0,2961.0,0.791321,-0.010437,-0.611328,-0.000366,-1.0,0.0,1.0,7750.0,-150.0,1393.0,-175.0,-18.0,-674.0,607.0,-31.0,-339.0,0.967521,-0.01607,0.252358,15448.0,-682.0,2644.0,-18.0,19.0,38.0
2832.0,2823.0,2895.0,3123.0,2983.0,0.791199,-0.010559,-0.61145,-0.000122,1.0,1.0,1.0,7753.0,-194.0,1401.0,-173.0,-58.0,-663.0,597.0,-71.0,-333.0,0.96756,-0.016559,0.252013,15494.0,-578.0,2850.0,24.0,30.0,24.0
2831.0,2815.0,2896.0,3135.0,2959.0,0.791138,-0.010315,-0.611572,0.000366,2.0,1.0,1.0,7756.0,-158.0,1451.0,-171.0,-20.0,-611.0,547.0,-31.0,-318.0,0.967668,-0.016769,0.251772,15630.0,-116.0,3066.0,49.0,32.0,28.0
2819.0,2800.0,2881.0,3126.0,2991.0,0.791138,-0.010254,-0.611572,0.000671,1.0,1.0,2.0,7781.0,-127.0,1475.0,-146.0,12.0,-587.0,531.0,0.0,-289.0,0.967662,-0.017046,0.251774,15714.0,-128.0,3070.0,36.0,42.0,52.0
2833.0,2801.0,2883.0,3119.0,2981.0,0.791199,-0.01062,-0.61145,0.001526,0.0,3.0,4.0,7840.0,-85.0,1467.0,-85.0,67.0,-597.0,556.0,56.0,-233.0,0.967525,-0.018671,0.252014,15882.0,0.0,2904.0,15.0,81.0,111.0
2833.0,2813.0,2895.0,3067.0,2981.0,0.791382,-0.010925,-0.611267,0.001892,-1.0,4.0,4.0,7765.0,-27.0,1445.0,-160.0,133.0,-623.0,563.0,121.0,-314.0,0.96745,-0.019605,0.252522,14906.0,286.0,2720.0,-5.0,101.0,111.0
2832.0,2815.0,2899.0,3131.0,2967.0,0.791382,-0.011536,-0.611206,0.002258,-2.0,2.0,2.0,7727.0,-66.0,1424.0,-197.0,106.0,-645.0,575.0,92.0,-355.0,0.967343,-0.021019,0.252584,15848.0,-480.0,2890.0,-26.0,46.0,63.0
2832.0,2811.0,2895.0,3121.0,2965.0,0.791443,-0.01178,-0.611084,0.002502,0.0,3.0,2.0,7786.0,-85.0,1441.0,-137.0,92.0,-630.0,575.0,79.0,-293.0,0.967217,-0.021704,0.252826,15786.0,-186.0,2964.0,1.0,89.0,50.0
2837.0,2815.0,2886.0,3121.0,2975.0,0.79187,-0.012024,-0.610596,0.002625,-2.0,4.0,1.0,7787.0,-104.0,1486.0,-134.0,78.0,-595.0,542.0,66.0,-282.0,0.966962,-0.022248,0.254093,15692.0,-480.0,3180.0,-23.0,111.0,35.0
2830.0,2815.0,2896.0,3147.0,2987.0,0.792114,-0.012268,-0.610229,0.002808,-1.0,5.0,1.0,7802.0,-165.0,1503.0,-116.0,22.0,-585.0,536.0,10.0,-261.0,0.966674,-0.022862,0.254922,15694.0,-710.0,3120.0,-10.0,126.0,45.0
2831.0,2815.0,2893.0,3135.0,2965.0,0.792725,-0.012512,-0.609436,0.003296,1.0,5.0,1.0,7732.0,-221.0,1536.0,-182.0,-25.0,-568.0,501.0,-37.0,-321.0,0.966147,-0.023855,0.256854,15054.0,-408.0,3210.0,24.0,137.0,33.0
2831.0,2815.0,2895.0,3123.0,2975.0,0.792969,-0.012573,-0.60907,0.003479,0.0,4.0,1.0,7675.0,-203.0,1563.0,-237.0,-4.0,-547.0,467.0,-17.0,-369.0,0.965859,-0.024178,0.257687,15052.0,-320.0,3370.0,6.0,102.0,27.0
2831.0,2807.0,2893.0,3131.0,2975.0,0.793152,-0.012939,-0.608826,0.00354,-2.0,1.0,1.0,7604.0,-217.0,1625.0,-306.0,-13.0,-490.0,394.0,-27.0,-421.0,0.965691,-0.024836,0.258266,15284.0,-612.0,3502.0,-37.0,27.0,31.0
2835.0,2815.0,2887.0,3127.0,2967.0,0.793152,-0.013184,-0.608826,0.00354,-2.0,1.0,0.0,7631.0,-253.0,1646.0,-279.0,-46.0,-469.0,380.0,-59.0,-389.0,0.965689,-0.025224,0.25826,15362.0,-716.0,3352.0,-27.0,23.0,20.0
2839.0,2818.0,2898.0,3149.0,2963.0,0.79303,-0.013428,-0.609009,0.003601,0.0,0.0,-1.0,7660.0,-301.0,1674.0,-252.0,-90.0,-438.0,357.0,-102.0,-354.0,0.965828,-0.025683,0.257837,15350.0,-628.0,3356.0,4.0,9.0,-7.0
2833.0,2815.0,2886.0,3133.0,2975.0,0.792969,-0.013367,-0.609131,0.003662,0.0,-1.0,-1.0,7665.0,-295.0,1669.0,-248.0,-84.0,-441.0,361.0,-96.0,-350.0,0.965946,-0.02566,0.257594,15348.0,-538.0,3312.0,6.0,-1.0,-7.0
2829.0,2810.0,2893.0,3123.0,2971.0,0.792664,-0.013367,-0.609436,0.003601,-1.0,0.0,-1.0,7702.0,-262.0,1658.0,-211.0,-52.0,-445.0,375.0,-64.0,-316.0,0.966059,-0.02558,0.256738,15518.0,-462.0,3210.0,-3.0,2.0,-9.0
2833.0,2828.0,2899.0,3135.0,2974.0,0.792603,-0.013367,-0.609619,0.00354,-1.0,0.0,-1.0,7693.0,-255.0,1635.0,-222.0,-46.0,-465.0,391.0,-58.0,-332.0,0.966277,-0.025505,0.256417,15254.0,-470.0,3120.0,-5.0,4.0,-8.0
2835.0,2823.0,2895.0,3127.0,2967.0,0.792236,-0.013367,-0.610046,0.003479,-1.0,-1.0,-1.0,7692.0,-225.0,1609.0,-225.0,-16.0,-482.0,408.0,-29.0,-340.0,0.966509,-0.025424,0.255315,15514.0,-290.0,3192.0,-6.0,-15.0,-11.0
2833.0,2809.0,2886.0,3123.0,2975.0,0.792114,-0.013367,-0.610229,0.003357,-1.0,-1.0,-1.0,7721.0,-217.0,1605.0,-197.0,-9.0,-483.0,416.0,-21.0,-313.0,0.966653,-0.025273,0.254898,15604.0,-450.0,3178.0,-13.0,-2.0,-11.0
2832.0,2815.0,2891.0,3125.0,2975.0,0.791931,-0.013306,-0.610474,0.003357,1.0,1.0,-1.0,7743.0,-279.0,1557.0,-177.0,-72.0,-526.0,462.0,-84.0,-303.0,0.966817,-0.025173,0.254311,15560.0,-718.0,2972.0,24.0,29.0,-12.0
2837.0,2815.0,2903.0,3147.0,2973.0,0.79187,-0.013184,-0.610535,0.003479,2.0,1.0,-1.0,7743.0,-280.0,1553.0,-177.0,-74.0,-528.0,464.0,-86.0,-303.0,0.966837,-0.025127,0.254144,15484.0,-508.0,3116.0,46.0,35.0,-10.0
2835.0,2821.0,2895.0,3135.0,2975.0,0.791931,-0.012695,-0.610474,0.003662,1.0,1.0,-1.0,7716.0,-196.0,1572.0,-204.0,5.0,-511.0,442.0,-7.0,-327.0,0.966813,-0.024579,0.254329,15190.0,-130.0,3216.0,36.0,43.0,-10.0
2830.0,2813.0,2881.0,3123.0,2975.0,0.79187,-0.012573,-0.610535,0.003662,0.0,0.0,-1.0,7679.0,-173.0,1594.0,-241.0,26.0,-488.0,410.0,13.0,-357.0,0.966836,-0.024384,0.254161,15126.0,-174.0,3326.0,19.0,22.0,-2.0
2832.0,2815.0,2887.0,3119.0,2973.0,0.791565,-0.012573,-0.610962,0.003662,-2.0,-3.0,0.0,7601.0,-108.0,1639.0,-321.0,91.0,-434.0,339.0,77.0,-422.0,0.96714,-0.02438,0.253156,15204.0,-96.0,3390.0,-25.0,-63.0,11.0
2825.0,2814.0,2911.0,3150.0,2963.0,0.79126,-0.012695,-0.611389,0.003601,-2.0,-4.0,0.0,7659.0,-112.0,1659.0,-266.0,88.0,-406.0,326.0,75.0,-361.0,0.967444,-0.024494,0.252147,15726.0,-280.0,3420.0,-33.0,-75.0,22.0
2835.0,2832.0,2903.0,3135.0,2991.0,0.790771,-0.013,-0.612,0.003662,-1.0,-1.0,0.0,7763.0,-155.0,1654.0,-165.0,50.0,-399.0,345.0,39.0,-260.0,0.967808,-0.025043,0.250621,15676.0,-466.0,3160.0,-2.0,-17.0,20.0
2837.0,2815.0,2895.0,3131.0,2975.0,0.790588,-0.013,-0.612183,0.003784,1.0,-1.0,0.0,7760.0,-181.0,1625.0,-168.0,25.0,-423.0,367.0,14.0,-269.0,0.967871,-0.025189,0.250108,15448.0,-474.0,3052.0,25.0,-1.0,19.0
2829.0,2811.0,2894.0,3135.0,2975.0,0.790344,-0.012756,-0.612488,0.004272,2.0,0.0,0.0,7748.0,-196.0,1546.0,-182.0,12.0,-496.0,434.0,0.0,-300.0,0.968043,-0.025397,0.249358,15578.0,-450.0,2884.0,52.0,7.0,18.0
2831.0,2835.0,2918.0,3155.0,2983.0,0.790222,-0.012634,-0.612671,0.004517,2.0,0.0,0.0,7722.0,-183.0,1506.0,-209.0,25.0,-533.0,464.0,12.0,-335.0,0.968178,-0.025502,0.248946,15244.0,-278.0,2762.0,49.0,18.0,16.0
2851.0,2819.0,2893.0,3148.0,2981.0,0.789978,-0.012451,-0.612976,0.0047,0.0,-1.0,0.0,7670.0,-167.0,1476.0,-262.0,41.0,-557.0,474.0,27.0,-392.0,0.968358,-0.025434,0.248193,15302.0,-346.0,2974.0,4.0,-1.0,7.0
2832.0,2810.0,2895.0,3123.0,2971.0,0.789856,-0.012512,-0.613159,0.0047,-1.0,-1.0,0.0,7693.0,-181.0,1502.0,-240.0,28.0,-527.0,451.0,15.0,-363.0,0.968497,-0.025529,0.247774,15558.0,-450.0,3178.0,-9.0,-5.0,10.0
2823.0,2819.0,2897.0,3119.0,2978.0,0.789795,-0.012634,-0.61322,0.0047,-1.0,1.0,0.0,7765.0,-184.0,1590.0,-169.0,26.0,-438.0,382.0,15.0,-272.0,0.968518,-0.025721,0.247599,15678.0,-448.0,3498.0,-7.0,37.0,8.0
2828.0,2811.0,2895.0,3127.0,2967.0,0.789856,-0.012695,-0.613159,0.004761,0.0,1.0,0.0,7747.0,-211.0,1621.0,-186.0,1.0,-408.0,349.0,-9.0,-281.0,0.968494,-0.025893,0.24777,15348.0,-604.0,3374.0,5.0,38.0,8.0
2842.0,2812.0,2870.0,3159.0,2983.0,0.789795,-0.012634,-0.613159,0.005127,1.0,0.0,0.0,7701.0,-204.0,1662.0,-232.0,10.0,-366.0,297.0,0.0,-315.0,0.96841,-0.026244,0.247679,15188.0,-246.0,3420.0,33.0,5.0,21.0
2831.0,2829.0,2877.0,3120.0,2965.0,0.789734,-0.012573,-0.613342,0.00531,1.0,-1.0,1.0,7682.0,-191.0,1682.0,-252.0,25.0,-344.0,271.0,14.0,-329.0,0.968621,-0.026373,0.247361,15240.0,-332.0,3454.0,25.0,-19.0,28.0
2843.0,2831.0,2878.0,3149.0,2995.0,0.789246,-0.012695,-0.613892,0.005737,0.0,-3.0,2.0,7654.0,-174.0,1665.0,-283.0,47.0,-349.0,268.0,35.0,-361.0,0.968877,-0.027084,0.245917,15298.0,-316.0,3220.0,13.0,-61.0,50.0
2829.0,2809.0,2894.0,3147.0,2967.0,0.78894,-0.012817,-0.614319,0.005981,0.0,-4.0,2.0,7650.0,-175.0,1647.0,-289.0,50.0,-359.0,277.0,38.0,-369.0,0.969169,-0.027573,0.244911,15296.0,-366.0,3194.0,4.0,-70.0,51.0
2847.0,2811.0,2895.0,3151.0,3023.0,0.788269,-0.013184,-0.615173,0.006348,-1.0,-3.0,2.0,7722.0,-193.0,1606.0,-221.0,41.0,-382.0,317.0,30.0,-308.0,0.969677,-0.028594,0.242796,15848.0,-474.0,3178.0,-9.0,-55.0,50.0
2815.0,2822.0,2918.0,3119.0,2973.0,0.788086,-0.013367,-0.615417,0.006531,-1.0,-1.0,1.0,7773.0,-216.0,1597.0,-171.0,22.0,-387.0,334.0,12.0,-260.0,0.969829,-0.029107,0.242205,15798.0,-586.0,3154.0,-1.0,-8.0,43.0
2834.0,2807.0,2887.0,3123.0,2965.0,0.788025,-0.013672,-0.615417,0.00708,1.0,1.0,2.0,7772.0,-289.0,1577.0,-172.0,-41.0,-406.0,351.0,-51.0,-263.0,0.969735,-0.030262,0.242108,15530.0,-852.0,3084.0,27.0,36.0,68.0
2831.0,2823.0,2911.0,3135.0,2985.0,0.788025,-0.013855,-0.615417,0.00769,2.0,2.0,4.0,7774.0,-298.0,1576.0,-169.0,-41.0,-407.0,353.0,-50.0,-261.0,0.969715,-0.031302,0.242112,15482.0,-530.0,3232.0,48.0,47.0,107.0
2823.0,2815.0,2884.0,3139.0,2963.0,0.787964,-0.01416,-0.615479,0.008545,-1.0,-2.0,3.0,7600.0,-184.0,1574.0,-343.0,84.0,-408.0,313.0,68.0,-434.0,0.969708,-0.032834,0.241946,15132.0,-374.0,3254.0,-9.0,-36.0,69.0
2847.0,2830.0,2899.0,3119.0,2963.0,0.787659,-0.014404,-0.615845,0.008728,-1.0,-3.0,2.0,7643.0,-229.0,1576.0,-302.0,44.0,-398.0,313.0,29.0,-390.0,0.969899,-0.033442,0.24101,15674.0,-748.0,3290.0,-17.0,-63.0,62.0
2847.0,2821.0,2896.0,3133.0,2963.0,0.78717,-0.014709,-0.616455,0.009094,0.0,-2.0,1.0,7745.0,-251.0,1605.0,-203.0,30.0,-356.0,297.0,19.0,-283.0,0.970243,-0.03437,0.239487,15814.0,-522.0,3234.0,8.0,-40.0,23.0
2831.0,2817.0,2855.0,3109.0,2991.0,0.786987,-0.014709,-0.616699,0.009216,0.0,-1.0,0.0,7806.0,-272.0,1608.0,-143.0,10.0,-349.0,304.0,1.0,-222.0,0.970398,-0.03452,0.2389,15928.0,-666.0,3178.0,10.0,-19.0,7.0
2829.0,2819.0,2896.0,3121.0,2989.0,0.786743,-0.014648,-0.617065,0.009338,0.0,-1.0,0.0,7818.0,-292.0,1566.0,-133.0,-8.0,-384.0,341.0,-16.0,-220.0,0.97067,-0.034574,0.238068,15690.0,-564.0,3068.0,16.0,-5.0,1.0
2851.0,2806.0,2875.0,3143.0,2987.0,0.786621,-0.014587,-0.617188,0.009399,0.0,0.0,-1.0,7797.0,-289.0,1535.0,-155.0,-5.0,-412.0,363.0,-14.0,-248.0,0.970711,-0.034552,0.237728,15374.0,-556.0,2868.0,20.0,11.0,-3.0
2843.0,2821.0,2899.0,3131.0,2942.0,0.786377,-0.014404,-0.617493,0.00946,0.0,-1.0,-1.0,7722.0,-269.0,1479.0,-231.0,12.0,-462.0,394.0,0.0,-334.0,0.970891,-0.034338,0.236974,15274.0,-428.0,2856.0,14.0,-5.0,-8.0
2839.0,2799.0,2898.0,3131.0,2983.0,0.786255,-0.014282,-0.617676,0.009399,0.0,-1.0,-1.0,7709.0,-249.0,1455.0,-245.0,30.0,-482.0,410.0,16.0,-352.0,0.971033,-0.034071,0.236558,15360.0,-380.0,2768.0,9.0,-4.0,-9.0
2831.0,2798.0,2902.0,3126.0,2969.0,0.786133,-0.014221,-0.617859,0.009399,0.0,1.0,0.0,7706.0,-206.0,1480.0,-249.0,72.0,-454.0,382.0,59.0,-351.0,0.971171,-0.033975,0.236141,15260.0,-224.0,3022.0,4.0,32.0,5.0
2833.0,2819.0,2895.0,3123.0,2989.0,0.786133,-0.01416,-0.617798,0.009338,-1.0,1.0,0.0,7689.0,-180.0,1484.0,-266.0,96.0,-451.0,375.0,82.0,-368.0,0.971078,-0.033802,0.236217,15298.0,-216.0,2976.0,-6.0,32.0,8.0
2831.0,2827.0,2899.0,3123.0,2975.0,0.786133,-0.014221,-0.617798,0.009399,0.0,1.0,0.0,7715.0,-177.0,1510.0,-240.0,101.0,-425.0,356.0,88.0,-336.0,0.971075,-0.033973,0.236217,15576.0,-426.0,3118.0,5.0,38.0,18.0
2832.0,2813.0,2895.0,3119.0,2975.0,0.786194,-0.01416,-0.617737,0.009521,0.0,1.0,0.0,7715.0,-188.0,1533.0,-239.0,90.0,-403.0,335.0,77.0,-330.0,0.971052,-0.034029,0.236392,15390.0,-436.0,3228.0,21.0,45.0,20.0
2847.0,2810.0,2899.0,3115.0,2981.0,0.786316,-0.014038,-0.617615,0.009888,1.0,1.0,1.0,7708.0,-184.0,1595.0,-246.0,96.0,-344.0,276.0,84.0,-323.0,0.971003,-0.03429,0.236745,15454.0,-346.0,3408.0,33.0,28.0,27.0
2831.0,2826.0,2896.0,3133.0,2989.0,0.786316,-0.013977,-0.617554,0.010071,1.0,0.0,1.0,7706.0,-205.0,1617.0,-247.0,76.0,-323.0,255.0,64.0,-318.0,0.970903,-0.034419,0.236826,15390.0,-594.0,3344.0,36.0,22.0,29.0
2829.0,2815.0,2898.0,3121.0,2975.0,0.786194,-0.013916,-0.617676,0.010742,1.0,-1.0,2.0,7684.0,-247.0,1645.0,-269.0,40.0,-292.0,220.0,28.0,-331.0,0.970927,-0.035152,0.236499,15386.0,-646.0,3438.0,45.0,-18.0,51.0
2827.0,2821.0,2896.0,3135.0,2967.0,0.786072,-0.013916,-0.617859,0.011169,2.0,-2.0,2.0,7705.0,-268.0,1657.0,-249.0,24.0,-277.0,210.0,13.0,-308.0,0.971052,-0.03568,0.23609,15530.0,-656.0,3382.0,48.0,-25.0,59.0
2823.0,2803.0,2899.0,3121.0,2975.0,0.785767,-0.014099,-0.618225,0.012085,1.0,-2.0,3.0,7679.0,-292.0,1667.0,-277.0,11.0,-259.0,186.0,0.0,-330.0,0.97122,-0.0371,0.235174,15168.0,-666.0,3336.0,31.0,-43.0,84.0
2845.0,2815.0,2877.0,3131.0,2961.0,0.785522,-0.014282,-0.61853,0.012512,0.0,-3.0,3.0,7642.0,-300.0,1656.0,-315.0,10.0,-264.0,182.0,-3.0,-368.0,0.971381,-0.037916,0.234418,15032.0,-612.0,3192.0,18.0,-62.0,85.0
2835.0,2795.0,2907.0,3147.0,2971.0,0.78479,-0.014709,-0.619446,0.013184,0.0,-5.0,2.0,7649.0,-386.0,1624.0,-312.0,-63.0,-277.0,197.0,-76.0,-365.0,0.971882,-0.039421,0.23214,15604.0,-1184.0,3128.0,12.0,-103.0,61.0
2815.0,2773.0,2882.0,3103.0,2993.0,0.784363,-0.014893,-0.619934,0.013611,1.0,-4.0,2.0,7670.0,-408.0,1605.0,-293.0,-78.0,-286.0,210.0,-91.0,-347.0,0.972101,-0.040238,0.23087,15388.0,-872.0,3094.0,27.0,-85.0,61.0
2843.0,2832.0,2859.0,3143.0,2959.0,0.783691,-0.015137,-0.620789,0.014099,0.0,-3.0,1.0,7710.0,-398.0,1565.0,-257.0,-60.0,-309.0,242.0,-72.0,-318.0,0.972587,-0.04123,0.228763,15660.0,-778.0,3004.0,2.0,-67.0,36.0
2843.0,2811.0,2917.0,3134.0,2989.0,0.783447,-0.015259,-0.621094,0.014282,0.0,-2.0,1.0,7771.0,-429.0,1548.0,-197.0,-87.0,-319.0,265.0,-97.0,-260.0,0.972753,-0.04165,0.228003,15892.0,-1054.0,2994.0,1.0,-26.0,23.0
2830.0,2839.0,2871.0,3123.0,2967.0,0.783447,-0.015259,-0.621155,0.014526,1.0,2.0,-1.0,7785.0,-442.0,1492.0,-184.0,-98.0,-375.0,323.0,-107.0,-260.0,0.972841,-0.041955,0.227935,15438.0,-764.0,2784.0,26.0,51.0,-9.0
2827.0,2811.0,2865.0,3095.0,2967.0,0.783447,-0.015137,-0.621033,0.014465,0.0,2.0,-2.0,7763.0,-417.0,1472.0,-204.0,-75.0,-396.0,339.0,-85.0,-285.0,0.972655,-0.041685,0.228088,15410.0,-714.0,2850.0,12.0,52.0,-27.0
2803.0,2813.0,2871.0,3135.0,2941.0,0.78363,-0.015015,-0.62085,0.014282,0.0,2.0,-2.0,7715.0,-416.0,1475.0,-252.0,-77.0,-397.0,329.0,-89.0,-332.0,0.972604,-0.041266,0.228601,15198.0,-778.0,3080.0,10.0,53.0,-27.0
2831.0,2831.0,2896.0,3152.0,2977.0,0.783691,-0.014832,-0.620789,0.014221,0.0,1.0,-2.0,7668.0,-386.0,1494.0,-299.0,-50.0,-380.0,301.0,-64.0,-375.0,0.972592,-0.040903,0.228776,15066.0,-560.0,3020.0,19.0,28.0,-37.0
2837.0,2831.0,2887.0,3121.0,2965.0,0.78363,-0.014465,-0.620911,0.013916,0.0,0.0,-2.0,7730.0,-328.0,1583.0,-238.0,0.0,-289.0,226.0,-11.0,-297.0,0.972726,-0.039952,0.228531,15624.0,-480.0,3452.0,1.0,3.0,-39.0
2833.0,2803.0,2875.0,3135.0,2983.0,0.78363,-0.014343,-0.620911,0.013733,-1.0,0.0,-2.0,7732.0,-309.0,1618.0,-236.0,14.0,-254.0,193.0,3.0,-288.0,0.972735,-0.039533,0.228529,15412.0,-518.0,3370.0,-6.0,3.0,-37.0
2832.0,2814.0,2858.0,3125.0,2960.0,0.783569,-0.01416,-0.621033,0.013367,-1.0,0.0,-2.0,7773.0,-295.0,1654.0,-196.0,22.0,-216.0,165.0,13.0,-240.0,0.972866,-0.038793,0.228277,15618.0,-578.0,3290.0,-1.0,7.0,-32.0
2829.0,2831.0,2903.0,3143.0,2974.0,0.783569,-0.013977,-0.621033,0.013245,0.0,0.0,-2.0,7747.0,-283.0,1640.0,-222.0,31.0,-230.0,173.0,21.0,-269.0,0.972874,-0.038355,0.228279,15274.0,-500.0,3160.0,11.0,17.0,-34.0
2841.0,2811.0,2879.0,3143.0,2985.0,0.783447,-0.01355,-0.621216,0.013,0.0,-1.0,-2.0,7664.0,-219.0,1607.0,-307.0,87.0,-259.0,181.0,74.0,-360.0,0.973027,-0.037383,0.227866,15194.0,-186.0,3068.0,14.0,-18.0,-31.0
2832.0,2790.0,2880.0,3125.0,2983.0,0.783264,-0.013367,-0.621399,0.012878,0.0,-1.0,-2.0,7673.0,-195.0,1591.0,-298.0,107.0,-271.0,195.0,94.0,-355.0,0.973095,-0.036945,0.227353,15424.0,-244.0,3080.0,3.0,-21.0,-24.0
2819.0,2805.0,2896.0,3119.0,2958.0,0.78302,-0.013184,-0.621704,0.012573,-1.0,-1.0,-2.0,7674.0,-176.0,1539.0,-299.0,121.0,-317.0,240.0,108.0,-367.0,0.973282,-0.03628,0.226589,15376.0,-402.0,2954.0,-15.0,-16.0,-25.0
2837.0,2821.0,2896.0,3147.0,2971.0,0.782898,-0.013123,-0.621887,0.012329,-1.0,-1.0,-2.0,7698.0,-185.0,1525.0,-276.0,108.0,-327.0,255.0,96.0,-346.0,0.973425,-0.035882,0.226165,15600.0,-432.0,2990.0,-18.0,-9.0,-30.0
2845.0,2823.0,2902.0,3131.0,2983.0,0.782837,-0.013123,-0.621948,0.011963,-1.0,1.0,-1.0,7766.0,-204.0,1519.0,-208.0,86.0,-332.0,276.0,76.0,-280.0,0.973454,-0.035426,0.225985,15542.0,-476.0,2994.0,-18.0,43.0,-21.0
2833.0,2810.0,2871.0,3119.0,2960.0,0.782898,-0.013123,-0.621887,0.011841,-1.0,2.0,-1.0,7742.0,-222.0,1507.0,-232.0,66.0,-345.0,283.0,55.0,-306.0,0.973438,-0.035275,0.226154,15254.0,-548.0,2900.0,-14.0,46.0,-12.0
2832.0,2800.0,2876.0,3123.0,2975.0,0.782898,-0.013184,-0.621887,0.011719,-1.0,0.0,0.0,7691.0,-238.0,1521.0,-283.0,50.0,-331.0,258.0,38.0,-352.0,0.973439,-0.035218,0.226149,15356.0,-558.0,3118.0,-12.0,4.0,4.0
2835.0,2817.0,2893.0,3135.0,2983.0,0.782837,-0.013245,-0.622009,0.011719,-1.0,-1.0,0.0,7680.0,-249.0,1533.0,-295.0,40.0,-317.0,242.0,27.0,-360.0,0.973553,-0.035315,0.2259,15262.0,-536.0,3160.0,-7.0,-8.0,10.0
2832.0,2815.0,2891.0,3131.0,2979.0,0.782532,-0.01355,-0.622375,0.011841,-1.0,-2.0,1.0,7707.0,-259.0,1580.0,-269.0,35.0,-262.0,194.0,23.0,-322.0,0.973736,-0.035945,0.224961,15646.0,-544.0,3308.0,-18.0,-37.0,28.0
2839.0,2803.0,2899.0,3131.0,2982.0,0.782349,-0.013672,-0.622559,0.011902,-1.0,-2.0,1.0,7728.0,-275.0,1589.0,-249.0,21.0,-249.0,186.0,10.0,-299.0,0.97379,-0.036212,0.224445,15566.0,-636.0,3200.0,-14.0,-23.0,26.0
2833.0,2811.0,2887.0,3130.0,2987.0,0.782166,-0.013855,-0.622742,0.012024,0.0,0.0,0.0,7750.0,-313.0,1574.0,-227.0,-12.0,-260.0,202.0,-21.0,-278.0,0.973841,-0.036649,0.223928,15532.0,-710.0,3054.0,2.0,4.0,9.0
2831.0,2821.0,2890.0,3143.0,2975.0,0.782166,-0.013855,-0.622803,0.012085,0.0,0.0,0.0,7731.0,-310.0,1562.0,-247.0,-9.0,-271.0,208.0,-19.0,-300.0,0.973935,-0.036727,0.223854,15284.0,-554.0,3060.0,9.0,19.0,10.0
2831.0,2811.0,2895.0,3127.0,2963.0,0.782104,-0.013855,-0.622864,0.012085,0.0,0.0,-1.0,7675.0,-297.0,1551.0,-303.0,3.0,-281.0,206.0,-9.0,-358.0,0.973954,-0.036727,0.223682,15190.0,-568.0,3078.0,1.0,6.0,-2.0
2831.0,2803.0,2883.0,3125.0,2975.0,0.782043,-0.013855,-0.622986,0.012146,0.0,-1.0,0.0,7640.0,-291.0,1552.0,-339.0,10.0,-278.0,195.0,-4.0,-392.0,0.974067,-0.036804,0.223436,15076.0,-534.0,3150.0,1.0,-13.0,3.0
2831.0,2807.0,2890.0,3123.0,2975.0,0.781677,-0.013916,-0.623352,0.012146,-1.0,-2.0,0.0,7668.0,-272.0,1581.0,-312.0,30.0,-240.0,164.0,17.0,-358.0,0.974182,-0.036898,0.222405,15582.0,-492.0,3326.0,-7.0,-42.0,7.0
2833.0,2815.0,2889.0,3135.0,2971.0,0.781555,-0.013916,-0.623596,0.012146,-1.0,-2.0,0.0,7710.0,-274.0,1590.0,-272.0,28.0,-227.0,160.0,16.0,-316.0,0.974412,-0.036901,0.22191,15660.0,-584.0,3224.0,-7.0,-33.0,7.0
2837.0,2815.0,2891.0,3135.0,2975.0,0.78125,-0.014038,-0.623901,0.012207,0.0,-2.0,0.0,7723.0,-269.0,1597.0,-260.0,35.0,-213.0,150.0,24.0,-301.0,0.974503,-0.037166,0.221051,15488.0,-528.0,3250.0,3.0,-31.0,20.0
2832.0,2811.0,2893.0,3127.0,2975.0,0.781128,-0.014099,-0.624084,0.012329,0.0,-2.0,1.0,7713.0,-257.0,1603.0,-271.0,49.0,-204.0,139.0,37.0,-310.0,0.974632,-0.037415,0.220633,15348.0,-392.0,3222.0,9.0,-35.0,29.0
2831.0,2813.0,2890.0,3123.0,2971.0,0.780701,-0.014282,-0.624634,0.012695,0.0,-3.0,2.0,7707.0,-244.0,1584.0,-279.0,68.0,-212.0,145.0,56.0,-321.0,0.974941,-0.03816,0.219283,15472.0,-530.0,3152.0,1.0,-60.0,52.0
2838.0,2815.0,2892.0,3138.0,2975.0,0.780396,-0.014404,-0.624939,0.012939,0.0,-3.0,2.0,7707.0,-261.0,1559.0,-280.0,55.0,-230.0,163.0,42.0,-325.0,0.975026,-0.038655,0.218428,15390.0,-624.0,2964.0,14.0,-62.0,60.0
2832.0,2822.0,2899.0,3135.0,2975.0,0.779846,-0.014587,-0.62561,0.013489,0.0,-3.0,2.0,7731.0,-232.0,1529.0,-259.0,92.0,-246.0,183.0,80.0,-309.0,0.975366,-0.039629,0.216741,15556.0,-380.0,2992.0,10.0,-53.0,47.0
2833.0,2811.0,2891.0,3127.0,2975.0,0.779663,-0.014648,-0.625916,0.013611,-1.0,-2.0,1.0,7752.0,-241.0,1510.0,-240.0,85.0,-260.0,201.0,73.0,-293.0,0.975608,-0.03988,0.216075,15632.0,-578.0,2902.0,-5.0,-36.0,31.0
2834.0,2811.0,2898.0,3125.0,2972.0,0.779358,-0.014893,-0.626282,0.013794,0.0,-1.0,1.0,7759.0,-329.0,1467.0,-234.0,2.0,-295.0,237.0,-9.0,-291.0,0.975784,-0.040491,0.215138,15570.0,-996.0,2790.0,5.0,-14.0,28.0
2835.0,2815.0,2898.0,3143.0,2975.0,0.779236,-0.014954,-0.626404,0.014038,0.0,-1.0,1.0,7743.0,-350.0,1460.0,-250.0,-15.0,-299.0,238.0,-26.0,-307.0,0.975813,-0.040892,0.2148,15334.0,-780.0,2850.0,21.0,-3.0,30.0
2835.0,2815.0,2895.0,3151.0,2975.0,0.779053,-0.015076,-0.626587,0.014282,-1.0,-1.0,1.0,7754.0,-341.0,1457.0,-240.0,-1.0,-298.0,239.0,-12.0,-298.0,0.975858,-0.041388,0.214289,15624.0,-762.0,2920.0,-6.0,-2.0,26.0
2832.0,2819.0,2895.0,3131.0,2975.0,0.778992,-0.015259,-0.626648,0.014404,-1.0,0.0,1.0,7750.0,-353.0,1457.0,-244.0,-10.0,-297.0,237.0,-21.0,-301.0,0.975868,-0.041826,0.214115,15358.0,-730.0,2820.0,-5.0,15.0,27.0
2831.0,2814.0,2885.0,3119.0,2979.0,0.77887,-0.015503,-0.626831,0.014587,-1.0,-1.0,1.0,7719.0,-367.0,1494.0,-276.0,-19.0,-256.0,191.0,-32.0,-323.0,0.975987,-0.042437,0.213693,15540.0,-822.0,3196.0,-11.0,-14.0,23.0
2827.0,2830.0,2896.0,3139.0,2965.0,0.778809,-0.015625,-0.626892,0.014648,-1.0,-1.0,1.0,7734.0,-362.0,1516.0,-261.0,-12.0,-233.0,171.0,-24.0,-303.0,0.976,-0.042704,0.21352,15508.0,-606.0,3104.0,-2.0,-1.0,26.0
2838.0,2811.0,2900.0,3139.0,2991.0,0.778748,-0.015808,-0.626953,0.014771,-1.0,0.0,0.0,7754.0,-321.0,1553.0,-241.0,32.0,-194.0,137.0,20.0,-277.0,0.976009,-0.043142,0.213346,15610.0,-542.0,3186.0,-13.0,7.0,16.0
2832.0,2819.0,2885.0,3127.0,2979.0,0.778809,-0.015869,-0.626892,0.014709,-1.0,0.0,0.0,7766.0,-309.0,1573.0,-229.0,44.0,-176.0,122.0,33.0,-262.0,0.975991,-0.043161,0.213514,15600.0,-544.0,3268.0,-15.0,22.0,14.0
2834.0,2815.0,2892.0,3095.0,2975.0,0.778931,-0.015991,-0.626709,0.014709,-1.0,0.0,0.0,7719.0,-316.0,1577.0,-275.0,39.0,-175.0,111.0,26.0,-307.0,0.975855,-0.043349,0.213929,15236.0,-674.0,3138.0,-3.0,22.0,6.0
2830.0,2812.0,2891.0,3135.0,2971.0,0.778931,-0.015991,-0.626709,0.014709,0.0,0.0,0.0,7691.0,-301.0,1579.0,-303.0,54.0,-173.0,103.0,39.0,-335.0,0.975855,-0.043349,0.213929,15174.0,-472.0,3128.0,2.0,8.0,7.0
2847.0,2831.0,2897.0,3151.0,2975.0,0.778748,-0.016052,-0.626892,0.014648,-1.0,-2.0,0.0,7666.0,-280.0,1551.0,-328.0,75.0,-197.0,122.0,59.0,-365.0,0.975911,-0.043367,0.213411,15362.0,-552.0,2984.0,-21.0,-27.0,13.0
2832.0,2815.0,2879.0,3135.0,2967.0,0.778625,-0.016235,-0.627136,0.014648,-2.0,-2.0,0.0,7685.0,-296.0,1537.0,-311.0,61.0,-207.0,135.0,46.0,-350.0,0.976133,-0.043656,0.212909,15478.0,-680.0,2958.0,-29.0,-33.0,14.0
2833.0,2827.0,2885.0,3139.0,2975.0,0.77832,-0.016479,-0.627502,0.014587,-1.0,-1.0,-1.0,7754.0,-374.0,1503.0,-243.0,-13.0,-233.0,176.0,-25.0,-286.0,0.976315,-0.04396,0.211964,15686.0,-982.0,2914.0,-3.0,-13.0,-2.0
2831.0,2831.0,2892.0,3123.0,2975.0,0.778259,-0.016418,-0.627563,0.014648,0.0,0.0,-1.0,7775.0,-399.0,1505.0,-223.0,-39.0,-230.0,177.0,-50.0,-264.0,0.976333,-0.043941,0.211797,15642.0,-910.0,3050.0,15.0,6.0,-13.0
2849.0,2813.0,2895.0,3135.0,2955.0,0.778259,-0.016235,-0.627563,0.014709,0.0,0.0,-1.0,7744.0,-360.0,1510.0,-254.0,-1.0,-225.0,166.0,-13.0,-295.0,0.976337,-0.043733,0.211804,15308.0,-452.0,3058.0,13.0,14.0,-9.0
2833.0,2807.0,2894.0,3115.0,2982.0,0.778259,-0.016174,-0.627563,0.014587,-1.0,0.0,-1.0,7722.0,-323.0,1519.0,-276.0,33.0,-216.0,152.0,19.0,-316.0,0.976342,-0.043485,0.211803,15338.0,-460.0,3096.0,-8.0,4.0,-13.0
2841.0,2814.0,2881.0,3143.0,2967.0,0.778198,-0.016174,-0.627625,0.014343,-1.0,-1.0,-1.0,7686.0,-327.0,1542.0,-312.0,26.0,-191.0,120.0,11.0,-346.0,0.976369,-0.043178,0.211624,15118.0,-678.0,3058.0,-18.0,-3.0,-14.0
2822.0,2813.0,2902.0,3135.0,2971.0,0.778076,-0.016235,-0.627808,0.014221,-1.0,-2.0,-1.0,7662.0,-331.0,1546.0,-337.0,22.0,-184.0,108.0,6.0,-368.0,0.976503,-0.043121,0.211199,15244.0,-692.0,3154.0,-18.0,-28.0,-19.0
2846.0,2823.0,2852.0,3123.0,2965.0,0.777771,-0.016174,-0.628174,0.013977,-1.0,-2.0,-1.0,7714.0,-339.0,1554.0,-287.0,10.0,-168.0,103.0,-3.0,-316.0,0.976699,-0.04272,0.210259,15656.0,-626.0,3084.0,-6.0,-35.0,-12.0
2835.0,2821.0,2890.0,3119.0,2992.0,0.777649,-0.016174,-0.628296,0.013916,-1.0,-1.0,-1.0,7734.0,-320.0,1545.0,-267.0,29.0,-174.0,113.0,16.0,-298.0,0.976737,-0.042643,0.209914,15550.0,-560.0,3062.0,-13.0,-22.0,-13.0
2842.0,2827.0,2887.0,3139.0,2971.0,0.777466,-0.016235,-0.628601,0.013733,-1.0,-1.0,-1.0,7760.0,-338.0,1489.0,-243.0,10.0,-225.0,169.0,-1.0,-284.0,0.976986,-0.04251,0.209239,15524.0,-732.0,2840.0,-8.0,-2.0,-7.0
2847.0,2801.0,2869.0,3139.0,2943.0,0.777405,-0.016235,-0.628662,0.013672,-1.0,0.0,-1.0,7756.0,-334.0,1466.0,-247.0,13.0,-246.0,188.0,0.0,-293.0,0.977006,-0.042433,0.209065,15478.0,-634.0,2812.0,-4.0,6.0,-8.0
2839.0,2775.0,2891.0,3163.0,2959.0,0.777283,-0.016235,-0.628784,0.013489,-2.0,0.0,-1.0,7711.0,-292.0,1440.0,-292.0,53.0,-269.0,202.0,38.0,-343.0,0.977048,-0.042202,0.208717,15330.0,-450.0,2890.0,-23.0,3.0,-7.0
2849.0,2845.0,2867.0,3120.0,2993.0,0.777283,-0.016357,-0.628845,0.013306,-2.0,0.0,0.0,7711.0,-296.0,1439.0,-293.0,49.0,-270.0,202.0,34.0,-344.0,0.977146,-0.042163,0.208632,15418.0,-672.0,2868.0,-41.0,3.0,4.0
2847.0,2814.0,2883.0,3123.0,2989.0,0.777222,-0.016663,-0.628845,0.013245,-1.0,1.0,0.0,7739.0,-360.0,1455.0,-265.0,-11.0,-253.0,192.0,-24.0,-311.0,0.977063,-0.042559,0.208525,15546.0,-946.0,2988.0,-8.0,25.0,1.0
2838.0,2787.0,2898.0,3152.0,2975.0,0.777283,-0.016602,-0.628784,0.013306,1.0,1.0,-1.0,7736.0,-380.0,1465.0,-267.0,-31.0,-244.0,182.0,-44.0,-310.0,0.977044,-0.042541,0.2087,15438.0,-840.0,2996.0,23.0,36.0,-11.0
2832.0,2807.0,2911.0,3097.0,2963.0,0.777466,-0.016235,-0.62854,0.013367,1.0,1.0,-1.0,7727.0,-327.0,1507.0,-275.0,17.0,-207.0,144.0,3.0,-312.0,0.976903,-0.042048,0.209306,15422.0,-416.0,3144.0,34.0,34.0,-17.0
2834.0,2806.0,2883.0,3127.0,2955.0,0.777527,-0.016052,-0.628479,0.013367,0.0,1.0,-1.0,7723.0,-283.0,1522.0,-279.0,59.0,-194.0,131.0,45.0,-315.0,0.976889,-0.041763,0.209483,15446.0,-328.0,3094.0,15.0,23.0,-6.0
2815.0,2807.0,2895.0,3139.0,2991.0,0.77948,-0.032776,-0.625488,-0.008484,-2.0,-1.0,1.0,7704.0,-226.0,1718.0,-288.0,105.0,-46.0,-12.0,93.0,-295.0,0.975667,-0.040483,0.215351,15286.0,-882.0,3126.0,-26.0,-1.0,24.0
2831.0,2815.0,2911.0,3131.0,2983.0,0.779419,-0.032837,-0.625549,-0.008423,0.0,-1.0,0.0,7690.0,-282.0,1678.0,-302.0,51.0,-84.0,19.0,37.0,-314.0,0.975683,-0.04065,0.215175,15342.0,-856.0,3166.0,18.0,-8.0,0.0
2833.0,2823.0,2919.0,3119.0,2983.0,0.779419,-0.03241,-0.62561,-0.008179,1.0,0.0,-1.0,7715.0,-256.0,1668.0,-278.0,74.0,-94.0,35.0,60.0,-294.0,0.975755,-0.040288,0.215122,15504.0,-356.0,3320.0,33.0,16.0,-8.0
2835.0,2823.0,2896.0,3134.0,2961.0,0.779541,-0.032288,-0.625488,-0.00824,-1.0,1.0,0.0,7706.0,-233.0,1669.0,-287.0,94.0,-96.0,36.0,80.0,-304.0,0.97572,-0.040031,0.215474,15240.0,-316.0,3324.0,-1.0,38.0,2.0
2838.0,2819.0,2895.0,3123.0,2965.0,0.779724,-0.032532,-0.625244,-0.008423,-2.0,1.0,-1.0,7650.0,-334.0,1647.0,-341.0,-4.0,-122.0,44.0,-20.0,-358.0,0.975584,-0.040199,0.216052,15102.0,-1160.0,3188.0,-23.0,29.0,-3.0
2832.0,2812.0,2887.0,3118.0,2999.0,0.779724,-0.032532,-0.625183,-0.008423,0.0,0.0,-1.0,7647.0,-404.0,1654.0,-344.0,-74.0,-116.0,34.0,-90.0,-357.0,0.975489,-0.0402,0.216128,15406.0,-1286.0,3390.0,19.0,15.0,-20.0
2833.0,2817.0,2897.0,3127.0,2991.0,0.779968,-0.032043,-0.624939,-0.008179,1.0,0.0,-1.0,7663.0,-321.0,1734.0,-327.0,4.0,-42.0,-30.0,-7.0,-328.0,0.975389,-0.039763,0.216842,15286.0,-170.0,3750.0,41.0,19.0,-15.0
2827.0,2810.0,2879.0,3127.0,2979.0,0.780029,-0.031921,-0.624817,-0.00824,0.0,0.0,-1.0,7643.0,-272.0,1764.0,-346.0,51.0,-14.0,-59.0,40.0,-342.0,0.975277,-0.039503,0.217098,15070.0,-264.0,3586.0,3.0,7.0,-2.0
2829.0,2806.0,2867.0,3135.0,2970.0,0.779846,-0.032227,-0.625061,-0.008301,-2.0,-3.0,0.0,7644.0,-330.0,1794.0,-346.0,-3.0,20.0,-95.0,-11.0,-333.0,0.975438,-0.039887,0.216489,15556.0,-1066.0,3584.0,-28.0,-65.0,19.0
2830.0,2815.0,2891.0,3135.0,2979.0,0.779663,-0.032349,-0.625305,-0.008179,0.0,-3.0,0.0,7702.0,-385.0,1771.0,-289.0,-55.0,2.0,-67.0,-62.0,-279.0,0.975584,-0.040214,0.215888,15800.0,-1032.0,3450.0,8.0,-53.0,3.0
2835.0,2833.0,2891.0,3121.0,2987.0,0.77948,-0.031982,-0.62561,-0.008057,1.0,-2.0,-2.0,7688.0,-344.0,1731.0,-305.0,-18.0,-32.0,-35.0,-28.0,-303.0,0.975817,-0.039779,0.215243,15268.0,-392.0,3384.0,36.0,-37.0,-30.0
2827.0,2826.0,2903.0,3153.0,2961.0,0.779297,-0.031738,-0.625793,-0.008118,0.0,-2.0,-2.0,7713.0,-318.0,1724.0,-281.0,4.0,-35.0,-26.0,-5.0,-281.0,0.975873,-0.039307,0.214745,15636.0,-514.0,3378.0,14.0,-42.0,-35.0
2831.0,2815.0,2895.0,3152.0,2961.0,0.779114,-0.031616,-0.626038,-0.008362,-1.0,-2.0,-1.0,7702.0,-343.0,1690.0,-293.0,-25.0,-64.0,-2.0,-36.0,-298.0,0.976038,-0.038796,0.214166,15248.0,-890.0,3192.0,-1.0,-23.0,-16.0
2835.0,2815.0,2879.0,3135.0,2981.0,0.778992,-0.031494,-0.62616,-0.008362,1.0,-2.0,-2.0,7700.0,-368.0,1674.0,-295.0,-51.0,-77.0,8.0,-63.0,-302.0,0.976073,-0.038596,0.21383,15458.0,-846.0,3272.0,28.0,-24.0,-28.0
2847.0,2815.0,2871.0,3099.0,2989.0,0.778931,-0.030823,-0.626282,-0.008362,2.0,-1.0,-3.0,7675.0,-336.0,1673.0,-321.0,-28.0,-77.0,4.0,-40.0,-328.0,0.976176,-0.037544,0.213624,15218.0,-372.0,3394.0,56.0,-7.0,-53.0
2803.0,2806.0,2859.0,3107.0,2981.0,0.77887,-0.030396,-0.626343,-0.008423,1.0,-2.0,-3.0,7663.0,-278.0,1690.0,-333.0,23.0,-58.0,-13.0,11.0,-338.0,0.976191,-0.036797,0.21348,15346.0,-252.0,3538.0,41.0,-25.0,-54.0
2831.0,2830.0,2881.0,3125.0,2959.0,0.778687,-0.029968,-0.626587,-0.008789,-1.0,-3.0,-1.0,7653.0,-210.0,1738.0,-345.0,82.0,-6.0,-63.0,73.0,-341.0,0.976356,-0.035658,0.212921,15426.0,-370.0,3614.0,-13.0,-54.0,-18.0
2819.0,2815.0,2895.0,3134.0,2971.0,0.778564,-0.030029,-0.62677,-0.00885,-1.0,-3.0,0.0,7670.0,-230.0,1735.0,-329.0,62.0,-5.0,-62.0,53.0,-324.0,0.976493,-0.035666,0.212499,15442.0,-614.0,3396.0,-10.0,-55.0,0.0
2833.0,2815.0,2899.0,3127.0,2999.0,0.778198,-0.029846,-0.627197,-0.008789,1.0,-2.0,-1.0,7735.0,-223.0,1700.0,-266.0,67.0,-31.0,-22.0,58.0,-268.0,0.976692,-0.035428,0.211403,15560.0,-322.0,3252.0,24.0,-38.0,-21.0
2815.0,2811.0,2867.0,3131.0,2943.0,0.778076,-0.029602,-0.62738,-0.00885,0.0,-2.0,-2.0,7746.0,-201.0,1670.0,-256.0,85.0,-58.0,6.0,75.0,-265.0,0.976823,-0.034961,0.210998,15548.0,-214.0,3152.0,17.0,-33.0,-29.0
2831.0,2799.0,2901.0,3139.0,2961.0,0.777832,-0.029358,-0.627686,-0.009094,0.0,-1.0,-1.0,7735.0,-198.0,1585.0,-268.0,82.0,-137.0,81.0,67.0,-293.0,0.977002,-0.034254,0.210254,15336.0,-490.0,2830.0,4.0,-14.0,-13.0
2833.0,2807.0,2909.0,3123.0,2975.0,0.777771,-0.029236,-0.627808,-0.009094,0.0,-1.0,-1.0,7722.0,-211.0,1549.0,-282.0,68.0,-171.0,110.0,51.0,-313.0,0.977113,-0.034059,0.210013,15396.0,-436.0,2898.0,19.0,-12.0,-13.0
2831.0,2815.0,2883.0,3143.0,2983.0,0.777771,-0.028809,-0.627869,-0.009094,1.0,1.0,-2.0,7733.0,-183.0,1533.0,-272.0,90.0,-187.0,129.0,73.0,-308.0,0.9772,-0.033393,0.209961,15378.0,-214.0,3026.0,34.0,28.0,-23.0
2832.0,2799.0,2855.0,3125.0,2979.0,0.777771,-0.028564,-0.627808,-0.009155,1.0,0.0,-1.0,7689.0,-169.0,1534.0,-315.0,100.0,-186.0,119.0,82.0,-350.0,0.977104,-0.032938,0.210053,15078.0,-282.0,3094.0,24.0,21.0,-12.0
2822.0,2793.0,2899.0,3151.0,2993.0,0.77771,-0.028442,-0.62793,-0.00885,1.0,-2.0,1.0,7645.0,-193.0,1586.0,-360.0,78.0,-132.0,56.0,62.0,-382.0,0.977198,-0.033125,0.209806,15276.0,-322.0,3352.0,39.0,-29.0,28.0
2832.0,2815.0,2905.0,3131.0,2975.0,0.777649,-0.02832,-0.627991,-0.008606,1.0,-2.0,1.0,7714.0,-188.0,1624.0,-291.0,84.0,-93.0,33.0,72.0,-306.0,0.9772,-0.033238,0.209638,15950.0,-362.0,3522.0,40.0,-24.0,23.0
2839.0,2815.0,2893.0,3143.0,2979.0,0.777771,-0.028076,-0.627869,-0.008423,0.0,1.0,0.0,7743.0,-191.0,1644.0,-261.0,80.0,-76.0,22.0,69.0,-273.0,0.977149,-0.033097,0.209991,15470.0,-526.0,3390.0,19.0,26.0,8.0
2834.0,2815.0,2885.0,3119.0,2943.0,0.777893,-0.028015,-0.627747,-0.00824,1.0,1.0,0.0,7733.0,-216.0,1636.0,-271.0,56.0,-87.0,30.0,45.0,-284.0,0.977101,-0.033241,0.210335,15414.0,-552.0,3220.0,23.0,29.0,15.0
2823.0,2791.0,2879.0,3143.0,2975.0,0.778076,-0.027893,-0.627502,-0.007996,0.0,1.0,0.0,7724.0,-218.0,1652.0,-279.0,55.0,-75.0,16.0,44.0,-290.0,0.976935,-0.033371,0.210929,15416.0,-466.0,3320.0,14.0,29.0,19.0
2832.0,2829.0,2887.0,3143.0,2935.0,0.778137,-0.027954,-0.62738,-0.007935,0.0,1.0,0.0,7697.0,-205.0,1640.0,-305.0,69.0,-89.0,25.0,57.0,-319.0,0.97682,-0.033548,0.211173,15220.0,-322.0,3186.0,6.0,25.0,21.0
2831.0,2815.0,2896.0,3138.0,2975.0,0.468201,-0.012634,0.099304,-1.21228,-3229.0,-16386.0,-26500.0,28724.0,-3132.0,-31475.0,29234.0,-1062.0,20309.0,30006.0,28945.0,32540.0,-0.062356,-0.2526,1.678814,15338.0,-530.0,3356.0,-24.0,-11.0,14.0
2833.0,2799.0,2879.0,3119.0,2963.0,0.778137,-0.02832,-0.62738,-0.007935,-1.0,0.0,0.0,7720.0,-282.0,1644.0,-282.0,-2.0,-85.0,22.0,-13.0,-293.0,0.976825,-0.034118,0.211152,15848.0,-986.0,3350.0,-21.0,1.0,17.0
2823.0,2801.0,2881.0,3121.0,2973.0,0.77832,-0.028381,-0.627136,-0.007568,1.0,1.0,0.0,7704.0,-348.0,1665.0,-296.0,-63.0,-69.0,1.0,-73.0,-301.0,0.976655,-0.034687,0.211734,15352.0,-738.0,3428.0,40.0,28.0,7.0
2831.0,2818.0,2894.0,3139.0,2978.0,0.778442,-0.028198,-0.627014,-0.007385,2.0,1.0,-1.0,7698.0,-336.0,1690.0,-302.0,-52.0,-47.0,-21.0,-61.0,-303.0,0.976605,-0.03464,0.212085,15350.0,-558.0,3526.0,47.0,28.0,-3.0
2832.0,2821.0,2891.0,3135.0,2975.0,0.778625,-0.027954,-0.626831,-0.007263,0.0,0.0,0.0,7662.0,-259.0,1725.0,-337.0,23.0,-16.0,-55.0,14.0,-333.0,0.976539,-0.034426,0.212612,15320.0,-332.0,3522.0,9.0,1.0,6.0
2830.0,2815.0,2875.0,3122.0,2963.0,0.778625,-0.027954,-0.62677,-0.007263,-1.0,-1.0,0.0,7671.0,-256.0,1736.0,-328.0,26.0,-6.0,-63.0,17.0,-322.0,0.976444,-0.034427,0.212688,15332.0,-556.0,3476.0,-4.0,0.0,9.0
2835.0,2815.0,2896.0,3135.0,2959.0,0.778625,-0.028015,-0.626831,-0.007202,-1.0,-1.0,0.0,7641.0,-259.0,1729.0,-358.0,24.0,-12.0,-63.0,14.0,-352.0,0.976537,-0.034598,0.212608,15046.0,-486.0,3418.0,-2.0,-14.0,10.0
2831.0,2815.0,2887.0,3127.0,2983.0,0.778442,-0.028076,-0.627075,-0.007263,-1.0,-3.0,0.0,7663.0,-229.0,1735.0,-338.0,54.0,-1.0,-68.0,45.0,-332.0,0.976692,-0.034602,0.212014,15624.0,-382.0,3488.0,-14.0,-46.0,2.0
2823.0,2811.0,2896.0,3127.0,2963.0,0.77832,-0.028076,-0.627197,-0.007324,-1.0,-2.0,-1.0,7709.0,-242.0,1711.0,-292.0,40.0,-23.0,-37.0,31.0,-291.0,0.976732,-0.034517,0.211671,15682.0,-632.0,3230.0,-11.0,-23.0,-9.0
2830.0,2802.0,2879.0,3120.0,2963.0,0.778259,-0.027832,-0.627258,-0.007324,1.0,-1.0,-1.0,7705.0,-279.0,1681.0,-296.0,0.0,-51.0,-13.0,-9.0,-299.0,0.976747,-0.034133,0.211514,15328.0,-682.0,3330.0,34.0,-3.0,-16.0
2831.0,2815.0,2896.0,3135.0,2975.0,0.778259,-0.027588,-0.627258,-0.007202,2.0,-1.0,-1.0,7690.0,-255.0,1674.0,-311.0,22.0,-58.0,-8.0,11.0,-316.0,0.976737,-0.033906,0.211525,15278.0,-270.0,3350.0,53.0,-5.0,-16.0
2832.0,2822.0,2895.0,3135.0,2973.0,0.778198,-0.0271,-0.62738,-0.007385,-1.0,-1.0,-2.0,7719.0,-190.0,1663.0,-283.0,79.0,-68.0,9.0,69.0,-293.0,0.976853,-0.032911,0.211307,15820.0,-558.0,3280.0,-2.0,-11.0,-28.0
2825.0,2815.0,2895.0,3127.0,2975.0,0.778198,-0.027039,-0.62738,-0.007507,0.0,1.0,-2.0,7737.0,-227.0,1650.0,-265.0,40.0,-81.0,24.0,29.0,-277.0,0.976859,-0.032663,0.211312,15482.0,-690.0,3244.0,5.0,24.0,-23.0
2830.0,2810.0,2895.0,3123.0,2967.0,0.77832,-0.026794,-0.627258,-0.007568,0.0,0.0,-1.0,7694.0,-220.0,1650.0,-308.0,43.0,-83.0,17.0,31.0,-319.0,0.976821,-0.032215,0.211669,15292.0,-238.0,3350.0,3.0,12.0,-19.0
2830.0,2821.0,2898.0,3139.0,2983.0,0.77832,-0.026794,-0.627197,-0.007751,-2.0,0.0,-1.0,7685.0,-205.0,1655.0,-316.0,57.0,-79.0,12.0,46.0,-327.0,0.976736,-0.031986,0.211748,15276.0,-376.0,3340.0,-27.0,3.0,-4.0
2831.0,2827.0,2896.0,3137.0,2979.0,0.778137,-0.027222,-0.627441,-0.007935,-2.0,-2.0,0.0,7663.0,-254.0,1642.0,-339.0,11.0,-87.0,13.0,0.0,-349.0,0.976903,-0.032407,0.211137,15482.0,-788.0,3260.0,-42.0,-42.0,15.0
2831.0,2811.0,2893.0,3127.0,2971.0,0.778015,-0.027405,-0.627563,-0.007874,-1.0,-2.0,0.0,7698.0,-302.0,1626.0,-305.0,-33.0,-100.0,31.0,-44.0,-317.0,0.976939,-0.03276,0.210783,15582.0,-864.0,3100.0,-16.0,-29.0,11.0
2815.0,2814.0,2889.0,3133.0,3199.0,0.777954,-0.027344,-0.627686,-0.007935,-1.0,0.0,-2.0,7759.0,-268.0,1624.0,-245.0,-1.0,-100.0,45.0,-11.0,-260.0,0.977055,-0.032584,0.210539,15584.0,-354.0,3250.0,-2.0,17.0,-27.0
2832.0,2829.0,2897.0,3143.0,2975.0,0.778015,-0.027283,-0.627625,-0.008179,-1.0,1.0,-2.0,7729.0,-259.0,1610.0,-274.0,4.0,-116.0,55.0,-8.0,-292.0,0.977049,-0.032186,0.210718,15230.0,-516.0,3132.0,-21.0,27.0,-31.0
2830.0,2815.0,2899.0,3135.0,2979.0,0.778076,-0.027283,-0.627502,-0.008484,-1.0,0.0,-2.0,7702.0,-303.0,1603.0,-301.0,-42.0,-125.0,56.0,-54.0,-319.0,0.976952,-0.031809,0.210971,15366.0,-676.0,3302.0,-6.0,19.0,-29.0
2831.0,2807.0,2894.0,3127.0,2975.0,0.778137,-0.027161,-0.627441,-0.008606,0.0,0.0,-2.0,7671.0,-290.0,1614.0,-332.0,-32.0,-115.0,40.0,-44.0,-347.0,0.976938,-0.03147,0.211151,15164.0,-494.0,3292.0,9.0,21.0,-37.0
2830.0,2815.0,2882.0,3127.0,2975.0,0.778198,-0.026917,-0.62738,-0.008789,-1.0,-1.0,-1.0,7648.0,-219.0,1685.0,-354.0,33.0,-46.0,-28.0,23.0,-356.0,0.976926,-0.030865,0.211339,15254.0,-172.0,3582.0,0.0,-8.0,-18.0
2831.0,2827.0,2899.0,3135.0,2983.0,0.778198,-0.026855,-0.62738,-0.008972,-1.0,-1.0,-1.0,7676.0,-190.0,1733.0,-327.0,60.0,1.0,-67.0,53.0,-321.0,0.976934,-0.03054,0.211346,15510.0,-206.0,3730.0,-16.0,-12.0,-13.0
2832.0,2815.0,2891.0,3143.0,2991.0,0.778259,-0.026794,-0.627319,-0.009338,-1.0,-1.0,-2.0,7723.0,-171.0,1772.0,-280.0,74.0,39.0,-94.0,70.0,-267.0,0.976935,-0.02999,0.211527,15560.0,-386.0,3668.0,-15.0,-3.0,-28.0
2831.0,2811.0,2882.0,3133.0,2981.0,0.778259,-0.026672,-0.627258,-0.009521,0.0,-1.0,-3.0,7717.0,-175.0,1779.0,-285.0,67.0,45.0,-101.0,63.0,-270.0,0.976847,-0.029571,0.211614,15394.0,-354.0,3636.0,1.0,-1.0,-46.0
2831.0,2815.0,2896.0,3127.0,2975.0,0.77832,-0.026001,-0.627258,-0.010193,-1.0,0.0,-4.0,7738.0,-67.0,1784.0,-265.0,159.0,49.0,-96.0,156.0,-252.0,0.976946,-0.027687,0.211757,15640.0,392.0,3600.0,-15.0,2.0,-86.0
2843.0,2831.0,2903.0,3131.0,2973.0,0.778381,-0.025757,-0.627136,-0.010925,-4.0,0.0,-5.0,7753.0,-10.0,1768.0,-249.0,206.0,31.0,-73.0,203.0,-242.0,0.976865,-0.026394,0.212034,15544.0,142.0,3368.0,-75.0,22.0,-101.0
2839.0,2832.0,2905.0,3155.0,2991.0,0.778381,-0.025757,-0.627197,-0.012146,-2.0,-1.0,-4.0,7628.0,-207.0,1659.0,-375.0,-3.0,-77.0,-4.0,-12.0,-382.0,0.977023,-0.024861,0.211985,15032.0,-1196.0,3042.0,-23.0,-22.0,-85.0
2831.0,2801.0,2885.0,3127.0,2955.0,0.778198,-0.025452,-0.62738,-0.012146,3.0,-2.0,-3.0,7626.0,-264.0,1636.0,-378.0,-64.0,-96.0,10.0,-74.0,-388.0,0.977071,-0.024373,0.211486,15218.0,-618.0,3156.0,70.0,-35.0,-63.0
2831.0,2819.0,2895.0,3119.0,2979.0,0.778015,-0.024292,-0.627625,-0.011963,3.0,-1.0,-2.0,7717.0,-128.0,1636.0,-288.0,58.0,-92.0,31.0,49.0,-302.0,0.977184,-0.022783,0.210948,15670.0,216.0,3276.0,85.0,-7.0,-43.0
2823.0,2817.0,2887.0,3131.0,2967.0,0.778015,-0.023804,-0.627625,-0.011963,2.0,0.0,-2.0,7697.0,-94.0,1617.0,-307.0,86.0,-111.0,47.0,76.0,-325.0,0.977172,-0.022023,0.210972,15228.0,-72.0,3094.0,57.0,9.0,-45.0
2823.0,2815.0,2919.0,3135.0,2961.0,0.777954,-0.023254,-0.627808,-0.011902,1.0,-2.0,-1.0,7608.0,-63.0,1603.0,-398.0,110.0,-122.0,40.0,99.0,-417.0,0.977365,-0.021238,0.210671,14736.0,246.0,3170.0,32.0,-30.0,-7.0
2832.0,2800.0,2895.0,3131.0,2991.0,0.77771,-0.023132,-0.628113,-0.012024,-1.0,-4.0,-1.0,7584.0,-44.0,1595.0,-423.0,127.0,-124.0,38.0,116.0,-442.0,0.977535,-0.020876,0.209917,15146.0,-68.0,3142.0,-16.0,-80.0,-7.0
2833.0,2798.0,2918.0,3135.0,2949.0,0.7771,-0.023499,-0.628784,-0.012146,-2.0,-3.0,0.0,7756.0,-141.0,1582.0,-254.0,33.0,-122.0,67.0,23.0,-274.0,0.977827,-0.021247,0.20811,16268.0,-668.0,3158.0,-29.0,-50.0,18.0
2819.0,2832.0,2887.0,3137.0,2975.0,0.7771,-0.023682,-0.628845,-0.012085,-1.0,0.0,0.0,7802.0,-191.0,1559.0,-209.0,-13.0,-145.0,97.0,-22.0,-234.0,0.977923,-0.021607,0.208023,15696.0,-642.0,2956.0,-6.0,19.0,9.0
2832.0,2827.0,2893.0,3137.0,2950.0,0.777222,-0.023682,-0.628662,-0.012085,0.0,1.0,-1.0,7775.0,-207.0,1581.0,-235.0,-29.0,-126.0,72.0,-38.0,-255.0,0.977792,-0.021617,0.208443,15620.0,-344.0,3320.0,3.0,29.0,-11.0
2847.0,2815.0,2869.0,3095.0,2967.0,0.777344,-0.023682,-0.62854,-0.012146,-1.0,1.0,-1.0,7771.0,-184.0,1605.0,-238.0,-7.0,-105.0,52.0,-15.0,-254.0,0.977759,-0.021549,0.208787,15532.0,-238.0,3376.0,-14.0,37.0,-5.0
2838.0,2834.0,2897.0,3107.0,2943.0,0.777649,-0.023926,-0.628113,-0.01239,-2.0,2.0,0.0,7748.0,-221.0,1635.0,-259.0,-43.0,-83.0,24.0,-50.0,-269.0,0.977495,-0.021647,0.209793,15146.0,-630.0,3292.0,-28.0,56.0,0.0
2837.0,2832.0,2939.0,3142.0,2999.0,0.777771,-0.024048,-0.62793,-0.01239,-1.0,0.0,-1.0,7677.0,-250.0,1647.0,-329.0,-71.0,-75.0,0.0,-78.0,-335.0,0.977367,-0.021847,0.210207,15030.0,-662.0,3352.0,-11.0,19.0,-2.0
2834.0,2797.0,2918.0,3143.0,2991.0,0.777832,-0.024048,-0.62793,-0.012268,0.0,-1.0,0.0,7668.0,-196.0,1693.0,-339.0,-15.0,-29.0,-44.0,-20.0,-337.0,0.977438,-0.022003,0.210299,15206.0,-32.0,3472.0,6.0,-2.0,3.0
2815.0,2832.0,2896.0,3147.0,2979.0,0.777771,-0.024048,-0.62793,-0.01239,-1.0,-1.0,-1.0,7680.0,-185.0,1705.0,-326.0,-6.0,-17.0,-52.0,-10.0,-322.0,0.977367,-0.021847,0.210207,15526.0,-458.0,3474.0,-16.0,-18.0,-7.0
2838.0,2815.0,2907.0,3133.0,2975.0,0.77771,-0.023987,-0.628052,-0.01239,0.0,-1.0,-1.0,7689.0,-180.0,1701.0,-318.0,-1.0,-19.0,-48.0,-5.0,-314.0,0.977479,-0.021746,0.209962,15440.0,-318.0,3432.0,2.0,-18.0,-18.0
2835.0,2819.0,2923.0,3131.0,2943.0,0.77771,-0.023926,-0.628052,-0.012512,0.0,-1.0,-1.0,7717.0,-167.0,1700.0,-290.0,9.0,-20.0,-41.0,4.0,-287.0,0.977483,-0.021498,0.209968,15520.0,-162.0,3376.0,2.0,-5.0,-14.0
2815.0,2785.0,2883.0,3174.0,2951.0,0.777649,-0.023804,-0.628113,-0.012756,-1.0,-1.0,-2.0,7695.0,-141.0,1657.0,-312.0,31.0,-61.0,-4.0,24.0,-318.0,0.97751,-0.020997,0.209808,15442.0,-380.0,3178.0,-16.0,-6.0,-24.0
2842.0,2819.0,2907.0,3103.0,2995.0,0.777588,-0.023865,-0.628174,-0.012878,-1.0,-1.0,-1.0,7685.0,-156.0,1643.0,-322.0,15.0,-74.0,5.0,7.0,-330.0,0.977535,-0.020934,0.209637,15300.0,-366.0,3232.0,-12.0,-7.0,-12.0
2827.0,2823.0,2883.0,3115.0,2987.0,0.777527,-0.023804,-0.628235,-0.013,0.0,0.0,-1.0,7689.0,-164.0,1609.0,-319.0,5.0,-106.0,36.0,-3.0,-334.0,0.977558,-0.020681,0.209471,15416.0,-414.0,3144.0,3.0,1.0,-10.0
2846.0,2807.0,2869.0,3131.0,2982.0,0.777527,-0.023743,-0.628235,-0.013,0.0,0.0,-1.0,7673.0,-163.0,1603.0,-335.0,5.0,-113.0,40.0,-4.0,-351.0,0.977556,-0.020586,0.209474,15272.0,-278.0,3220.0,17.0,1.0,-17.0
2823.0,2775.0,2875.0,3143.0,2963.0,0.777527,-0.023438,-0.628235,-0.013062,0.0,0.0,-1.0,7704.0,-119.0,1636.0,-304.0,45.0,-80.0,16.0,37.0,-314.0,0.977551,-0.020035,0.20949,15384.0,-122.0,3338.0,7.0,4.0,-14.0
2815.0,2832.0,2901.0,3143.0,2973.0,0.777527,-0.023376,-0.628235,-0.013123,0.0,-1.0,-1.0,7703.0,-129.0,1639.0,-305.0,33.0,-77.0,12.0,26.0,-314.0,0.977552,-0.019864,0.209495,15428.0,-354.0,3298.0,3.0,-1.0,-12.0
2831.0,2823.0,2899.0,3127.0,2990.0,0.777527,-0.023315,-0.628296,-0.013184,-1.0,-2.0,-1.0,7695.0,-90.0,1679.0,-313.0,71.0,-36.0,-27.0,66.0,-314.0,0.977649,-0.01969,0.209423,15458.0,-96.0,3492.0,-17.0,-24.0,-5.0
2823.0,2832.0,2891.0,3135.0,2957.0,0.777466,-0.023376,-0.628357,-0.013306,-2.0,-1.0,0.0,7721.0,-108.0,1696.0,-288.0,52.0,-18.0,-40.0,48.0,-286.0,0.977674,-0.019627,0.209251,15582.0,-354.0,3458.0,-27.0,-21.0,5.0
2831.0,2801.0,2890.0,3135.0,2980.0,0.777466,-0.023438,-0.628357,-0.013367,0.0,0.0,-1.0,7766.0,-168.0,1678.0,-243.0,-7.0,-36.0,-16.0,-11.0,-244.0,0.977679,-0.019646,0.20925,15528.0,-510.0,3286.0,10.0,15.0,-13.0
2827.0,2807.0,2913.0,3111.0,2975.0,0.777527,-0.023315,-0.628296,-0.013306,1.0,0.0,-1.0,7757.0,-186.0,1665.0,-251.0,-25.0,-50.0,-5.0,-29.0,-255.0,0.977654,-0.019537,0.209426,15484.0,-440.0,3284.0,28.0,21.0,-17.0
2827.0,2809.0,2891.0,3143.0,2975.0,0.777649,-0.02301,-0.628113,-0.013245,0.0,0.0,-1.0,7679.0,-139.0,1657.0,-328.0,17.0,-62.0,-7.0,11.0,-333.0,0.977512,-0.01915,0.209858,14952.0,-70.0,3282.0,20.0,17.0,-10.0
2819.0,2797.0,2881.0,3139.0,2967.0,0.777649,-0.022949,-0.628174,-0.013306,-1.0,-2.0,-1.0,7624.0,-141.0,1642.0,-384.0,14.0,-76.0,-5.0,6.0,-391.0,0.977608,-0.018976,0.209786,15014.0,-366.0,3196.0,-5.0,-24.0,-10.0
2843.0,2807.0,2895.0,3135.0,2961.0,0.777405,-0.022827,-0.628418,-0.013306,0.0,-1.0,-2.0,7666.0,-174.0,1625.0,-343.0,-20.0,-87.0,12.0,-27.0,-353.0,0.977678,-0.018769,0.209105,15378.0,-352.0,3226.0,20.0,-16.0,-28.0
2832.0,2831.0,2896.0,3121.0,2989.0,0.777405,-0.022583,-0.628479,-0.013367,0.0,-1.0,-2.0,7667.0,-175.0,1636.0,-342.0,-24.0,-76.0,1.0,-30.0,-349.0,0.977769,-0.018311,0.209041,15292.0,-390.0,3312.0,21.0,-6.0,-38.0
2830.0,2814.0,2882.0,3135.0,2978.0,0.777344,-0.022217,-0.62854,-0.013428,1.0,-1.0,-2.0,7711.0,-187.0,1642.0,-298.0,-42.0,-69.0,2.0,-47.0,-305.0,0.97778,-0.01766,0.208887,15804.0,-380.0,3378.0,37.0,-7.0,-24.0
2815.0,2804.0,2877.0,3122.0,2967.0,0.777405,-0.021973,-0.628479,-0.013367,1.0,1.0,-2.0,7738.0,-152.0,1651.0,-271.0,-9.0,-61.0,2.0,-13.0,-277.0,0.977753,-0.017362,0.209068,15596.0,-12.0,3402.0,40.0,24.0,-23.0
2826.0,2807.0,2883.0,3151.0,2983.0,0.777649,-0.021484,-0.628174,-0.013489,0.0,1.0,-2.0,7703.0,-84.0,1668.0,-305.0,50.0,-51.0,-11.0,45.0,-309.0,0.977577,-0.016468,0.209856,15146.0,-22.0,3326.0,13.0,30.0,-26.0
2827.0,2829.0,2895.0,3139.0,2959.0,0.777649,-0.021362,-0.628174,-0.013611,0.0,-1.0,-1.0,7662.0,-96.0,1668.0,-346.0,36.0,-51.0,-21.0,31.0,-349.0,0.977579,-0.016125,0.209864,15148.0,-342.0,3326.0,5.0,-6.0,-18.0
2827.0,2801.0,2916.0,3147.0,2979.0,0.777527,-0.021118,-0.628357,-0.013428,1.0,-1.0,-1.0,7702.0,-87.0,1691.0,-307.0,43.0,-24.0,-38.0,40.0,-305.0,0.977696,-0.015965,0.20945,15604.0,96.0,3490.0,40.0,-19.0,-14.0
2843.0,2813.0,2855.0,3135.0,2955.0,0.777527,-0.020813,-0.628357,-0.01355,0.0,-1.0,-2.0,7682.0,-27.0,1705.0,-327.0,98.0,-10.0,-54.0,95.0,-323.0,0.977693,-0.015337,0.209466,15168.0,298.0,3488.0,19.0,-12.0,-27.0
2843.0,2795.0,2871.0,3120.0,2987.0,0.777283,-0.020813,-0.628662,-0.013855,-2.0,-3.0,-1.0,7694.0,-29.0,1722.0,-316.0,93.0,12.0,-73.0,92.0,-307.0,0.977873,-0.014935,0.208711,15732.0,-348.0,3452.0,-33.0,-57.0,-3.0
2833.0,2822.0,2879.0,3139.0,2973.0,0.777161,-0.020935,-0.628784,-0.013855,-1.0,-2.0,0.0,7752.0,-116.0,1707.0,-259.0,7.0,0.0,-53.0,5.0,-253.0,0.977913,-0.015116,0.208363,15802.0,-710.0,3282.0,0.0,-34.0,3.0
2831.0,2831.0,2896.0,3123.0,2967.0,0.777039,-0.020569,-0.628967,-0.013611,2.0,-1.0,-2.0,7720.0,-167.0,1636.0,-291.0,-45.0,-67.0,2.0,-49.0,-297.0,0.978024,-0.014844,0.207951,15224.0,-422.0,3102.0,52.0,-14.0,-26.0
2828.0,2815.0,2864.0,3131.0,2975.0,0.776917,-0.020325,-0.62915,-0.01355,2.0,-2.0,-2.0,7664.0,-145.0,1613.0,-348.0,-25.0,-87.0,11.0,-30.0,-358.0,0.978145,-0.014531,0.20754,14996.0,-136.0,3088.0,47.0,-37.0,-29.0
2823.0,2815.0,2891.0,3095.0,2951.0,0.776611,-0.019836,-0.629517,-0.013672,0.0,-2.0,-2.0,7709.0,-130.0,1611.0,-305.0,-18.0,-81.0,15.0,-23.0,-314.0,0.978322,-0.013597,0.206627,15558.0,-248.0,3146.0,16.0,-30.0,-37.0
2815.0,2811.0,2895.0,3116.0,2967.0,0.77655,-0.019653,-0.629639,-0.013794,0.0,-1.0,-3.0,7723.0,-119.0,1611.0,-292.0,-11.0,-79.0,16.0,-15.0,-301.0,0.978434,-0.013153,0.20639,15554.0,-178.0,3242.0,8.0,-10.0,-47.0
2832.0,2831.0,2895.0,3147.0,2959.0,0.77655,-0.019287,-0.629578,-0.014282,-1.0,0.0,-3.0,7705.0,-73.0,1633.0,-309.0,25.0,-58.0,-6.0,21.0,-314.0,0.978348,-0.011971,0.206494,15312.0,62.0,3346.0,-5.0,3.0,-53.0
2846.0,2800.0,2896.0,3107.0,2963.0,0.77655,-0.019104,-0.629578,-0.014587,-1.0,-1.0,-3.0,7716.0,-54.0,1651.0,-298.0,38.0,-40.0,-20.0,35.0,-300.0,0.978355,-0.011303,0.20651,15580.0,-62.0,3418.0,-15.0,-1.0,-56.0
2831.0,2787.0,2899.0,3095.0,2951.0,0.776611,-0.018677,-0.629517,-0.015076,0.0,-1.0,-3.0,7689.0,-55.0,1661.0,-325.0,27.0,-32.0,-34.0,25.0,-324.0,0.978343,-0.010028,0.206712,15386.0,-152.0,3398.0,7.0,-8.0,-63.0
2838.0,2813.0,2897.0,3143.0,2989.0,0.77655,-0.018372,-0.629578,-0.015259,1.0,-1.0,-3.0,7702.0,-57.0,1672.0,-312.0,19.0,-20.0,-44.0,18.0,-309.0,0.978358,-0.00932,0.206558,15456.0,-86.0,3370.0,31.0,-10.0,-58.0
2830.0,2815.0,2895.0,3143.0,3003.0,0.77655,-0.017639,-0.629639,-0.015381,2.0,-1.0,-2.0,7740.0,-13.0,1669.0,-275.0,52.0,-22.0,-32.0,51.0,-274.0,0.978435,-0.008027,0.206511,15540.0,248.0,3332.0,53.0,-2.0,-44.0
2821.0,2803.0,2879.0,3134.0,2963.0,0.77655,-0.017212,-0.629639,-0.015503,1.0,0.0,-2.0,7753.0,32.0,1659.0,-262.0,91.0,-32.0,-18.0,90.0,-263.0,0.978426,-0.007209,0.20653,15620.0,308.0,3252.0,39.0,3.0,-44.0
2826.0,2815.0,2903.0,3110.0,2978.0,0.776672,-0.016663,-0.629517,-0.015808,0.0,1.0,-2.0,7766.0,76.0,1622.0,-248.0,124.0,-72.0,24.0,121.0,-258.0,0.978383,-0.00598,0.206901,15568.0,154.0,3108.0,6.0,31.0,-28.0
2835.0,2823.0,2895.0,3137.0,2983.0,0.776794,-0.016541,-0.629333,-0.01593,0.0,2.0,-2.0,7764.0,68.0,1597.0,-249.0,114.0,-101.0,52.0,110.0,-265.0,0.978253,-0.005646,0.207329,15492.0,104.0,3104.0,4.0,48.0,-31.0
2827.0,2818.0,2897.0,3143.0,2991.0,0.7771,-0.016113,-0.628967,-0.016357,-1.0,2.0,-3.0,7700.0,62.0,1562.0,-312.0,98.0,-144.0,80.0,92.0,-335.0,0.978068,-0.004467,0.208292,15318.0,48.0,3106.0,-3.0,47.0,-53.0
2835.0,2800.0,2891.0,3121.0,2989.0,0.777222,-0.015991,-0.628845,-0.016541,0.0,1.0,-2.0,7679.0,16.0,1552.0,-333.0,49.0,-157.0,86.0,43.0,-358.0,0.978033,-0.004055,0.208645,15166.0,-252.0,3000.0,3.0,45.0,-37.0
2826.0,2807.0,2886.0,3119.0,2973.0,0.777283,-0.015747,-0.628723,-0.016418,1.0,0.0,0.0,7608.0,-7.0,1555.0,-403.0,24.0,-156.0,69.0,19.0,-426.0,0.977908,-0.003835,0.208897,15016.0,108.0,3166.0,37.0,5.0,3.0
2831.0,2819.0,2891.0,3135.0,2973.0,0.777222,-0.015564,-0.628784,-0.016357,1.0,-1.0,0.0,7628.0,27.0,1579.0,-383.0,56.0,-130.0,49.0,52.0,-401.0,0.977919,-0.003623,0.208729,15544.0,268.0,3322.0,29.0,-15.0,9.0
2823.0,2883.0,2895.0,3127.0,2975.0,0.777344,-0.015442,-0.628662,-0.016174,0.0,1.0,0.0,7721.0,50.0,1615.0,-289.0,80.0,-97.0,37.0,77.0,-303.0,0.977873,-0.003671,0.20907,15468.0,158.0,3326.0,21.0,28.0,17.0
2829.0,2806.0,2883.0,3127.0,2987.0,0.777405,-0.015381,-0.628601,-0.016052,0.0,0.0,0.0,7719.0,52.0,1629.0,-291.0,82.0,-85.0,25.0,79.0,-302.0,0.977849,-0.003733,0.20924,15438.0,104.0,3360.0,15.0,21.0,18.0
2834.0,2810.0,2891.0,3127.0,2981.0,0.777527,-0.015442,-0.628479,-0.015808,0.0,0.0,1.0,7701.0,13.0,1642.0,-309.0,46.0,-74.0,9.0,44.0,-317.0,0.977807,-0.004143,0.209574,15376.0,-168.0,3216.0,9.0,1.0,24.0
2832.0,2811.0,2897.0,3135.0,2974.0,0.777527,-0.015442,-0.628479,-0.015625,1.0,0.0,0.0,7722.0,-24.0,1652.0,-288.0,11.0,-64.0,2.0,9.0,-295.0,0.977801,-0.004373,0.209568,15558.0,-216.0,3370.0,24.0,5.0,21.0
2821.0,2827.0,2895.0,3143.0,2983.0,0.777588,-0.015259,-0.628418,-0.015381,0.0,-1.0,0.0,7689.0,12.0,1670.0,-320.0,48.0,-48.0,-18.0,47.0,-323.0,0.97777,-0.004399,0.209738,15312.0,204.0,3436.0,22.0,0.0,4.0
2832.0,2815.0,2887.0,3127.0,2971.0,0.777588,-0.015198,-0.628418,-0.015381,-1.0,-1.0,0.0,7691.0,27.0,1696.0,-318.0,62.0,-22.0,-42.0,62.0,-315.0,0.977768,-0.004304,0.209739,15404.0,138.0,3520.0,-2.0,-7.0,7.0
2831.0,2806.0,2893.0,3127.0,2975.0,0.777527,-0.01532,-0.628479,-0.015503,-1.0,-1.0,-1.0,7662.0,11.0,1691.0,-348.0,46.0,-25.0,-46.0,46.0,-345.0,0.977794,-0.004337,0.209568,15316.0,-82.0,3376.0,-17.0,-22.0,-3.0
2833.0,2822.0,2896.0,3143.0,2971.0,0.777466,-0.01532,-0.62854,-0.015564,-1.0,-2.0,-1.0,7643.0,20.0,1680.0,-367.0,54.0,-35.0,-40.0,54.0,-366.0,0.977814,-0.004256,0.209398,15152.0,136.0,3304.0,-13.0,-26.0,-12.0
2825.0,2831.0,2896.0,3135.0,2975.0,0.7771,-0.01532,-0.628967,-0.015808,0.0,-3.0,-1.0,7622.0,-70.0,1624.0,-389.0,-37.0,-82.0,-2.0,-38.0,-397.0,0.978025,-0.003924,0.208299,15240.0,-388.0,3106.0,7.0,-55.0,-16.0
2831.0,2811.0,2881.0,3125.0,2975.0,0.776917,-0.015198,-0.629211,-0.015686,1.0,-3.0,-1.0,7672.0,-88.0,1620.0,-341.0,-56.0,-81.0,5.0,-57.0,-350.0,0.978166,-0.003875,0.207707,15690.0,-206.0,3194.0,39.0,-47.0,-18.0
2831.0,2821.0,2897.0,3125.0,2973.0,0.776794,-0.014709,-0.629395,-0.015625,1.0,-1.0,-1.0,7724.0,23.0,1641.0,-290.0,49.0,-57.0,-2.0,48.0,-295.0,0.97828,-0.003184,0.2073,15484.0,504.0,3344.0,23.0,-3.0,-22.0
2832.0,2827.0,2899.0,3141.0,2971.0,0.776794,-0.014526,-0.629333,-0.015869,-1.0,0.0,-2.0,7697.0,87.0,1652.0,-316.0,108.0,-46.0,-15.0,107.0,-318.0,0.978187,-0.002594,0.20739,15108.0,556.0,3366.0,-18.0,1.0,-23.0
2832.0,2830.0,2902.0,3145.0,2975.0,0.776672,-0.014709,-0.629517,-0.016357,-2.0,-1.0,-1.0,7738.0,19.0,1654.0,-276.0,37.0,-41.0,-15.0,37.0,-278.0,0.978338,-0.002254,0.20698,15638.0,-266.0,3252.0,-27.0,-12.0,-12.0
2832.0,2811.0,2887.0,3120.0,2975.0,0.776672,-0.014709,-0.629517,-0.016357,0.0,-1.0,-1.0,7741.0,-31.0,1648.0,-273.0,-12.0,-47.0,-11.0,-12.0,-276.0,0.978338,-0.002254,0.20698,15528.0,-358.0,3288.0,5.0,-5.0,-16.0
2830.0,2814.0,2895.0,3135.0,2983.0,0.776672,-0.014404,-0.629517,-0.016174,1.0,-1.0,-1.0,7699.0,25.0,1658.0,-315.0,41.0,-37.0,-27.0,41.0,-315.0,0.978322,-0.002011,0.206983,15082.0,582.0,3394.0,30.0,-3.0,-5.0
2833.0,2823.0,2895.0,3151.0,2983.0,0.776672,-0.014282,-0.629578,-0.016296,-1.0,-2.0,0.0,7715.0,55.0,1685.0,-300.0,68.0,-10.0,-49.0,69.0,-295.0,0.978417,-0.001666,0.206914,15612.0,194.0,3512.0,-15.0,-25.0,3.0
2831.0,2831.0,2899.0,3135.0,2973.0,0.776611,-0.014587,-0.629639,-0.016357,-1.0,-1.0,0.0,7738.0,28.0,1652.0,-277.0,44.0,-41.0,-15.0,44.0,-279.0,0.978446,-0.002059,0.206735,15506.0,-100.0,3166.0,-16.0,0.0,10.0
2832.0,2807.0,2894.0,3131.0,2975.0,0.776611,-0.014587,-0.629578,-0.016357,0.0,0.0,-1.0,7726.0,17.0,1628.0,-288.0,33.0,-66.0,6.0,32.0,-295.0,0.978351,-0.002061,0.206812,15308.0,2.0,3118.0,1.0,10.0,-9.0
2827.0,2815.0,2899.0,3135.0,2975.0,0.776611,-0.014404,-0.629639,-0.016418,0.0,-1.0,-1.0,7679.0,3.0,1592.0,-336.0,16.0,-101.0,30.0,14.0,-349.0,0.978442,-0.001698,0.206742,15220.0,-22.0,3066.0,11.0,-5.0,-11.0
2835.0,2829.0,2903.0,3149.0,2974.0,0.77655,-0.014282,-0.6297,-0.016418,0.0,-1.0,-1.0,7693.0,-12.0,1574.0,-322.0,0.0,-118.0,48.0,-2.0,-339.0,0.978456,-0.001504,0.206574,15558.0,-186.0,3074.0,15.0,-5.0,-11.0
2823.0,2821.0,2897.0,3143.0,2993.0,0.77655,-0.014038,-0.629639,-0.016235,1.0,1.0,-1.0,7739.0,-51.0,1550.0,-275.0,-39.0,-142.0,80.0,-42.0,-298.0,0.978348,-0.001358,0.206652,15728.0,-164.0,3132.0,43.0,26.0,-10.0
2830.0,2821.0,2896.0,3121.0,2987.0,0.776733,-0.013794,-0.629456,-0.016113,2.0,2.0,-1.0,7775.0,-50.0,1565.0,-239.0,-40.0,-132.0,77.0,-43.0,-261.0,0.978283,-0.001143,0.20717,15680.0,-72.0,3188.0,58.0,66.0,-16.0
2822.0,2823.0,2897.0,3126.0,2979.0,0.777283,-0.013062,-0.628845,-0.015808,3.0,3.0,-1.0,7724.0,-40.0,1595.0,-287.0,-36.0,-115.0,51.0,-38.0,-304.0,0.977994,-0.000423,0.208801,15206.0,44.0,3322.0,73.0,77.0,-21.0
2821.0,2827.0,2883.0,3147.0,2959.0,0.777466,-0.012695,-0.62854,-0.015686,3.0,2.0,-1.0,7706.0,-4.0,1630.0,-303.0,-3.0,-86.0,20.0,-3.0,-314.0,0.977735,-2.2e-05,0.209475,15338.0,220.0,3500.0,72.0,56.0,-12.0
2830.0,2819.0,2901.0,3159.0,2981.0,0.777832,-0.012146,-0.628174,-0.015625,0.0,0.0,-1.0,7623.0,110.0,1724.0,-385.0,103.0,0.0,-76.0,106.0,-376.0,0.977607,0.000735,0.210517,15126.0,348.0,3704.0,3.0,2.0,-5.0
2827.0,2822.0,2914.0,3135.0,2983.0,0.777832,-0.012207,-0.628174,-0.015686,-1.0,-1.0,0.0,7639.0,101.0,1744.0,-369.0,95.0,19.0,-92.0,99.0,-356.0,0.97761,0.000717,0.210517,15400.0,92.0,3572.0,-18.0,-19.0,9.0
2832.0,2826.0,2893.0,3119.0,2975.0,0.777771,-0.012207,-0.628235,-0.015625,1.0,0.0,-1.0,7703.0,-4.0,1717.0,-305.0,-9.0,-6.0,-58.0,-6.0,-299.0,0.977627,0.000644,0.210344,15514.0,-340.0,3262.0,30.0,6.0,-15.0
2858.0,2795.0,2897.0,3135.0,2951.0,0.777832,-0.011963,-0.628174,-0.015503,2.0,0.0,-2.0,7708.0,-20.0,1715.0,-300.0,-27.0,-9.0,-55.0,-24.0,-295.0,0.977598,0.000867,0.210518,15410.0,-42.0,3430.0,64.0,15.0,-23.0
2835.0,2799.0,2881.0,3158.0,2954.0,0.777893,-0.01123,-0.628113,-0.015259,2.0,-1.0,-1.0,7650.0,34.0,1688.0,-358.0,20.0,-38.0,-37.0,22.0,-357.0,0.977552,0.001696,0.210699,15126.0,244.0,3286.0,55.0,-6.0,-21.0
2815.0,2827.0,2910.0,3127.0,2993.0,0.777832,-0.010986,-0.628174,-0.015259,1.0,-1.0,-2.0,7665.0,51.0,1691.0,-343.0,33.0,-33.0,-38.0,35.0,-342.0,0.977563,0.002079,0.210532,15500.0,194.0,3414.0,40.0,-17.0,-26.0
2841.0,2829.0,2893.0,3103.0,2967.0,0.777832,-0.010498,-0.628174,-0.015381,0.0,-1.0,-2.0,7665.0,78.0,1675.0,-343.0,53.0,-49.0,-22.0,54.0,-345.0,0.97755,0.002992,0.210547,15178.0,160.0,3216.0,17.0,-1.0,-30.0
2833.0,2805.0,2861.0,3143.0,2967.0,0.777771,-0.010315,-0.628235,-0.015442,0.0,-1.0,-1.0,7642.0,66.0,1659.0,-366.0,38.0,-64.0,-12.0,39.0,-371.0,0.977564,0.003357,0.210381,15198.0,50.0,3252.0,14.0,-19.0,-18.0
2835.0,2831.0,2879.0,3149.0,2983.0,0.777588,-0.010071,-0.628479,-0.01532,1.0,-1.0,-1.0,7686.0,59.0,1641.0,-323.0,29.0,-77.0,8.0,29.0,-331.0,0.977704,0.003595,0.20979,15624.0,120.0,3236.0,34.0,-22.0,-10.0
2831.0,2797.0,2897.0,3134.0,2959.0,0.777527,-0.009827,-0.628601,-0.015259,2.0,-1.0,-1.0,7723.0,58.0,1631.0,-287.0,26.0,-85.0,23.0,26.0,-298.0,0.977808,0.003902,0.209545,15650.0,114.0,3234.0,47.0,-5.0,-15.0
2823.0,2815.0,2896.0,3121.0,3003.0,0.777649,-0.009155,-0.628479,-0.015015,2.0,1.0,-1.0,7732.0,58.0,1627.0,-277.0,20.0,-92.0,32.0,20.0,-290.0,0.977747,0.004634,0.209894,15434.0,244.0,3324.0,68.0,25.0,-20.0
2833.0,2806.0,2928.0,3123.0,2987.0,0.77771,-0.00885,-0.628357,-0.014893,2.0,1.0,-1.0,7713.0,96.0,1644.0,-295.0,55.0,-77.0,15.0,56.0,-304.0,0.977623,0.00495,0.210144,15280.0,464.0,3344.0,56.0,26.0,-18.0
2832.0,2779.0,2897.0,3127.0,2995.0,0.777771,-0.008545,-0.628296,-0.014954,-1.0,-1.0,0.0,7698.0,141.0,1668.0,-310.0,95.0,-54.0,-9.0,97.0,-313.0,0.977596,0.005499,0.210323,15400.0,306.0,3370.0,-5.0,-3.0,3.0
2849.0,2832.0,2891.0,3135.0,2983.0,0.777771,-0.008545,-0.628296,-0.015015,-1.0,-1.0,0.0,7699.0,127.0,1673.0,-309.0,81.0,-49.0,-14.0,83.0,-311.0,0.977597,0.005575,0.210324,15388.0,120.0,3334.0,-11.0,-7.0,0.0
2837.0,2815.0,2919.0,3121.0,2967.0,0.777771,-0.008484,-0.628296,-0.015137,0.0,-1.0,-1.0,7686.0,73.0,1692.0,-322.0,25.0,-31.0,-36.0,28.0,-321.0,0.977597,0.005824,0.210329,15262.0,48.0,3338.0,10.0,-11.0,-20.0
2836.0,2823.0,2879.0,3127.0,2983.0,0.77771,-0.008362,-0.628418,-0.015137,0.0,-2.0,-2.0,7682.0,62.0,1694.0,-327.0,12.0,-26.0,-42.0,15.0,-325.0,0.977707,0.006018,0.210083,15352.0,80.0,3426.0,13.0,-24.0,-23.0
2831.0,2831.0,2908.0,3135.0,2975.0,0.777527,-0.008057,-0.628601,-0.01532,0.0,-2.0,-2.0,7678.0,64.0,1694.0,-331.0,8.0,-22.0,-47.0,11.0,-328.0,0.977755,0.006732,0.209579,15380.0,148.0,3396.0,9.0,-27.0,-30.0
2815.0,2797.0,2899.0,3119.0,2965.0,0.777466,-0.007935,-0.628662,-0.015381,0.0,-1.0,-2.0,7699.0,47.0,1682.0,-310.0,-10.0,-33.0,-32.0,-6.0,-310.0,0.977771,0.007001,0.209411,15554.0,-22.0,3216.0,13.0,-17.0,-29.0
2835.0,2811.0,2891.0,3127.0,2960.0,0.777466,-0.007446,-0.628662,-0.015381,2.0,0.0,-2.0,7679.0,23.0,1643.0,-330.0,-40.0,-72.0,0.0,-37.0,-338.0,0.977756,0.00776,0.209418,15152.0,96.0,3166.0,53.0,9.0,-38.0
2813.0,2807.0,2892.0,3151.0,2961.0,0.777466,-0.00708,-0.628723,-0.015381,2.0,-1.0,-2.0,7652.0,37.0,1622.0,-358.0,-31.0,-92.0,14.0,-28.0,-369.0,0.977839,0.008332,0.209347,15238.0,92.0,3160.0,49.0,-11.0,-35.0
2830.0,2800.0,2879.0,3135.0,2955.0,0.777283,-0.006592,-0.628906,-0.015198,1.0,-1.0,-1.0,7663.0,61.0,1600.0,-347.0,-11.0,-110.0,34.0,-8.0,-362.0,0.977876,0.008869,0.208833,15390.0,234.0,3170.0,45.0,-19.0,-15.0
2830.0,2815.0,2903.0,3115.0,2943.0,0.777222,-0.006348,-0.629028,-0.015137,1.0,-1.0,-1.0,7686.0,81.0,1617.0,-325.0,5.0,-91.0,21.0,7.0,-336.0,0.977981,0.009176,0.208586,15550.0,308.0,3372.0,41.0,-16.0,-18.0
2833.0,2813.0,2881.0,3123.0,2991.0,0.777161,-0.00592,-0.629028,-0.015198,0.0,0.0,-2.0,7733.0,128.0,1641.0,-277.0,46.0,-67.0,9.0,48.0,-284.0,0.977892,0.009917,0.208498,15578.0,426.0,3408.0,19.0,7.0,-24.0
2815.0,2807.0,2879.0,3135.0,2958.0,0.777222,-0.005737,-0.628967,-0.01532,0.0,0.0,-2.0,7730.0,150.0,1650.0,-280.0,65.0,-59.0,1.0,67.0,-285.0,0.97787,0.010353,0.208675,15394.0,420.0,3326.0,5.0,14.0,-29.0
2831.0,2805.0,2883.0,3103.0,2975.0,0.777283,-0.005554,-0.628967,-0.015564,0.0,-1.0,-1.0,7692.0,97.0,1656.0,-319.0,7.0,-54.0,-13.0,10.0,-323.0,0.977944,0.010944,0.20878,15264.0,-158.0,3250.0,3.0,-5.0,-12.0
2831.0,2823.0,2867.0,3143.0,2971.0,0.777222,-0.005493,-0.629028,-0.015442,1.0,-1.0,-1.0,7668.0,79.0,1648.0,-343.0,-10.0,-60.0,-13.0,-5.0,-348.0,0.977959,0.010888,0.208605,15222.0,164.0,3280.0,37.0,-17.0,-4.0
2843.0,2815.0,2895.0,3143.0,2982.0,0.7771,-0.005066,-0.62915,-0.015381,0.0,-1.0,-1.0,7696.0,151.0,1656.0,-315.0,56.0,-50.0,-14.0,60.0,-317.0,0.977981,0.01148,0.208264,15414.0,522.0,3310.0,18.0,-9.0,-17.0
2835.0,2815.0,2902.0,3123.0,2987.0,0.7771,-0.004944,-0.62915,-0.015503,-1.0,-1.0,-1.0,7692.0,159.0,1645.0,-319.0,62.0,-61.0,-4.0,66.0,-323.0,0.977978,0.011824,0.208269,15378.0,304.0,3210.0,0.0,-6.0,-15.0
2823.0,2797.0,2899.0,3135.0,2967.0,0.7771,-0.0047,-0.62915,-0.015503,1.0,0.0,-1.0,7708.0,144.0,1631.0,-303.0,44.0,-75.0,11.0,47.0,-311.0,0.977971,0.012203,0.208272,15382.0,368.0,3248.0,25.0,16.0,-21.0
2832.0,2819.0,2895.0,3139.0,2971.0,0.777161,-0.004456,-0.629089,-0.015564,1.0,0.0,-2.0,7678.0,143.0,1609.0,-333.0,39.0,-98.0,27.0,42.0,-345.0,0.977946,0.012657,0.208448,15158.0,226.0,3102.0,30.0,20.0,-37.0
2832.0,2829.0,2926.0,3149.0,2960.0,0.777161,-0.003784,-0.629089,-0.015381,3.0,-1.0,-2.0,7657.0,30.0,1572.0,-354.0,-80.0,-135.0,56.0,-76.0,-375.0,0.977923,0.01347,0.208448,15340.0,-326.0,3054.0,89.0,0.0,-36.0
2831.0,2810.0,2911.0,3115.0,2995.0,0.777161,-0.003235,-0.62915,-0.015076,5.0,0.0,-3.0,7650.0,-13.0,1561.0,-361.0,-127.0,-145.0,63.0,-123.0,-385.0,0.977999,0.013942,0.208365,15234.0,-252.0,3030.0,134.0,2.0,-46.0
2846.0,2800.0,2911.0,3151.0,2991.0,0.7771,-0.001343,-0.62915,-0.014282,10.0,0.0,-5.0,7655.0,-111.0,1576.0,-355.0,-241.0,-130.0,47.0,-236.0,-378.0,0.977863,0.015884,0.208256,15252.0,-358.0,3264.0,230.0,15.0,-105.0
2815.0,2827.0,2907.0,3120.0,3006.0,0.777161,6.1e-05,-0.62915,-0.013916,10.0,0.0,-6.0,7648.0,-57.0,1619.0,-362.0,-201.0,-87.0,5.0,-194.0,-375.0,0.9779,0.017605,0.208342,15280.0,306.0,3532.0,251.0,13.0,-127.0
2832.0,2819.0,2896.0,3134.0,2961.0,0.777283,0.002625,-0.629028,-0.013794,6.0,-1.0,-6.0,7666.0,123.0,1705.0,-344.0,-52.0,-4.0,-68.0,-43.0,-338.0,0.977793,0.021434,0.208675,15412.0,624.0,3534.0,144.0,-5.0,-125.0
2829.0,2782.0,2895.0,3099.0,2987.0,0.777222,0.003479,-0.629028,-0.013916,4.0,-1.0,-5.0,7699.0,155.0,1740.0,-310.0,-32.0,31.0,-95.0,-23.0,-297.0,0.977692,0.022915,0.208578,15614.0,480.0,3704.0,97.0,-16.0,-110.0
2818.0,2815.0,2879.0,3127.0,2943.0,0.777222,0.004883,-0.629089,-0.014465,2.0,-1.0,-6.0,7742.0,210.0,1742.0,-267.0,-1.0,33.0,-87.0,6.0,-254.0,0.977742,0.02579,0.208506,15612.0,614.0,3480.0,56.0,-16.0,-123.0
2831.0,2839.0,2863.0,3131.0,2981.0,0.777161,0.005493,-0.629089,-0.014893,1.0,-1.0,-6.0,7745.0,245.0,1724.0,-263.0,21.0,16.0,-70.0,29.0,-253.0,0.977643,0.027276,0.208417,15466.0,678.0,3330.0,32.0,-16.0,-120.0
2843.0,2819.0,2891.0,3143.0,2983.0,0.776978,0.006287,-0.629272,-0.015686,0.0,-1.0,-4.0,7740.0,288.0,1686.0,-269.0,46.0,-17.0,-38.0,54.0,-265.0,0.977664,0.029511,0.207917,15496.0,750.0,3346.0,1.0,-22.0,-79.0
2847.0,2799.0,2903.0,3123.0,2975.0,0.776917,0.006592,-0.629333,-0.016052,-1.0,-1.0,-4.0,7729.0,323.0,1666.0,-280.0,73.0,-35.0,-22.0,81.0,-278.0,0.977668,0.030447,0.207753,15340.0,864.0,3178.0,-7.0,-8.0,-73.0
2813.0,2807.0,2895.0,3111.0,2965.0,0.776917,0.006958,-0.629333,-0.016846,-2.0,-1.0,-3.0,7671.0,389.0,1649.0,-337.0,126.0,-53.0,-15.0,137.0,-336.0,0.977645,0.032015,0.207774,15100.0,1062.0,3214.0,-26.0,-8.0,-54.0
2832.0,2833.0,2899.0,3134.0,2983.0,0.776855,0.00708,-0.629395,-0.017273,-2.0,-1.0,-3.0,7680.0,421.0,1663.0,-328.0,152.0,-37.0,-29.0,163.0,-323.0,0.977653,0.032743,0.207615,15472.0,1002.0,3408.0,-36.0,-16.0,-46.0
2838.0,2829.0,2896.0,3135.0,2987.0,0.776855,0.007202,-0.629395,-0.018005,-3.0,-1.0,-2.0,7669.0,488.0,1670.0,-339.0,210.0,-30.0,-36.0,222.0,-330.0,0.977638,0.033855,0.207639,15170.0,1128.0,3362.0,-47.0,-4.0,-29.0
2823.0,2803.0,2891.0,3121.0,2971.0,0.776794,0.007202,-0.629456,-0.018372,-3.0,-1.0,-1.0,7656.0,503.0,1668.0,-352.0,221.0,-31.0,-38.0,233.0,-342.0,0.977651,0.034317,0.207481,15224.0,1058.0,3292.0,-47.0,-19.0,-19.0
2842.0,2791.0,2890.0,3147.0,2971.0,0.77655,0.007019,-0.6297,-0.018799,-3.0,-3.0,0.0,7643.0,546.0,1653.0,-366.0,262.0,-41.0,-30.0,275.0,-357.0,0.977723,0.034577,0.206813,15326.0,1224.0,3236.0,-49.0,-47.0,15.0
2827.0,2823.0,2896.0,3131.0,2963.0,0.776428,0.006775,-0.629883,-0.018982,-3.0,-2.0,1.0,7690.0,527.0,1644.0,-320.0,244.0,-46.0,-15.0,255.0,-314.0,0.97786,0.034433,0.206403,15666.0,874.0,3216.0,-56.0,-44.0,28.0
2833.0,2819.0,2894.0,3135.0,2975.0,0.776306,0.006348,-0.630066,-0.018982,-2.0,0.0,1.0,7743.0,484.0,1593.0,-268.0,207.0,-94.0,41.0,215.0,-274.0,0.978007,0.033775,0.205988,15556.0,796.0,3014.0,-35.0,1.0,41.0
2833.0,2807.0,2899.0,3115.0,2966.0,0.776306,0.006104,-0.630066,-0.019043,-2.0,0.0,1.0,7699.0,475.0,1560.0,-312.0,200.0,-127.0,64.0,209.0,-324.0,0.978016,0.033473,0.205994,15002.0,946.0,2896.0,-40.0,8.0,38.0
2823.0,2795.0,2870.0,3121.0,2973.0,0.776123,0.005432,-0.630249,-0.019287,-4.0,-1.0,2.0,7670.0,451.0,1560.0,-342.0,182.0,-123.0,54.0,192.0,-353.0,0.978092,0.032743,0.205496,15404.0,748.0,3112.0,-87.0,-18.0,47.0
2831.0,2800.0,2911.0,3127.0,2981.0,0.776062,0.004822,-0.63031,-0.019409,-5.0,-1.0,2.0,7683.0,380.0,1562.0,-329.0,118.0,-120.0,52.0,127.0,-342.0,0.978132,0.031952,0.205335,15470.0,242.0,3200.0,-101.0,-17.0,57.0
2831.0,2821.0,2885.0,3135.0,2975.0,0.776001,0.003784,-0.630432,-0.019165,-2.0,-1.0,2.0,7689.0,202.0,1562.0,-325.0,-44.0,-118.0,47.0,-34.0,-343.0,0.978287,0.030038,0.205086,15426.0,26.0,3258.0,-26.0,-6.0,59.0
2832.0,2802.0,2881.0,3123.0,2959.0,0.776001,0.003601,-0.630371,-0.018921,0.0,0.0,1.0,7710.0,190.0,1587.0,-303.0,-51.0,-93.0,27.0,-42.0,-316.0,0.978201,0.029443,0.205155,15524.0,432.0,3330.0,13.0,11.0,42.0
2832.0,2800.0,2887.0,3131.0,2982.0,0.776184,0.003418,-0.630249,-0.018677,-1.0,0.0,1.0,7660.0,263.0,1634.0,-353.0,26.0,-50.0,-22.0,36.0,-354.0,0.978251,0.028848,0.205585,14976.0,826.0,3388.0,-17.0,5.0,32.0
2827.0,2823.0,2896.0,3135.0,2990.0,0.776123,0.003235,-0.63031,-0.018799,-3.0,-2.0,0.0,7594.0,307.0,1643.0,-420.0,71.0,-39.0,-46.0,84.0,-416.0,0.978275,0.028719,0.205419,14886.0,792.0,3370.0,-58.0,-43.0,17.0
2823.0,2815.0,2896.0,3131.0,2975.0,0.775635,0.002563,-0.630859,-0.019165,-4.0,-5.0,0.0,7633.0,265.0,1675.0,-383.0,34.0,3.0,-79.0,46.0,-373.0,0.978535,0.028158,0.203986,15514.0,362.0,3368.0,-72.0,-93.0,18.0
2833.0,2826.0,2903.0,3131.0,2975.0,0.775391,0.002197,-0.631226,-0.019287,-3.0,-5.0,0.0,7665.0,232.0,1683.0,-353.0,4.0,18.0,-88.0,15.0,-341.0,0.978808,0.027757,0.203152,15512.0,236.0,3464.0,-56.0,-94.0,15.0
2827.0,2813.0,2899.0,3127.0,2979.0,0.774902,0.00177,-0.631775,-0.019226,-1.0,-3.0,0.0,7787.0,183.0,1685.0,-233.0,-38.0,32.0,-79.0,-29.0,-222.0,0.97906,0.027036,0.201701,16016.0,376.0,3304.0,-6.0,-55.0,17.0
2832.0,2826.0,2896.0,3143.0,2975.0,0.774841,0.00177,-0.631836,-0.019226,-1.0,-1.0,0.0,7817.0,200.0,1665.0,-203.0,-21.0,14.0,-55.0,-14.0,-196.0,0.979077,0.027038,0.201529,15702.0,506.0,3162.0,-2.0,-10.0,8.0
2831.0,2823.0,2896.0,3103.0,2975.0,0.774841,0.001709,-0.631836,-0.019348,-1.0,-1.0,-1.0,7741.0,195.0,1613.0,-279.0,-26.0,-37.0,-20.0,-17.0,-281.0,0.979079,0.027098,0.201534,15260.0,284.0,3058.0,-12.0,-2.0,-6.0
2832.0,2811.0,2881.0,3127.0,2977.0,0.77478,0.001648,-0.631897,-0.019287,-1.0,-1.0,0.0,7720.0,194.0,1601.0,-300.0,-26.0,-48.0,-13.0,-17.0,-304.0,0.979099,0.026929,0.20136,15318.0,436.0,3146.0,-3.0,-7.0,9.0
2832.0,2813.0,2885.0,3125.0,2971.0,0.774719,0.001587,-0.632019,-0.019287,-1.0,-1.0,0.0,7641.0,237.0,1560.0,-380.0,17.0,-87.0,9.0,27.0,-389.0,0.979213,0.026838,0.201111,14976.0,672.0,2968.0,-12.0,-17.0,5.0
2832.0,2827.0,2898.0,3139.0,2993.0,0.774597,0.001526,-0.632141,-0.019409,-2.0,-2.0,-1.0,7652.0,229.0,1560.0,-370.0,8.0,-84.0,8.0,17.0,-378.0,0.97925,0.026903,0.200773,15528.0,338.0,3194.0,-26.0,-42.0,-1.0
2831.0,2822.0,2899.0,3135.0,2975.0,0.774475,0.001404,-0.632324,-0.019409,0.0,0.0,-1.0,7739.0,208.0,1574.0,-284.0,-10.0,-67.0,8.0,-2.0,-291.0,0.979384,0.02672,0.200353,15594.0,584.0,3242.0,12.0,8.0,-5.0
2827.0,2809.0,2889.0,3122.0,2981.0,0.774536,0.001526,-0.632263,-0.019531,-1.0,0.0,-1.0,7697.0,261.0,1588.0,-325.0,39.0,-54.0,-10.0,48.0,-328.0,0.979362,0.027061,0.200529,15110.0,830.0,3286.0,-6.0,1.0,-12.0
2831.0,2805.0,2886.0,3123.0,2981.0,0.774292,0.001282,-0.632507,-0.019836,-3.0,-3.0,0.0,7728.0,266.0,1632.0,-295.0,44.0,-5.0,-52.0,53.0,-288.0,0.97944,0.027078,0.199854,15836.0,342.0,3312.0,-54.0,-54.0,15.0
2831.0,2830.0,2899.0,3143.0,2979.0,0.774231,0.000977,-0.632629,-0.019897,-2.0,-2.0,0.0,7756.0,217.0,1627.0,-268.0,-1.0,-8.0,-45.0,7.0,-264.0,0.979564,0.026688,0.199609,15526.0,184.0,3200.0,-30.0,-27.0,21.0
2834.0,2829.0,2899.0,3135.0,2975.0,0.773987,0.000916,-0.632874,-0.019775,0.0,-2.0,-1.0,7750.0,182.0,1597.0,-275.0,-34.0,-32.0,-24.0,-25.0,-276.0,0.979635,0.026448,0.198917,15434.0,340.0,3032.0,14.0,-26.0,-5.0
2832.0,2815.0,2893.0,3125.0,2967.0,0.773926,0.000977,-0.632996,-0.019775,0.0,-2.0,-1.0,7683.0,193.0,1563.0,-343.0,-24.0,-64.0,-5.0,-14.0,-349.0,0.979745,0.026547,0.198668,14880.0,472.0,2862.0,16.0,-35.0,-14.0
2825.0,2815.0,2891.0,3135.0,2975.0,0.773376,0.001099,-0.633667,-0.019897,-1.0,-4.0,-1.0,7642.0,224.0,1539.0,-386.0,3.0,-74.0,-3.0,13.0,-392.0,0.980083,0.026916,0.196972,15350.0,562.0,3032.0,-4.0,-89.0,-10.0
2839.0,2823.0,2894.0,3139.0,2979.0,0.773071,0.001099,-0.634033,-0.019958,-1.0,-4.0,-1.0,7688.0,210.0,1533.0,-342.0,-11.0,-72.0,3.0,-1.0,-349.0,0.980262,0.027007,0.196038,15704.0,226.0,3078.0,-13.0,-83.0,-3.0
2839.0,2818.0,2897.0,3147.0,2993.0,0.772644,0.000916,-0.634521,-0.019531,1.0,-3.0,1.0,7716.0,192.0,1537.0,-316.0,-22.0,-58.0,-5.0,-13.0,-321.0,0.980483,0.026201,0.194742,15462.0,618.0,3148.0,37.0,-50.0,45.0
2832.0,2815.0,2885.0,3134.0,2983.0,0.772522,0.001038,-0.634705,-0.019287,1.0,-2.0,1.0,7740.0,249.0,1542.0,-293.0,35.0,-49.0,-7.0,42.0,-295.0,0.980606,0.026086,0.194311,15690.0,820.0,3158.0,41.0,-41.0,34.0
2829.0,2813.0,2899.0,3133.0,2971.0,0.7724,0.001221,-0.634827,-0.019287,-1.0,0.0,-1.0,7792.0,343.0,1535.0,-241.0,126.0,-53.0,8.0,132.0,-243.0,0.980633,0.026374,0.193967,15744.0,852.0,2960.0,-14.0,5.0,-5.0
2831.0,2820.0,2903.0,3141.0,2967.0,0.772461,0.00116,-0.634766,-0.01947,-2.0,1.0,-1.0,7791.0,342.0,1508.0,-242.0,124.0,-82.0,37.0,129.0,-249.0,0.980618,0.02651,0.194146,15490.0,680.0,2842.0,-35.0,27.0,-15.0
2835.0,2815.0,2902.0,3147.0,2991.0,0.772583,0.000916,-0.634583,-0.02002,-2.0,2.0,-2.0,7764.0,225.0,1433.0,-268.0,5.0,-161.0,106.0,9.0,-293.0,0.980499,0.026823,0.194589,15410.0,128.0,2642.0,-40.0,46.0,-28.0
2823.0,2813.0,2891.0,3131.0,2991.0,0.772705,0.000916,-0.63446,-0.020264,-2.0,1.0,-3.0,7717.0,191.0,1411.0,-314.0,-31.0,-185.0,119.0,-25.0,-344.0,0.980465,0.027128,0.194943,15132.0,204.0,2774.0,-26.0,43.0,-50.0
2834.0,2811.0,2887.0,3119.0,2971.0,0.772827,0.001038,-0.634277,-0.020508,0.0,1.0,-2.0,7721.0,82.0,1427.0,-309.0,-144.0,-173.0,105.0,-137.0,-340.0,0.980331,0.027619,0.195374,15526.0,84.0,3006.0,20.0,33.0,-26.0
2837.0,2832.0,2889.0,3143.0,2979.0,0.772949,0.00116,-0.634155,-0.020447,1.0,1.0,-2.0,7707.0,125.0,1466.0,-323.0,-102.0,-137.0,68.0,-94.0,-346.0,0.980292,0.027726,0.195714,15354.0,526.0,3246.0,33.0,30.0,-23.0
2837.0,2832.0,2919.0,3135.0,2960.0,0.773193,0.001587,-0.63385,-0.020569,0.0,0.0,-2.0,7711.0,217.0,1573.0,-318.0,-16.0,-36.0,-27.0,-6.0,-319.0,0.980112,0.028529,0.196483,15396.0,684.0,3422.0,5.0,21.0,-25.0
2839.0,2813.0,2879.0,3115.0,2943.0,0.773315,0.001709,-0.633667,-0.020752,-1.0,0.0,-2.0,7731.0,244.0,1621.0,-296.0,6.0,7.0,-64.0,16.0,-288.0,0.979978,0.028943,0.196911,15574.0,634.0,3494.0,-3.0,20.0,-30.0
2831.0,2815.0,2902.0,3139.0,2981.0,0.773499,0.001892,-0.633423,-0.021118,-1.0,0.0,-1.0,7717.0,268.0,1667.0,-309.0,24.0,48.0,-107.0,35.0,-292.0,0.979823,0.029681,0.197518,15416.0,460.0,3422.0,-15.0,10.0,-22.0
2836.0,2803.0,2895.0,3127.0,2991.0,0.77356,0.001892,-0.633301,-0.021179,0.0,0.0,-1.0,7693.0,267.0,1660.0,-332.0,23.0,39.0,-102.0,35.0,-316.0,0.979712,0.029753,0.197769,15186.0,540.0,3240.0,1.0,5.0,-11.0
2845.0,2813.0,2923.0,3163.0,2975.0,0.773438,0.002014,-0.633545,-0.02124,-1.0,-3.0,0.0,7652.0,294.0,1655.0,-375.0,48.0,38.0,-109.0,62.0,-358.0,0.979929,0.030029,0.197273,15552.0,616.0,3362.0,-4.0,-59.0,1.0
2830.0,2815.0,2915.0,3127.0,2991.0,0.773254,0.002014,-0.633728,-0.02124,0.0,-2.0,0.0,7680.0,309.0,1638.0,-347.0,62.0,26.0,-91.0,74.0,-333.0,0.97998,0.030036,0.196758,15444.0,750.0,3142.0,1.0,-43.0,12.0
2831.0,2819.0,2896.0,3111.0,2982.0,0.772949,0.001892,-0.634094,-0.02124,-1.0,-2.0,0.0,7723.0,312.0,1609.0,-306.0,67.0,4.0,-61.0,77.0,-297.0,0.980165,0.029862,0.195823,15602.0,570.0,3052.0,-8.0,-43.0,14.0
2838.0,2807.0,2887.0,3123.0,2989.0,0.772827,0.001892,-0.634216,-0.02124,0.0,-2.0,0.0,7741.0,298.0,1580.0,-288.0,53.0,-21.0,-33.0,62.0,-284.0,0.980199,0.029866,0.195479,15582.0,488.0,3018.0,3.0,-28.0,10.0
2832.0,2783.0,2877.0,3153.0,2999.0,0.772705,0.002136,-0.634399,-0.021118,1.0,-1.0,-1.0,7716.0,256.0,1529.0,-314.0,9.0,-68.0,5.0,18.0,-320.0,0.980317,0.030096,0.195052,15396.0,304.0,2938.0,32.0,-14.0,-16.0
2829.0,2831.0,2897.0,3135.0,2967.0,0.772644,0.002319,-0.63446,-0.021057,1.0,-1.0,-1.0,7666.0,270.0,1504.0,-364.0,21.0,-92.0,20.0,31.0,-374.0,0.980326,0.030304,0.194877,14974.0,726.0,2840.0,39.0,-20.0,-8.0
2843.0,2802.0,2877.0,3115.0,2935.0,0.772339,0.002441,-0.634827,-0.020996,-1.0,-2.0,0.0,7718.0,277.0,1492.0,-314.0,27.0,-96.0,34.0,35.0,-325.0,0.9805,0.030429,0.193937,15642.0,564.0,2878.0,-2.0,-28.0,12.0
2847.0,2819.0,2863.0,3135.0,2966.0,0.772278,0.00238,-0.634888,-0.020996,-1.0,-1.0,0.0,7763.0,273.0,1484.0,-269.0,24.0,-103.0,49.0,31.0,-282.0,0.980519,0.030337,0.193766,15794.0,494.0,2890.0,-9.0,0.0,2.0
2832.0,2815.0,2883.0,3154.0,2943.0,0.7724,0.002441,-0.634766,-0.020935,1.0,1.0,-1.0,7755.0,201.0,1466.0,-277.0,-47.0,-124.0,66.0,-39.0,-297.0,0.980484,0.030349,0.194107,15412.0,318.0,2910.0,31.0,33.0,-3.0
2835.0,2819.0,2893.0,3151.0,2961.0,0.772522,0.002625,-0.634644,-0.020752,2.0,1.0,-1.0,7770.0,220.0,1483.0,-261.0,-28.0,-109.0,55.0,-21.0,-277.0,0.980443,0.030395,0.194441,15652.0,626.0,3124.0,47.0,36.0,-4.0
2839.0,2831.0,2914.0,3125.0,3003.0,0.772644,0.003052,-0.63446,-0.020996,-1.0,-1.0,-2.0,7712.0,305.0,1530.0,-318.0,48.0,-66.0,4.0,58.0,-323.0,0.980296,0.031358,0.19487,15814.0,380.0,3300.0,-19.0,-7.0,-24.0
2847.0,2815.0,2911.0,3103.0,2991.0,0.772705,0.002991,-0.634399,-0.020996,-1.0,0.0,-1.0,7726.0,297.0,1531.0,-304.0,40.0,-66.0,6.0,49.0,-309.0,0.980282,0.031262,0.195042,15410.0,638.0,3060.0,-8.0,18.0,-2.0
2815.0,2800.0,2839.0,3115.0,3003.0,0.772827,0.002991,-0.634277,-0.021179,-1.0,-1.0,0.0,7665.0,281.0,1553.0,-365.0,23.0,-47.0,-24.0,35.0,-366.0,0.980247,0.03149,0.195394,15038.0,508.0,3120.0,-11.0,-3.0,0.0
2825.0,2806.0,2897.0,3131.0,2981.0,0.772766,0.00293,-0.634338,-0.021118,-1.0,-2.0,0.0,7669.0,262.0,1560.0,-361.0,5.0,-39.0,-31.0,17.0,-361.0,0.980267,0.03132,0.19522,15474.0,394.0,3162.0,0.0,-32.0,8.0
2829.0,2825.0,2939.0,3134.0,2975.0,0.772644,0.003052,-0.63446,-0.020874,1.0,0.0,0.0,7759.0,228.0,1569.0,-271.0,-27.0,-27.0,-26.0,-17.0,-271.0,0.980297,0.031203,0.194865,15770.0,302.0,3118.0,36.0,2.0,6.0
2822.0,2807.0,2879.0,3142.0,2970.0,0.772766,0.003174,-0.634399,-0.02063,2.0,1.0,0.0,7765.0,230.0,1569.0,-266.0,-24.0,-29.0,-23.0,-15.0,-267.0,0.980354,0.03108,0.19512,15348.0,648.0,3154.0,62.0,36.0,6.0
2831.0,2803.0,2906.0,3131.0,2975.0,0.772888,0.003723,-0.634216,-0.020508,1.0,0.0,-1.0,7703.0,271.0,1552.0,-326.0,10.0,-49.0,-15.0,20.0,-328.0,0.980204,0.031768,0.195533,15384.0,562.0,3088.0,31.0,13.0,-10.0
2827.0,2807.0,2895.0,3139.0,2975.0,0.772888,0.003845,-0.634155,-0.020508,0.0,0.0,-1.0,7712.0,303.0,1548.0,-317.0,41.0,-54.0,-7.0,51.0,-319.0,0.980105,0.031954,0.195609,15566.0,814.0,3142.0,15.0,8.0,-3.0
2829.0,2803.0,2901.0,3143.0,2943.0,0.773132,0.003784,-0.633911,-0.020691,-2.0,1.0,0.0,7665.0,308.0,1510.0,-363.0,45.0,-98.0,26.0,56.0,-373.0,0.980038,0.032084,0.196304,14852.0,508.0,2796.0,-37.0,28.0,4.0
2823.0,2805.0,2917.0,3135.0,2982.0,0.773071,0.003601,-0.633972,-0.020752,-2.0,-1.0,0.0,7643.0,241.0,1487.0,-385.0,-20.0,-119.0,40.0,-8.0,-401.0,0.980062,0.03188,0.196136,15288.0,2.0,2854.0,-33.0,-9.0,4.0
2827.0,2797.0,2885.0,3143.0,2963.0,0.772949,0.003479,-0.634094,-0.020569,0.0,-1.0,-1.0,7704.0,220.0,1512.0,-324.0,-37.0,-91.0,25.0,-27.0,-336.0,0.980102,0.031463,0.195786,15838.0,504.0,3232.0,15.0,-5.0,-2.0
2823.0,2795.0,2897.0,3127.0,2965.0,0.773071,0.003601,-0.633972,-0.020569,0.0,1.0,-1.0,7719.0,247.0,1527.0,-309.0,-12.0,-79.0,16.0,-2.0,-318.0,0.980063,0.031648,0.196129,15340.0,724.0,3086.0,16.0,30.0,-3.0
2826.0,2806.0,2897.0,3139.0,2983.0,0.773193,0.003784,-0.63385,-0.02063,0.0,0.0,-1.0,7716.0,255.0,1552.0,-312.0,-7.0,-57.0,-5.0,3.0,-317.0,0.980021,0.032004,0.196473,15468.0,490.0,3144.0,13.0,10.0,-7.0
2819.0,2801.0,2913.0,3135.0,2967.0,0.773193,0.003845,-0.633789,-0.020569,1.0,0.0,-1.0,7712.0,264.0,1576.0,-315.0,1.0,-34.0,-28.0,11.0,-315.0,0.979925,0.032019,0.196548,15388.0,606.0,3290.0,24.0,8.0,-10.0
2832.0,2799.0,2899.0,3133.0,2973.0,0.773376,0.004333,-0.633606,-0.020508,1.0,0.0,-1.0,7705.0,264.0,1602.0,-321.0,-3.0,-12.0,-51.0,8.0,-316.0,0.979854,0.032691,0.197056,15242.0,552.0,3240.0,43.0,16.0,-22.0
2832.0,2821.0,2869.0,3143.0,2975.0,0.773438,0.004578,-0.633545,-0.020447,2.0,0.0,-2.0,7700.0,248.0,1604.0,-326.0,-22.0,-11.0,-53.0,-9.0,-322.0,0.979828,0.032989,0.197223,15446.0,348.0,3206.0,50.0,8.0,-23.0
2831.0,2799.0,2909.0,3157.0,2975.0,0.77356,0.005371,-0.633423,-0.02002,4.0,1.0,-2.0,7717.0,221.0,1562.0,-309.0,-54.0,-56.0,-7.0,-43.0,-315.0,0.979766,0.033671,0.197542,15422.0,428.0,2986.0,95.0,34.0,-28.0
2831.0,2811.0,2881.0,3121.0,2959.0,0.773621,0.005859,-0.633301,-0.019836,4.0,1.0,-2.0,7721.0,232.0,1534.0,-304.0,-48.0,-86.0,23.0,-37.0,-316.0,0.979637,0.034191,0.197778,15492.0,528.0,2930.0,95.0,38.0,-28.0
2839.0,2807.0,2907.0,3123.0,2999.0,0.773926,0.006592,-0.632996,-0.019348,3.0,2.0,-1.0,7724.0,238.0,1478.0,-300.0,-46.0,-149.0,85.0,-36.0,-325.0,0.979528,0.034698,0.198609,15372.0,482.0,2810.0,75.0,53.0,-2.0
2814.0,2822.0,2906.0,3135.0,2963.0,0.774048,0.006836,-0.632812,-0.019104,2.0,2.0,0.0,7748.0,235.0,1469.0,-275.0,-49.0,-161.0,102.0,-40.0,-303.0,0.979393,0.034761,0.199017,15746.0,444.0,2868.0,64.0,56.0,10.0
2841.0,2827.0,2887.0,3155.0,2973.0,0.774536,0.007324,-0.632202,-0.018616,2.0,4.0,-1.0,7726.0,252.0,1473.0,-294.0,-33.0,-169.0,106.0,-23.0,-322.0,0.979054,0.034884,0.20052,15118.0,656.0,3052.0,61.0,98.0,-7.0
2823.0,2802.0,2895.0,3143.0,2949.0,0.774841,0.00769,-0.631836,-0.018555,2.0,3.0,-2.0,7672.0,282.0,1502.0,-346.0,-7.0,-148.0,75.0,4.0,-368.0,0.97886,0.035365,0.201448,15108.0,740.0,3218.0,53.0,78.0,-41.0
2819.0,2801.0,2923.0,3135.0,2951.0,0.77533,0.008545,-0.631226,-0.018921,1.0,2.0,-4.0,7650.0,330.0,1577.0,-365.0,25.0,-85.0,9.0,38.0,-373.0,0.978492,0.037137,0.202975,15246.0,822.0,3396.0,26.0,60.0,-82.0
2829.0,2827.0,2895.0,3151.0,2987.0,0.775513,0.008972,-0.630981,-0.019287,0.0,1.0,-4.0,7637.0,356.0,1623.0,-377.0,42.0,-44.0,-32.0,57.0,-376.0,0.978322,0.038256,0.203574,15208.0,872.0,3536.0,7.0,42.0,-89.0
2832.0,2821.0,2909.0,3147.0,2991.0,0.468262,0.022217,0.102295,-1.21228,14714.0,-14915.0,3663.0,-31562.0,-1.0,-25213.0,-30335.0,1860.0,26578.0,-24070.0,24850.0,-16823.0,-0.149668,-0.227214,1.677935,15418.0,742.0,3608.0,0.0,37.0,-72.0
2813.0,2802.0,2867.0,3126.0,2949.0,0.77594,0.009766,-0.630432,-0.020264,0.0,0.0,-3.0,7683.0,365.0,1727.0,-328.0,31.0,48.0,-113.0,45.0,-309.0,0.977959,0.040705,0.204953,15336.0,690.0,3520.0,13.0,19.0,-53.0
2832.0,2815.0,2911.0,3120.0,2961.0,0.776001,0.010315,-0.63031,-0.020203,2.0,-1.0,-1.0,7689.0,446.0,1757.0,-321.0,106.0,76.0,-138.0,120.0,-293.0,0.977826,0.041477,0.205188,15398.0,1372.0,3586.0,48.0,-11.0,-8.0
2833.0,2815.0,2885.0,3135.0,2967.0,0.776001,0.01062,-0.63031,-0.020203,1.0,-1.0,-1.0,7693.0,511.0,1744.0,-317.0,167.0,63.0,-123.0,181.0,-290.0,0.977813,0.04195,0.205182,15416.0,1382.0,3340.0,24.0,-18.0,-2.0
2832.0,2821.0,2910.0,3123.0,2979.0,0.77594,0.010803,-0.630371,-0.020325,-1.0,0.0,0.0,7732.0,535.0,1671.0,-278.0,187.0,-8.0,-45.0,199.0,-265.0,0.977821,0.04239,0.205011,15458.0,968.0,3006.0,-2.0,6.0,2.0
2827.0,2801.0,2907.0,3135.0,2982.0,0.77594,0.010864,-0.630371,-0.020386,0.0,0.0,-1.0,7725.0,494.0,1621.0,-285.0,145.0,-58.0,1.0,157.0,-284.0,0.977817,0.042561,0.205013,15396.0,714.0,2942.0,2.0,15.0,-2.0
2827.0,2810.0,2895.0,3143.0,2995.0,0.776001,0.011047,-0.63031,-0.020264,1.0,0.0,-1.0,7673.0,399.0,1535.0,-337.0,49.0,-145.0,73.0,63.0,-357.0,0.977795,0.04269,0.205175,15242.0,400.0,2874.0,30.0,18.0,-2.0
2835.0,2821.0,2896.0,3135.0,2981.0,0.776001,0.011169,-0.63031,-0.020081,2.0,0.0,0.0,7634.0,372.0,1512.0,-376.0,22.0,-168.0,87.0,37.0,-401.0,0.977794,0.042649,0.205165,14964.0,648.0,2910.0,50.0,21.0,1.0
2835.0,2823.0,2896.0,3141.0,2967.0,0.776001,0.011597,-0.63031,-0.019592,3.0,0.0,0.0,7646.0,253.0,1511.0,-364.0,-96.0,-169.0,89.0,-80.0,-394.0,0.977788,0.042696,0.205136,15468.0,62.0,3052.0,83.0,13.0,4.0
2830.0,2803.0,2879.0,3135.0,2963.0,0.776062,0.012024,-0.630249,-0.019043,5.0,1.0,-1.0,7696.0,209.0,1531.0,-313.0,-140.0,-150.0,80.0,-126.0,-342.0,0.977767,0.042666,0.205276,15680.0,228.0,3244.0,136.0,34.0,-1.0
2832.0,2803.0,2866.0,3115.0,2975.0,0.776489,0.013672,-0.6297,-0.018066,8.0,3.0,-3.0,7700.0,219.0,1606.0,-306.0,-141.0,-86.0,19.0,-127.0,-323.0,0.977416,0.043985,0.206553,15256.0,654.0,3478.0,197.0,78.0,-62.0
2835.0,2823.0,2899.0,3143.0,2963.0,0.776794,0.014709,-0.629333,-0.017761,7.0,2.0,-4.0,7675.0,294.0,1652.0,-330.0,-76.0,-47.0,-23.0,-60.0,-335.0,0.977203,0.045208,0.207448,15246.0,1090.0,3570.0,180.0,66.0,-78.0
2834.0,2823.0,2897.0,3147.0,2982.0,0.777161,0.016418,-0.628845,-0.017944,2.0,1.0,-4.0,7667.0,498.0,1730.0,-335.0,104.0,21.0,-89.0,120.0,-317.0,0.976838,0.048088,0.208585,15386.0,1490.0,3688.0,49.0,28.0,-86.0
2837.0,2803.0,2891.0,3121.0,2973.0,0.777222,0.016724,-0.628723,-0.018372,-1.0,0.0,-3.0,7706.0,519.0,1758.0,-295.0,116.0,47.0,-106.0,130.0,-272.0,0.9767,0.049097,0.208839,15652.0,1092.0,3630.0,-18.0,20.0,-66.0
2827.0,2813.0,2883.0,3135.0,2975.0,0.777405,0.016785,-0.628479,-0.018982,-1.0,0.0,-3.0,7700.0,400.0,1741.0,-299.0,-9.0,25.0,-87.0,6.0,-287.0,0.976528,0.049956,0.209451,15370.0,312.0,3322.0,-22.0,8.0,-50.0
2837.0,2823.0,2897.0,3139.0,2985.0,0.777405,0.016907,-0.628479,-0.019043,1.0,-1.0,-2.0,7688.0,348.0,1727.0,-311.0,-63.0,11.0,-76.0,-47.0,-304.0,0.976521,0.050223,0.209449,15300.0,508.0,3380.0,27.0,-2.0,-43.0
2831.0,2823.0,2899.0,3135.0,2979.0,0.777344,0.0177,-0.628479,-0.018982,3.0,-1.0,-2.0,7687.0,381.0,1701.0,-311.0,-39.0,-13.0,-52.0,-22.0,-308.0,0.976416,0.051378,0.209324,15464.0,1070.0,3314.0,73.0,-10.0,-38.0
2832.0,2803.0,2879.0,3119.0,2979.0,0.777344,0.018127,-0.628479,-0.018921,2.0,0.0,-2.0,7707.0,439.0,1691.0,-291.0,13.0,-23.0,-38.0,28.0,-288.0,0.976402,0.051965,0.209307,15494.0,1222.0,3318.0,58.0,6.0,-37.0
2831.0,2806.0,2882.0,3127.0,2971.0,0.777405,0.018738,-0.628479,-0.019165,0.0,-1.0,-2.0,7635.0,517.0,1646.0,-364.0,80.0,-69.0,-8.0,99.0,-365.0,0.976447,0.053223,0.209389,15074.0,1252.0,3178.0,16.0,-3.0,-34.0
2831.0,2813.0,2895.0,3135.0,2979.0,0.777344,0.018982,-0.628479,-0.019348,-1.0,-1.0,-2.0,7639.0,530.0,1639.0,-359.0,89.0,-75.0,-1.0,108.0,-361.0,0.976354,0.053831,0.209291,15350.0,1064.0,3212.0,-2.0,-11.0,-37.0
2833.0,2799.0,2896.0,3133.0,2980.0,0.777283,0.019165,-0.62854,-0.019592,-1.0,-1.0,-1.0,7643.0,537.0,1617.0,-355.0,91.0,-96.0,20.0,110.0,-361.0,0.976356,0.054422,0.209122,15230.0,1212.0,3236.0,-3.0,0.0,-15.0
2832.0,2815.0,2887.0,3091.0,2975.0,0.777283,0.019226,-0.62854,-0.019775,-1.0,-1.0,-1.0,7658.0,556.0,1626.0,-340.0,107.0,-87.0,14.0,125.0,-344.0,0.976346,0.054747,0.209127,15446.0,1208.0,3320.0,-7.0,0.0,-16.0
2831.0,2815.0,2898.0,3121.0,2973.0,0.777344,0.019348,-0.628479,-0.02002,-1.0,0.0,-1.0,7673.0,552.0,1649.0,-324.0,99.0,-65.0,-3.0,117.0,-324.0,0.976314,0.055244,0.209304,15250.0,1024.0,3388.0,-10.0,9.0,-10.0
2833.0,2829.0,2898.0,3131.0,2975.0,0.777344,0.019348,-0.628479,-0.020081,-1.0,-1.0,-1.0,7659.0,542.0,1673.0,-338.0,88.0,-41.0,-30.0,106.0,-333.0,0.976311,0.055321,0.209306,15272.0,1028.0,3490.0,-2.0,-9.0,-3.0
2832.0,2822.0,2902.0,3139.0,2983.0,0.777222,0.019409,-0.628601,-0.020081,-1.0,-2.0,0.0,7666.0,539.0,1708.0,-332.0,85.0,-3.0,-65.0,103.0,-320.0,0.976345,0.055416,0.208961,15478.0,1034.0,3468.0,-5.0,-33.0,11.0
2823.0,2813.0,2879.0,3127.0,2981.0,0.777161,0.019348,-0.628662,-0.020081,-1.0,-2.0,0.0,7696.0,517.0,1715.0,-302.0,63.0,4.0,-66.0,79.0,-290.0,0.976366,0.055321,0.208791,15524.0,928.0,3418.0,0.0,-24.0,17.0
2831.0,2811.0,2896.0,3123.0,2971.0,0.7771,0.019348,-0.628784,-0.019958,0.0,-1.0,0.0,7689.0,499.0,1694.0,-310.0,47.0,-14.0,-50.0,64.0,-303.0,0.976484,0.05517,0.208538,15266.0,996.0,3302.0,4.0,-13.0,11.0
2831.0,2815.0,2895.0,3135.0,2991.0,0.777039,0.019287,-0.628845,-0.019958,-1.0,-2.0,0.0,7663.0,482.0,1681.0,-336.0,30.0,-25.0,-45.0,48.0,-331.0,0.976504,0.055075,0.208369,15168.0,820.0,3318.0,-10.0,-23.0,15.0
2831.0,2820.0,2903.0,3139.0,2983.0,0.776917,0.019104,-0.629028,-0.019897,-1.0,-1.0,0.0,7670.0,426.0,1639.0,-330.0,-22.0,-64.0,-6.0,-3.0,-336.0,0.976645,0.054717,0.207954,15342.0,724.0,3154.0,-5.0,-11.0,3.0
2832.0,2815.0,2887.0,3121.0,2975.0,0.776855,0.019043,-0.629089,-0.019958,-1.0,-1.0,-1.0,7665.0,427.0,1624.0,-335.0,-21.0,-78.0,6.0,-2.0,-344.0,0.976663,0.054699,0.207787,15276.0,892.0,3198.0,-6.0,-8.0,-10.0
2829.0,2818.0,2899.0,3123.0,2975.0,0.776733,0.018982,-0.629211,-0.020264,-2.0,-1.0,-1.0,7661.0,419.0,1615.0,-340.0,-31.0,-84.0,11.0,-11.0,-351.0,0.97669,0.054988,0.207458,15380.0,748.0,3212.0,-31.0,-18.0,-14.0
2834.0,2819.0,2894.0,3151.0,2971.0,0.776672,0.018921,-0.629272,-0.020386,-2.0,-1.0,-1.0,7677.0,421.0,1616.0,-324.0,-29.0,-82.0,12.0,-10.0,-335.0,0.976706,0.055047,0.207294,15418.0,888.0,3280.0,-23.0,-10.0,-18.0
2831.0,2827.0,2907.0,3139.0,2987.0,0.776611,0.018921,-0.629395,-0.020752,-2.0,-1.0,-1.0,7678.0,456.0,1629.0,-323.0,1.0,-67.0,-1.0,19.0,-329.0,0.976805,0.055511,0.20706,15518.0,1010.0,3368.0,-25.0,-21.0,-19.0
2829.0,2815.0,2896.0,3139.0,2975.0,0.77655,0.018921,-0.629395,-0.020935,-1.0,-1.0,-1.0,7715.0,476.0,1648.0,-286.0,19.0,-47.0,-13.0,35.0,-288.0,0.976721,0.055739,0.206973,15630.0,1084.0,3382.0,-19.0,-3.0,-15.0
2821.0,2814.0,2906.0,3125.0,2975.0,0.776672,0.018921,-0.629272,-0.021179,-1.0,0.0,0.0,7707.0,504.0,1666.0,-293.0,44.0,-32.0,-28.0,60.0,-290.0,0.976676,0.056046,0.207327,15298.0,1090.0,3376.0,-13.0,7.0,1.0
2845.0,2819.0,2895.0,3135.0,2975.0,0.776672,0.01886,-0.629272,-0.021179,-1.0,-1.0,0.0,7684.0,513.0,1668.0,-316.0,54.0,-30.0,-35.0,71.0,-311.0,0.976678,0.055951,0.207329,15178.0,1100.0,3312.0,-6.0,0.0,10.0
2823.0,2815.0,2895.0,3143.0,2975.0,0.77655,0.01886,-0.629395,-0.021179,-1.0,-2.0,0.0,7666.0,546.0,1663.0,-335.0,87.0,-32.0,-37.0,105.0,-328.0,0.976714,0.055951,0.206986,15386.0,1142.0,3310.0,-6.0,-24.0,13.0
2831.0,2810.0,2865.0,3120.0,2990.0,0.776489,0.01886,-0.629456,-0.02124,-1.0,-1.0,0.0,7666.0,541.0,1648.0,-335.0,82.0,-46.0,-23.0,100.0,-332.0,0.97673,0.056029,0.206817,15322.0,994.0,3224.0,-9.0,-17.0,9.0
2831.0,2813.0,2897.0,3135.0,2990.0,0.776428,0.018799,-0.629578,-0.021179,0.0,-1.0,0.0,7663.0,519.0,1601.0,-339.0,61.0,-91.0,19.0,80.0,-346.0,0.976847,0.05586,0.206568,15304.0,1108.0,3098.0,1.0,-2.0,6.0
2830.0,2811.0,2896.0,3147.0,2979.0,0.776367,0.018799,-0.629639,-0.02124,-1.0,-1.0,0.0,7656.0,526.0,1591.0,-346.0,67.0,-99.0,26.0,86.0,-354.0,0.976863,0.055937,0.206399,15260.0,1110.0,3116.0,-9.0,-3.0,7.0
2829.0,2823.0,2889.0,3135.0,2973.0,0.776367,0.018738,-0.629639,-0.021301,-1.0,-1.0,0.0,7668.0,534.0,1589.0,-334.0,75.0,-101.0,30.0,94.0,-342.0,0.976863,0.055919,0.206404,15484.0,1094.0,3178.0,-21.0,-3.0,1.0
2829.0,2821.0,2907.0,3131.0,2987.0,0.776428,0.018555,-0.629578,-0.021423,-1.0,0.0,0.0,7683.0,484.0,1592.0,-319.0,26.0,-100.0,32.0,44.0,-330.0,0.976849,0.055788,0.206587,15286.0,810.0,3194.0,-17.0,16.0,5.0
2831.0,2809.0,2903.0,3151.0,2994.0,0.776489,0.018494,-0.629517,-0.021423,-1.0,0.0,0.0,7680.0,468.0,1613.0,-322.0,11.0,-80.0,11.0,29.0,-330.0,0.976833,0.055693,0.206761,15368.0,850.0,3372.0,-9.0,8.0,11.0
2845.0,2807.0,2895.0,3163.0,2947.0,0.77655,0.018372,-0.629456,-0.021301,-1.0,-1.0,0.0,7667.0,471.0,1668.0,-335.0,17.0,-27.0,-42.0,35.0,-331.0,0.976825,0.055349,0.206932,15360.0,1026.0,3496.0,0.0,-9.0,18.0
2823.0,2821.0,2895.0,3138.0,2975.0,0.776489,0.018372,-0.629456,-0.02124,0.0,-1.0,0.0,7678.0,468.0,1684.0,-323.0,15.0,-10.0,-56.0,33.0,-316.0,0.976751,0.05527,0.206835,15392.0,914.0,3416.0,5.0,-11.0,21.0
2842.0,2827.0,2878.0,3133.0,2966.0,0.776428,0.01825,-0.629578,-0.021057,-1.0,-2.0,1.0,7643.0,506.0,1697.0,-359.0,56.0,4.0,-77.0,75.0,-346.0,0.976875,0.054853,0.206583,15270.0,1106.0,3420.0,-5.0,-38.0,25.0
2832.0,2821.0,2896.0,3141.0,2967.0,0.776306,0.018127,-0.629761,-0.021057,-2.0,-2.0,1.0,7658.0,512.0,1696.0,-345.0,64.0,7.0,-77.0,83.0,-332.0,0.977011,0.054667,0.206167,15418.0,1086.0,3336.0,-23.0,-45.0,28.0
2831.0,2800.0,2899.0,3173.0,2959.0,0.776062,0.0177,-0.630066,-0.021301,-3.0,-2.0,0.0,7684.0,481.0,1652.0,-321.0,36.0,-30.0,-36.0,53.0,-317.0,0.977186,0.054315,0.20543,15450.0,692.0,3110.0,-53.0,-37.0,7.0
2843.0,2811.0,2881.0,3119.0,2963.0,0.77594,0.017456,-0.630188,-0.021423,-2.0,-1.0,-1.0,7708.0,442.0,1627.0,-297.0,-1.0,-53.0,-8.0,15.0,-301.0,0.977228,0.054091,0.2051,15540.0,638.0,3090.0,-39.0,-20.0,-8.0
2838.0,2801.0,2893.0,3120.0,2990.0,0.775879,0.017395,-0.630249,-0.021667,-1.0,0.0,-2.0,7698.0,385.0,1592.0,-307.0,-59.0,-86.0,20.0,-41.0,-320.0,0.97724,0.054305,0.204941,15336.0,624.0,3128.0,-13.0,3.0,-30.0
2847.0,2827.0,2895.0,3139.0,2933.0,0.775879,0.017456,-0.630249,-0.02179,0.0,0.0,-2.0,7701.0,354.0,1586.0,-304.0,-92.0,-92.0,26.0,-74.0,-320.0,0.977233,0.054553,0.204944,15430.0,536.0,3160.0,2.0,4.0,-28.0
2806.0,2798.0,2891.0,3122.0,2959.0,0.77594,0.017639,-0.630188,-0.021912,-1.0,-1.0,-1.0,7649.0,419.0,1600.0,-356.0,-31.0,-80.0,5.0,-10.0,-365.0,0.977203,0.054991,0.205115,15190.0,1054.0,3298.0,-7.0,-6.0,-17.0
2843.0,2822.0,2887.0,3117.0,2987.0,0.775879,0.017578,-0.630249,-0.022034,-1.0,-2.0,-1.0,7632.0,441.0,1608.0,-373.0,-9.0,-70.0,-7.0,11.0,-379.0,0.977219,0.05505,0.204951,15126.0,988.0,3240.0,-22.0,-23.0,-1.0
2833.0,2801.0,2894.0,3127.0,2999.0,0.775635,0.017395,-0.630554,-0.022156,-1.0,-2.0,0.0,7672.0,461.0,1638.0,-334.0,11.0,-34.0,-34.0,29.0,-332.0,0.977389,0.054925,0.204199,15660.0,1020.0,3350.0,-16.0,-40.0,4.0
