flex_1,flex_2,flex_3,flex_4,flex_5,Qw,Qx,Qy,Qz,GYRx,GYRy,GYRz,ACCx,ACCy,ACCz,ACCx_real,ACCy_real,ACCz_real,ACCx_world,ACCy_world,ACCz_world,GRAx,GRAy,GRAz,ACCx_raw,ACCy_raw,ACCz_raw,GYRx_raw,GYRy_raw,GYRz_raw
2864.0,2773.0,2891.0,3143.0,3039.0,1.0,0.0,0.0,0.0,0.0,0.0,0.0,0.0,0.0,0.0,0.0,0.0,0.0,0.0,0.0,0.0,0.0,0.0,0.0,0.0,0.0,0.0,0.0,0.0,0.0
2879.0,2782.0,2918.0,3123.0,3035.0,0.834473,-0.226013,-0.483765,0.13623,-22.0,12.0,-13.0,2402.0,-8941.0,1536.0,-3707.0,-4771.0,-1984.0,-68.0,-6246.0,-1188.0,0.745797,-0.509011,0.429793,6674.0,-21512.0,2592.0,-490.0,292.0,-290.0
2867.0,2767.0,2867.0,3147.0,3059.0,0.833252,-0.236694,-0.481934,0.131958,-34.0,18.0,-20.0,2968.0,-10155.0,1351.0,-3099.0,-5881.0,-2117.0,232.0,-6971.0,-123.0,0.740677,-0.521642,0.423438,7546.0,-23742.0,2164.0,-770.0,416.0,-448.0
2863.0,2779.0,2894.0,3126.0,3055.0,0.831726,-0.249817,-0.480225,0.123169,-53.0,26.0,-34.0,3701.0,-11016.0,1143.0,-2338.0,-6642.0,-2247.0,511.0,-7319.0,892.0,0.737291,-0.533856,0.413915,10102.0,-24136.0,1718.0,-1207.0,598.0,-778.0
2851.0,2767.0,2893.0,3127.0,3027.0,0.830994,-0.257141,-0.47937,0.116028,-64.0,32.0,-45.0,4142.0,-11340.0,1009.0,-1895.0,-6927.0,-2334.0,653.0,-7394.0,1381.0,0.737036,-0.538606,0.408096,10828.0,-24582.0,1150.0,-1455.0,745.0,-1021.0
2851.0,2767.0,2893.0,3121.0,3055.0,0.829468,-0.272827,-0.477783,0.096008,-82.0,41.0,-67.0,4877.0,-11808.0,750.0,-1186.0,-7348.0,-2481.0,728.0,-7511.0,2143.0,0.740224,-0.544345,0.394523,11550.0,-24506.0,812.0,-1866.0,955.0,-1528.0
2865.0,2770.0,2901.0,3135.0,3024.0,0.827637,-0.288879,-0.476196,0.069214,-98.0,46.0,-88.0,5264.0,-11700.0,640.0,-865.0,-7242.0,-2469.0,417.0,-7318.0,2355.0,0.748246,-0.544093,0.379559,11584.0,-22280.0,1118.0,-2231.0,1076.0,-1995.0
2859.0,2771.0,2903.0,3135.0,3023.0,0.826416,-0.296875,-0.475464,0.053345,-106.0,50.0,-96.0,5541.0,-11409.0,683.0,-637.0,-6973.0,-2361.0,231.0,-6978.0,2417.0,0.754188,-0.541412,0.371608,12906.0,-20840.0,1772.0,-2422.0,1150.0,-2187.0
2871.0,2758.0,2907.0,3111.0,3031.0,0.823425,-0.312622,-0.473206,0.01709,-120.0,60.0,-109.0,6048.0,-10488.0,773.0,-248.0,-6137.0,-2148.0,-82.0,-6085.0,2302.0,0.768614,-0.531016,0.356665,13306.0,-17922.0,1828.0,-2737.0,1377.0,-2484.0
2864.0,2767.0,2889.0,3125.0,3027.0,0.819824,-0.327515,-0.469116,-0.023438,-126.0,69.0,-117.0,6342.0,-9251.0,850.0,-84.0,-5031.0,-1978.0,-295.0,-5074.0,1842.0,0.784538,-0.515019,0.345325,13284.0,-14432.0,1800.0,-2879.0,1592.0,-2667.0
2861.0,2758.0,2895.0,3141.0,3043.0,0.817688,-0.334412,-0.466431,-0.0448,-127.0,72.0,-120.0,6374.0,-8512.0,843.0,-120.0,-4374.0,-1952.0,-321.0,-4555.0,1448.0,0.792753,-0.505097,0.341232,12848.0,-12470.0,1634.0,-2905.0,1655.0,-2730.0
2863.0,2759.0,2885.0,3127.0,3055.0,0.812073,-0.346802,-0.460938,-0.088135,-127.0,68.0,-120.0,6231.0,-6942.0,739.0,-402.0,-2993.0,-2001.0,-234.0,-3587.0,447.0,0.80976,-0.482007,0.334495,11834.0,-9284.0,954.0,-2899.0,1560.0,-2739.0
2863.0,2768.0,2907.0,3125.0,3027.0,0.80426,-0.358154,-0.45636,-0.12915,-122.0,58.0,-109.0,6279.0,-5398.0,648.0,-492.0,-1644.0,-2030.0,152.0,-2634.0,-317.0,0.826576,-0.45822,0.326976,13088.0,-6130.0,1040.0,-2778.0,1329.0,-2474.0
2871.0,2778.0,2897.0,3135.0,3027.0,0.795776,-0.367615,-0.451294,-0.167236,-112.0,60.0,-97.0,6662.0,-3797.0,648.0,-229.0,-240.0,-1993.0,920.0,-1643.0,-731.0,0.841215,-0.434133,0.322421,14592.0,-2722.0,1458.0,-2555.0,1396.0,-2219.0
2875.0,2775.0,2895.0,3135.0,3039.0,0.791992,-0.371033,-0.447937,-0.185669,-105.0,67.0,-94.0,6766.0,-2948.0,657.0,-175.0,503.0,-1992.0,1361.0,-1178.0,-1004.0,0.847304,-0.421374,0.323412,13924.0,-670.0,1388.0,-2394.0,1536.0,-2141.0
2866.0,2763.0,2902.0,3149.0,3031.0,0.785461,-0.374329,-0.440002,-0.222046,-91.0,74.0,-93.0,6613.0,-985.0,864.0,-411.0,2231.0,-1860.0,2278.0,-63.0,-1846.0,0.857446,-0.39264,0.33253,12616.0,4470.0,2832.0,-2068.0,1709.0,-2125.0
2863.0,2756.0,2895.0,3143.0,3025.0,0.779907,-0.37262,-0.430847,-0.259277,-85.0,82.0,-93.0,6328.0,1292.0,1690.0,-760.0,4223.0,-1185.0,3255.0,1592.0,-2584.0,0.865265,-0.3578,0.351005,11376.0,9222.0,6754.0,-1931.0,1889.0,-2126.0
2871.0,2766.0,2896.0,3143.0,3043.0,0.77771,-0.370544,-0.425232,-0.277649,-82.0,83.0,-87.0,5970.0,2339.0,2348.0,-1133.0,5126.0,-632.0,3568.0,2547.0,-2956.0,0.867177,-0.340222,0.363796,9522.0,10790.0,8710.0,-1857.0,1923.0,-1983.0
2866.0,2768.0,2861.0,3143.0,2987.0,0.774414,-0.364929,-0.413025,-0.310608,-68.0,75.0,-68.0,5280.0,4088.0,4076.0,-1817.0,6616.0,861.0,3975.0,4610.0,-3278.0,0.866404,-0.308635,0.392432,8860.0,13174.0,14236.0,-1541.0,1723.0,-1539.0
2877.0,2768.0,2891.0,3135.0,3025.0,0.773682,-0.355469,-0.401062,-0.337952,-45.0,65.0,-51.0,4721.0,5670.0,5914.0,-2331.0,7955.0,2427.0,4456.0,6674.0,-3192.0,0.860851,-0.27896,0.425586,7852.0,15816.0,16764.0,-1020.0,1506.0,-1154.0
2866.0,2759.0,2879.0,3149.0,3023.0,0.773804,-0.349915,-0.395996,-0.349243,-37.0,56.0,-42.0,4529.0,6373.0,6588.0,-2493.0,8543.0,2971.0,4787.0,7454.0,-3088.0,0.857257,-0.264933,0.44149,8100.0,16854.0,16908.0,-827.0,1303.0,-952.0
2875.0,2759.0,2899.0,3135.0,3054.0,0.773865,-0.339355,-0.388123,-0.36792,-32.0,40.0,-27.0,4447.0,7461.0,7358.0,-2519.0,9424.0,3520.0,5535.0,8327.0,-2751.0,0.85042,-0.239634,0.46843,9040.0,17392.0,16266.0,-712.0,938.0,-608.0
2863.0,2761.0,2901.0,3135.0,3027.0,0.77356,-0.331787,-0.381531,-0.382141,-32.0,28.0,-10.0,4369.0,7731.0,7562.0,-2543.0,9547.0,3557.0,5803.0,8380.0,-2524.0,0.843853,-0.221717,0.488778,7856.0,15474.0,15218.0,-721.0,660.0,-220.0
2875.0,2771.0,2887.0,3153.0,3013.0,0.77356,-0.329407,-0.378601,-0.386963,-30.0,19.0,0.0,4102.0,7638.0,7432.0,-2784.0,9412.0,3366.0,5716.0,8224.0,-2708.0,0.840677,-0.216622,0.496287,6400.0,14522.0,13800.0,-686.0,436.0,16.0
2864.0,2753.0,2910.0,3127.0,3055.0,0.773376,-0.327637,-0.37561,-0.391785,-21.0,-5.0,15.0,3592.0,6956.0,6763.0,-3270.0,8696.0,2640.0,5210.0,7451.0,-3258.0,0.837703,-0.212456,0.503177,5994.0,11190.0,11140.0,-468.0,-112.0,349.0
2864.0,2751.0,2897.0,3103.0,3047.0,0.773499,-0.327393,-0.375549,-0.391785,-11.0,-13.0,20.0,3451.0,6407.0,6307.0,-3409.0,8145.0,2181.0,4830.0,6872.0,-3485.0,0.837508,-0.212206,0.503572,6154.0,9416.0,9760.0,-246.0,-279.0,479.0
2866.0,2743.0,2897.0,3143.0,2991.0,0.775085,-0.325989,-0.377502,-0.387939,10.0,-17.0,29.0,3184.0,5457.0,5461.0,-3681.0,7197.0,1344.0,4128.0,5881.0,-3938.0,0.838121,-0.212442,0.502478,5438.0,8592.0,8794.0,237.0,-376.0,683.0
2879.0,2755.0,2899.0,3133.0,3034.0,0.778503,-0.322083,-0.380188,-0.381653,22.0,-15.0,33.0,2719.0,4977.0,4933.0,-4144.0,6707.0,808.0,3609.0,5448.0,-4482.0,0.837803,-0.211285,0.503446,3834.0,9032.0,8660.0,526.0,-326.0,760.0
2863.0,2779.0,2879.0,3151.0,3039.0,0.780701,-0.319336,-0.381531,-0.378052,27.0,-13.0,34.0,2482.0,4854.0,4786.0,-4376.0,6575.0,650.0,3402.0,5382.0,-4716.0,0.837174,-0.210135,0.504876,3544.0,9134.0,8676.0,629.0,-286.0,783.0
2871.0,2758.0,2886.0,3139.0,3057.0,0.786377,-0.312439,-0.383911,-0.369629,38.0,-10.0,42.0,2152.0,4599.0,4617.0,-4686.0,6299.0,439.0,2984.0,5288.0,-4995.0,0.834771,-0.20758,0.510008,3364.0,8214.0,8402.0,892.0,-222.0,972.0
2855.0,2763.0,2910.0,3142.0,3035.0,0.790161,-0.308533,-0.385254,-0.363342,49.0,-12.0,53.0,2079.0,4434.0,4482.0,-4745.0,6134.0,281.0,2788.0,5158.0,-5082.0,0.833031,-0.207623,0.512759,3860.0,7908.0,8142.0,1134.0,-274.0,1223.0
2871.0,2739.0,2895.0,3151.0,3019.0,0.799561,-0.300049,-0.389038,-0.345398,69.0,-17.0,77.0,2293.0,4208.0,4179.0,-4501.0,5937.0,-58.0,2624.0,4843.0,-5016.0,0.829391,-0.211069,0.517217,5846.0,8024.0,7566.0,1595.0,-388.0,1769.0
2851.0,2781.0,2879.0,3159.0,2999.0,0.81134,-0.289062,-0.392517,-0.322571,85.0,-5.0,89.0,2925.0,4242.0,3958.0,-3820.0,6010.0,-340.0,2815.0,4641.0,-4620.0,0.823416,-0.215827,0.524698,7842.0,8654.0,6976.0,1962.0,-98.0,2051.0
2871.0,2775.0,2911.0,3126.0,3061.0,0.818054,-0.282532,-0.393188,-0.310486,89.0,5.0,93.0,3245.0,4212.0,3842.0,-3462.0,5998.0,-509.0,2893.0,4514.0,-4412.0,0.818743,-0.218094,0.531193,8326.0,8064.0,7174.0,2039.0,119.0,2148.0
2863.0,2771.0,2895.0,3158.0,3039.0,0.832703,-0.268921,-0.391052,-0.285339,88.0,21.0,100.0,3617.0,3846.0,3670.0,-2975.0,5686.0,-832.0,2731.0,4167.0,-4128.0,0.804728,-0.224697,0.549572,8598.0,5868.0,7182.0,2038.0,490.0,2302.0
2859.0,2770.0,2890.0,3153.0,3055.0,0.840332,-0.262268,-0.38855,-0.272278,89.0,28.0,104.0,3882.0,3304.0,3698.0,-2637.0,5181.0,-893.0,2432.0,3787.0,-3786.0,0.795841,-0.229198,0.560538,9248.0,2870.0,7506.0,2051.0,654.0,2391.0
2878.0,2763.0,2887.0,3123.0,3031.0,0.856689,-0.249451,-0.381287,-0.241882,105.0,29.0,122.0,4122.0,1583.0,3747.0,-2218.0,3573.0,-1043.0,1402.0,2569.0,-3194.0,0.773964,-0.242951,0.584819,9112.0,-2372.0,8222.0,2409.0,680.0,2808.0
2867.0,2759.0,2881.0,3143.0,3038.0,0.873718,-0.234253,-0.373779,-0.204956,131.0,30.0,131.0,4672.0,-264.0,4018.0,-1465.0,1834.0,-985.0,594.0,1192.0,-2168.0,0.749179,-0.256125,0.610805,11256.0,-6012.0,8506.0,3016.0,695.0,3022.0
2865.0,2775.0,2896.0,3133.0,3025.0,0.882263,-0.224976,-0.369873,-0.184875,144.0,34.0,134.0,5172.0,-1293.0,4103.0,-855.0,838.0,-1018.0,429.0,289.0,-1483.0,0.735836,-0.260214,0.625147,13794.0,-9038.0,8906.0,3309.0,782.0,3075.0
2863.0,2773.0,2893.0,3135.0,3021.0,0.899353,-0.2052,-0.359375,-0.140991,157.0,48.0,147.0,6281.0,-3397.0,4523.0,511.0,-1203.0,-862.0,383.0,-1513.0,115.0,0.704273,-0.267757,0.657457,14992.0,-12668.0,10232.0,3615.0,1122.0,3376.0
2875.0,2762.0,2867.0,3115.0,3019.0,0.90741,-0.194885,-0.352783,-0.118896,158.0,52.0,141.0,6592.0,-4314.0,4745.0,967.0,-2103.0,-785.0,422.0,-2302.0,701.0,0.68658,-0.269792,0.675092,14964.0,-14140.0,10880.0,3625.0,1201.0,3232.0
2875.0,2767.0,2893.0,3135.0,3043.0,0.921387,-0.173523,-0.338684,-0.078674,155.0,59.0,112.0,6939.0,-5900.0,5196.0,1602.0,-3717.0,-622.0,610.0,-3722.0,1592.0,0.651422,-0.266472,0.710326,14136.0,-15910.0,11384.0,3566.0,1365.0,2573.0
2870.0,2775.0,2896.0,3131.0,3024.0,0.933472,-0.150391,-0.322449,-0.045471,155.0,73.0,87.0,7162.0,-7584.0,5627.0,2118.0,-5524.0,-491.0,953.0,-5378.0,2326.0,0.61567,-0.251447,0.746846,15330.0,-20382.0,13108.0,3555.0,1684.0,2014.0
2869.0,2775.0,2891.0,3131.0,3025.0,0.939087,-0.139343,-0.312744,-0.030029,151.0,82.0,85.0,7169.0,-8381.0,5981.0,2288.0,-6390.0,-290.0,1086.0,-6141.0,2693.0,0.595757,-0.242928,0.765561,13980.0,-21522.0,14140.0,3467.0,1879.0,1950.0
2863.0,2768.0,2895.0,3139.0,3051.0,0.94928,-0.119141,-0.290955,-0.000488,147.0,87.0,76.0,6343.0,-9823.0,6395.0,1816.0,-7972.0,-177.0,1046.0,-7661.0,2662.0,0.552511,-0.225911,0.802283,6962.0,-18076.0,10536.0,3390.0,1996.0,1759.0
2865.0,2781.0,2895.0,3135.0,3026.0,0.958435,-0.094177,-0.268066,0.024292,158.0,93.0,46.0,5503.0,-10227.0,7765.0,1331.0,-8641.0,896.0,639.0,-8197.0,3101.0,0.509273,-0.193549,0.838459,3938.0,-18282.0,10280.0,3629.0,2138.0,1065.0
2862.0,2768.0,2903.0,3141.0,3039.0,0.961182,-0.084473,-0.260315,0.03363,114.0,42.0,40.0,4923.0,-9521.0,8067.0,870.0,-8047.0,1102.0,358.0,-7658.0,2814.0,0.494738,-0.179896,0.850102,8108.0,-13846.0,20920.0,2625.0,970.0,923.0
2864.0,2772.0,2886.0,3139.0,3027.0,0.964783,-0.072815,-0.248169,0.046997,54.0,41.0,34.0,4643.0,-7938.0,9381.0,776.0,-6595.0,2285.0,-73.0,-6129.0,3425.0,0.472014,-0.163828,0.866125,7760.0,-12980.0,20404.0,1252.0,949.0,784.0
2863.0,2769.0,2895.0,3135.0,3037.0,0.965759,-0.073242,-0.243164,0.052612,18.0,29.0,38.0,4397.0,-7900.0,9595.0,612.0,-6531.0,2460.0,-207.0,-6055.0,3516.0,0.461969,-0.167055,0.870966,7500.0,-16410.0,20672.0,431.0,679.0,885.0
2859.0,2770.0,2885.0,3143.0,3027.0,0.966431,-0.08197,-0.234985,0.063232,3.0,26.0,35.0,4107.0,-9012.0,10095.0,471.0,-7470.0,2918.0,-315.0,-6857.0,4170.0,0.443828,-0.188154,0.876049,7500.0,-22024.0,21342.0,69.0,601.0,821.0
2866.0,2781.0,2887.0,3123.0,3031.0,0.966736,-0.086426,-0.231018,0.067749,6.0,24.0,28.0,3920.0,-9559.0,10032.0,356.0,-7933.0,2836.0,-262.0,-7295.0,4219.0,0.434956,-0.198404,0.878329,6766.0,-22038.0,19670.0,157.0,572.0,662.0
2864.0,2763.0,2887.0,3121.0,3025.0,0.967163,-0.093811,-0.224304,0.073914,5.0,20.0,11.0,3606.0,-9821.0,10041.0,165.0,-8062.0,2817.0,-301.0,-7383.0,4283.0,0.42001,-0.214619,0.881755,5824.0,-19048.0,19704.0,120.0,462.0,261.0
2864.0,2768.0,2895.0,3135.0,3042.0,0.967346,-0.101318,-0.220032,0.074158,-13.0,8.0,-12.0,3162.0,-9363.0,9746.0,-202.0,-7489.0,2515.0,-548.0,-6879.0,3849.0,0.410667,-0.228654,0.882579,5300.0,-17236.0,18658.0,-280.0,198.0,-270.0
2871.0,2773.0,2903.0,3143.0,3039.0,0.967224,-0.105896,-0.219116,0.071838,-22.0,5.0,-25.0,2995.0,-9071.0,9516.0,-352.0,-7134.0,2295.0,-661.0,-6567.0,3565.0,0.408654,-0.236332,0.881457,5046.0,-16384.0,17542.0,-487.0,116.0,-552.0
2865.0,2769.0,2896.0,3143.0,3043.0,0.966858,-0.116211,-0.218506,0.062195,-34.0,7.0,-47.0,2876.0,-8577.0,9157.0,-466.0,-6513.0,1969.0,-825.0,-5977.0,3178.0,0.408073,-0.251899,0.877433,5362.0,-16060.0,17238.0,-769.0,162.0,-1070.0
2869.0,2767.0,2895.0,3147.0,3027.0,0.966675,-0.126404,-0.217224,0.048584,-32.0,6.0,-59.0,2433.0,-8363.0,8577.0,-906.0,-6188.0,1420.0,-1188.0,-5778.0,2514.0,0.407688,-0.26549,0.873656,3188.0,-16020.0,15342.0,-714.0,151.0,-1337.0
2865.0,2768.0,2894.0,3133.0,3031.0,0.966431,-0.130859,-0.217163,0.041199,-30.0,0.0,-63.0,2177.0,-8162.0,8344.0,-1173.0,-5943.0,1205.0,-1441.0,-5595.0,2179.0,0.408964,-0.270827,0.871402,2944.0,-14918.0,15474.0,-665.0,13.0,-1432.0
2863.0,2767.0,2889.0,3131.0,3035.0,0.965393,-0.138733,-0.219299,0.024902,-34.0,-10.0,-72.0,1939.0,-7456.0,7984.0,-1473.0,-5172.0,895.0,-1780.0,-4896.0,1602.0,0.416511,-0.278786,0.865265,3516.0,-11912.0,15316.0,-758.0,-229.0,-1630.0
2863.0,2768.0,2893.0,3135.0,3039.0,0.963379,-0.148132,-0.223328,0.004578,-55.0,-14.0,-87.0,1896.0,-6563.0,7735.0,-1617.0,-4208.0,720.0,-2007.0,-3940.0,1132.0,0.428942,-0.28746,0.856301,4500.0,-11038.0,15764.0,-1245.0,-316.0,-1986.0
2865.0,2771.0,2899.0,3143.0,3039.0,0.961975,-0.153992,-0.225342,-0.007385,-63.0,-9.0,-95.0,1871.0,-6345.0,7523.0,-1699.0,-3945.0,551.0,-2093.0,-3685.0,884.0,0.435821,-0.292944,0.850958,3242.0,-11754.0,12940.0,-1423.0,-206.0,-2174.0
2869.0,2768.0,2895.0,3135.0,3025.0,0.957764,-0.168213,-0.230774,-0.033875,-73.0,-17.0,-108.0,1848.0,-6430.0,7079.0,-1866.0,-3918.0,223.0,-2317.0,-3635.0,541.0,0.45345,-0.306582,0.836907,3860.0,-13508.0,13220.0,-1664.0,-387.0,-2459.0
2870.0,2769.0,2887.0,3141.0,3031.0,0.951782,-0.183899,-0.237854,-0.060547,-75.0,-28.0,-103.0,1868.0,-6782.0,6696.0,-2023.0,-4150.0,-14.0,-2614.0,-3787.0,360.0,0.475039,-0.321261,0.819162,3620.0,-14490.0,11834.0,-1705.0,-624.0,-2351.0
2867.0,2774.0,2897.0,3135.0,3027.0,0.948242,-0.191711,-0.242554,-0.072632,-72.0,-37.0,-98.0,1957.0,-6760.0,6473.0,-2039.0,-4070.0,-153.0,-2650.0,-3697.0,217.0,0.487848,-0.328343,0.808853,4802.0,-13010.0,11780.0,-1634.0,-829.0,-2231.0
2867.0,2768.0,2891.0,3131.0,3039.0,0.940674,-0.204041,-0.253052,-0.097107,-64.0,-29.0,-106.0,2783.0,-5708.0,6299.0,-1441.0,-2965.0,-161.0,-2006.0,-2617.0,122.0,0.515706,-0.334725,0.788629,8662.0,-6472.0,12294.0,-1451.0,-653.0,-2420.0
2864.0,2768.0,2894.0,3135.0,3031.0,0.932983,-0.211426,-0.260681,-0.129883,-72.0,1.0,-139.0,3941.0,-3656.0,6069.0,-493.0,-978.0,-277.0,-634.0,-920.0,-161.0,0.541344,-0.326797,0.774672,11342.0,-924.0,11062.0,-1639.0,40.0,-3169.0
2869.0,2771.0,2897.0,3151.0,3043.0,0.928711,-0.214355,-0.262817,-0.149902,-78.0,15.0,-152.0,4446.0,-2626.0,5698.0,-79.0,-9.0,-609.0,190.0,-285.0,-509.0,0.552428,-0.319355,0.769953,11736.0,1020.0,8932.0,-1784.0,355.0,-3460.0
2867.0,2779.0,2894.0,3143.0,3039.0,0.918518,-0.220154,-0.264771,-0.194275,-93.0,29.0,-164.0,5015.0,-502.0,4679.0,329.0,1968.0,-1570.0,1819.0,753.0,-1602.0,0.571934,-0.301554,0.762847,11142.0,4708.0,6070.0,-2122.0,669.0,-3751.0
2868.0,2775.0,2895.0,3139.0,3035.0,0.906494,-0.227722,-0.264709,-0.237305,-94.0,27.0,-140.0,5083.0,605.0,4098.0,266.0,2957.0,-2096.0,2606.0,1106.0,-2277.0,0.587994,-0.287224,0.756117,9928.0,3682.0,8018.0,-2137.0,625.0,-3188.0
2867.0,2769.0,2893.0,3135.0,3031.0,0.901245,-0.23053,-0.263733,-0.255066,-77.0,28.0,-120.0,5001.0,1062.0,4336.0,143.0,3363.0,-1845.0,2719.0,1504.0,-2252.0,0.592977,-0.280989,0.754602,9324.0,5120.0,10422.0,-1758.0,662.0,-2730.0
2871.0,2767.0,2895.0,3139.0,3043.0,0.893921,-0.227234,-0.260986,-0.284973,-37.0,34.0,-99.0,4586.0,3217.0,5319.0,-297.0,5326.0,-911.0,3444.0,3521.0,-2241.0,0.596113,-0.25751,0.760555,7962.0,15016.0,14172.0,-826.0,790.0,-2260.0
2866.0,2774.0,2896.0,3143.0,3050.0,0.887817,-0.21814,-0.258423,-0.312134,-44.0,32.0,-83.0,4467.0,6032.0,6438.0,-407.0,7883.0,119.0,4946.0,5841.0,-1932.0,0.595042,-0.226011,0.77128,9224.0,19492.0,16446.0,-1003.0,742.0,-1901.0
2875.0,2770.0,2883.0,3147.0,3031.0,0.884766,-0.21521,-0.256226,-0.324402,-56.0,34.0,-69.0,4542.0,6921.0,7139.0,-316.0,8678.0,781.0,5485.0,6621.0,-1443.0,0.593028,-0.214581,0.77608,9444.0,18404.0,18498.0,-1270.0,780.0,-1580.0
2871.0,2771.0,2895.0,3139.0,3039.0,0.880188,-0.213257,-0.248718,-0.343384,-60.0,30.0,-35.0,4393.0,7409.0,8241.0,-393.0,9085.0,1807.0,5677.0,7298.0,-669.0,0.584296,-0.204601,0.785304,8322.0,14740.0,20266.0,-1356.0,707.0,-796.0
2864.0,2767.0,2894.0,3139.0,3031.0,0.879028,-0.212585,-0.244812,-0.349609,-48.0,26.0,-20.0,4263.0,7246.0,8752.0,-480.0,8905.0,2282.0,5452.0,7412.0,-279.0,0.579037,-0.20256,0.789792,7676.0,13254.0,20230.0,-1098.0,613.0,-449.0
2871.0,2765.0,2887.0,3135.0,3031.0,0.878662,-0.209961,-0.240051,-0.355286,-20.0,7.0,7.0,4166.0,6620.0,9311.0,-511.0,8245.0,2785.0,4896.0,7206.0,290.0,0.57104,-0.198396,0.796567,8360.0,11542.0,19802.0,-454.0,171.0,167.0
2865.0,2767.0,2899.0,3131.0,3027.0,0.879639,-0.206726,-0.240601,-0.35437,-11.0,-13.0,21.0,4368.0,6352.0,9513.0,-299.0,7934.0,2969.0,4724.0,7005.0,668.0,0.569798,-0.193165,0.798718,9852.0,11928.0,19172.0,-248.0,-278.0,491.0
2864.0,2767.0,2894.0,3143.0,3045.0,0.879883,-0.205994,-0.242249,-0.353027,-13.0,-19.0,22.0,4620.0,6065.0,9409.0,-63.0,7633.0,2874.0,4656.0,6648.0,795.0,0.571743,-0.19146,0.797704,10908.0,10078.0,17956.0,-279.0,-417.0,519.0
2864.0,2785.0,2911.0,3151.0,3047.0,0.880188,-0.206055,-0.246826,-0.349182,-6.0,-21.0,25.0,5274.0,5010.0,8833.0,535.0,6569.0,2334.0,4367.0,5384.0,910.0,0.578408,-0.190359,0.793277,12418.0,6494.0,15456.0,-130.0,-477.0,584.0
2875.0,2777.0,2878.0,3130.0,3015.0,0.880432,-0.205872,-0.249573,-0.346619,-1.0,-22.0,27.0,5545.0,4551.0,8454.0,775.0,6103.0,1977.0,4257.0,4784.0,857.0,0.582182,-0.189499,0.790636,12676.0,6398.0,14782.0,-3.0,-487.0,621.0
2879.0,2763.0,2891.0,3141.0,3031.0,0.881775,-0.203918,-0.255249,-0.34021,9.0,-21.0,33.0,5902.0,4004.0,8127.0,1077.0,5527.0,1683.0,4054.0,4151.0,930.0,0.588895,-0.185944,0.786535,12356.0,6782.0,15550.0,209.0,-460.0,767.0
2871.0,2774.0,2883.0,3145.0,3015.0,0.882751,-0.203064,-0.258301,-0.335815,9.0,-26.0,41.0,5986.0,3815.0,8185.0,1132.0,5330.0,1761.0,3881.0,4072.0,1065.0,0.592415,-0.185027,0.784068,12440.0,6562.0,16928.0,218.0,-593.0,962.0
2867.0,2758.0,2896.0,3123.0,3047.0,0.885132,-0.20282,-0.266174,-0.323364,11.0,-44.0,58.0,6355.0,3507.0,8543.0,1420.0,5038.0,2185.0,3606.0,4071.0,1609.0,0.602368,-0.186902,0.776038,14706.0,6112.0,18850.0,268.0,-986.0,1348.0
2864.0,2751.0,2885.0,3151.0,3037.0,0.887146,-0.203247,-0.276917,-0.308167,19.0,-53.0,62.0,7162.0,2995.0,8976.0,2110.0,4551.0,2717.0,3391.0,3837.0,2512.0,0.616599,-0.189947,0.764003,16972.0,4040.0,19094.0,437.0,-1196.0,1424.0
2866.0,2765.0,2867.0,3131.0,3058.0,0.888062,-0.203186,-0.283081,-0.299866,25.0,-55.0,63.0,7579.0,2641.0,9138.0,2461.0,4206.0,2935.0,3229.0,3632.0,2955.0,0.624644,-0.191111,0.757153,17498.0,3172.0,19118.0,578.0,-1258.0,1455.0
2863.0,2768.0,2883.0,3127.0,3037.0,0.889771,-0.202637,-0.296753,-0.281372,31.0,-64.0,70.0,8148.0,2040.0,9357.0,2887.0,3626.0,3280.0,2814.0,3386.0,3584.0,0.642117,-0.193604,0.741738,17758.0,2452.0,19708.0,721.0,-1451.0,1615.0
2865.0,2755.0,2881.0,3157.0,3043.0,0.890564,-0.20282,-0.303772,-0.271118,30.0,-67.0,76.0,8271.0,1717.0,9415.0,2937.0,3326.0,3408.0,2510.0,3299.0,3757.0,0.651033,-0.196532,0.733196,17058.0,1332.0,18904.0,688.0,-1530.0,1756.0
2863.0,2763.0,2927.0,3155.0,3039.0,0.891541,-0.205872,-0.318787,-0.247375,28.0,-84.0,91.0,8254.0,834.0,9300.0,2763.0,2549.0,3467.0,1704.0,2984.0,3786.0,0.670278,-0.209366,0.712031,16190.0,-1046.0,18156.0,642.0,-1923.0,2087.0
2847.0,2750.0,2880.0,3127.0,3056.0,0.890747,-0.211365,-0.336792,-0.220093,26.0,-105.0,97.0,8177.0,27.0,9168.0,2499.0,1897.0,3566.0,895.0,2791.0,3737.0,0.693033,-0.228294,0.683767,16392.0,-2378.0,18050.0,597.0,-2395.0,2242.0
2874.0,2768.0,2876.0,3151.0,3039.0,0.889526,-0.215088,-0.34668,-0.205688,23.0,-112.0,100.0,8212.0,-421.0,9078.0,2434.0,1545.0,3612.0,530.0,2640.0,3755.0,0.705244,-0.240037,0.667115,16686.0,-3610.0,17494.0,534.0,-2556.0,2299.0
2867.0,2768.0,2896.0,3141.0,3063.0,0.885498,-0.223755,-0.367188,-0.176086,20.0,-119.0,98.0,8159.0,-1332.0,8723.0,2186.0,854.0,3560.0,-166.0,2264.0,3609.0,0.729088,-0.266956,0.63022,15736.0,-5202.0,16202.0,475.0,-2708.0,2260.0
2883.0,2751.0,2897.0,3151.0,3043.0,0.8797,-0.2323,-0.387634,-0.148132,18.0,-120.0,86.0,7733.0,-2232.0,8096.0,1582.0,175.0,3249.0,-877.0,1722.0,3058.0,0.750826,-0.293866,0.591591,13608.0,-7482.0,13546.0,416.0,-2726.0,1984.0
2879.0,2768.0,2903.0,3171.0,3055.0,0.876038,-0.236633,-0.39801,-0.134583,19.0,-122.0,82.0,7364.0,-2836.0,7469.0,1129.0,-317.0,2790.0,-1171.0,1132.0,2550.0,0.761037,-0.307469,0.571147,12470.0,-9450.0,10834.0,448.0,-2788.0,1887.0
2847.0,2753.0,2878.0,3099.0,3056.0,0.867371,-0.244629,-0.420166,-0.106384,31.0,-130.0,78.0,6540.0,-3911.0,5858.0,142.0,-1166.0,1538.0,-1407.0,-206.0,1312.0,0.780929,-0.33497,0.527267,10310.0,-10378.0,6434.0,712.0,-2955.0,1803.0
2859.0,2771.0,2914.0,3155.0,3045.0,0.856689,-0.25061,-0.444275,-0.077148,35.0,-137.0,75.0,5660.0,-4328.0,4100.0,-892.0,-1371.0,170.0,-1138.0,-1178.0,-137.0,0.79988,-0.36084,0.479683,9184.0,-9312.0,3256.0,820.0,-3134.0,1728.0
2863.0,2770.0,2897.0,3143.0,3027.0,0.850464,-0.253662,-0.456482,-0.062805,30.0,-135.0,74.0,5434.0,-4371.0,3396.0,-1187.0,-1306.0,-327.0,-881.0,-1435.0,-619.0,0.808305,-0.374122,0.454513,9708.0,-8902.0,2790.0,694.0,-3091.0,1715.0
2851.0,2767.0,2899.0,3071.0,3057.0,0.837646,-0.261841,-0.477966,-0.037231,8.0,-114.0,68.0,5031.0,-4397.0,2280.0,-1688.0,-1095.0,-1046.0,-437.0,-1755.0,-1367.0,0.820231,-0.403069,0.406025,8568.0,-9126.0,1592.0,204.0,-2609.0,1580.0
2877.0,2783.0,2901.0,3127.0,3051.0,0.825745,-0.271973,-0.493835,-0.017334,-3.0,-87.0,53.0,4286.0,-4696.0,1455.0,-2472.0,-1156.0,-1529.0,-375.0,-2290.0,-2096.0,0.824993,-0.43204,0.364312,5824.0,-10588.0,768.0,-56.0,-1981.0,1232.0
2882.0,2773.0,2885.0,3163.0,3067.0,0.82074,-0.27655,-0.499878,-0.009094,-1.0,-76.0,45.0,3779.0,-4895.0,1143.0,-2984.0,-1250.0,-1702.0,-468.0,-2627.0,-2498.0,0.825569,-0.44486,0.347338,4452.0,-10956.0,486.0,-3.0,-1718.0,1045.0
2883.0,2779.0,2903.0,3127.0,3054.0,0.8125,-0.283447,-0.509338,0.006226,8.0,-61.0,39.0,2744.0,-5044.0,798.0,-4007.0,-1218.0,-1826.0,-749.0,-3049.0,-3318.0,0.824146,-0.466944,0.320427,2376.0,-9984.0,920.0,199.0,-1380.0,901.0
2855.0,2775.0,2886.0,3131.0,3038.0,0.805725,-0.28894,-0.516541,0.021362,9.0,-55.0,40.0,1780.0,-4887.0,691.0,-4937.0,-891.0,-1761.0,-1045.0,-3166.0,-4141.0,0.820034,-0.487682,0.299349,974.0,-9284.0,1380.0,225.0,-1245.0,917.0
2871.0,2762.0,2896.0,3155.0,3043.0,0.802551,-0.291748,-0.519592,0.028687,7.0,-52.0,39.0,1424.0,-4853.0,756.0,-5270.0,-772.0,-1618.0,-1237.0,-3189.0,-4391.0,0.81726,-0.498096,0.289818,856.0,-9568.0,1946.0,182.0,-1178.0,910.0
2869.0,2768.0,2896.0,3143.0,3013.0,0.796875,-0.297546,-0.524048,0.042603,6.0,-42.0,36.0,998.0,-5005.0,881.0,-5636.0,-754.0,-1360.0,-1533.0,-3342.0,-4545.0,0.809849,-0.518866,0.273665,1026.0,-10644.0,2174.0,150.0,-944.0,843.0
2869.0,2768.0,2891.0,3143.0,3015.0,0.794556,-0.300171,-0.525513,0.048828,6.0,-36.0,31.0,830.0,-5104.0,922.0,-5770.0,-775.0,-1268.0,-1643.0,-3439.0,-4579.0,0.805785,-0.528325,0.267437,598.0,-10794.0,1990.0,160.0,-811.0,726.0
2867.0,2773.0,2887.0,3139.0,3051.0,0.790833,-0.303955,-0.528015,0.058533,7.0,-27.0,14.0,667.0,-5356.0,929.0,-5882.0,-911.0,-1181.0,-1741.0,-3663.0,-4513.0,0.79956,-0.542567,0.257654,1282.0,-11574.0,1806.0,161.0,-614.0,333.0
2865.0,2758.0,2883.0,3135.0,3023.0,0.788086,-0.306396,-0.529968,0.064697,5.0,-18.0,2.0,858.0,-5794.0,825.0,-5660.0,-1276.0,-1227.0,-1643.0,-3949.0,-4107.0,0.795675,-0.551509,0.25052,2544.0,-13174.0,1134.0,131.0,-398.0,57.0
2855.0,2759.0,2892.0,3139.0,3039.0,0.787109,-0.307312,-0.530579,0.067017,7.0,-12.0,-1.0,1005.0,-6093.0,735.0,-5499.0,-1547.0,-1297.0,-1557.0,-4149.0,-3829.0,0.794057,-0.554891,0.248078,2896.0,-14100.0,982.0,164.0,-274.0,-14.0
2863.0,2763.0,2903.0,3122.0,3023.0,0.786316,-0.308655,-0.530396,0.071289,12.0,-3.0,-3.0,1191.0,-6710.0,533.0,-5281.0,-2114.0,-1488.0,-1404.0,-4620.0,-3353.0,0.790109,-0.561023,0.246788,2696.0,-15200.0,510.0,279.0,-68.0,-55.0
2877.0,2755.0,2891.0,3141.0,3027.0,0.028992,-1.21228,1.998352,-1.72052,16158.0,27709.0,6097.0,28609.0,11174.0,-17923.0,-4614.0,2545.0,2573.0,24253.0,4195.0,22707.0,4.055634,-6.946702,-2.502005,3024.0,-16048.0,770.0,277.0,10.0,-19.0
2871.0,2759.0,2871.0,3139.0,3031.0,0.786255,-0.311035,-0.528137,0.078003,10.0,1.0,-2.0,1410.0,-7521.0,435.0,-4995.0,-2839.0,-1601.0,-1324.0,-5159.0,-2681.0,0.781978,-0.571498,0.248609,3602.0,-16770.0,908.0,241.0,41.0,-34.0
2877.0,2759.0,2895.0,3135.0,3015.0,0.78656,-0.313293,-0.52594,0.08075,2.0,7.0,-8.0,1810.0,-7950.0,493.0,-4553.0,-3216.0,-1558.0,-1258.0,-5256.0,-2068.0,0.77677,-0.577787,0.250432,5114.0,-16906.0,1346.0,64.0,175.0,-169.0
2869.0,2771.0,2882.0,3143.0,3025.0,0.786743,-0.314941,-0.52478,0.080505,-6.0,11.0,-13.0,2095.0,-8168.0,536.0,-4254.0,-3416.0,-1519.0,-1221.0,-5263.0,-1696.0,0.775026,-0.580051,0.250863,5956.0,-17800.0,1222.0,-133.0,268.0,-290.0
2883.0,2767.0,2891.0,3147.0,3026.0,0.786499,-0.32074,-0.522217,0.076721,-25.0,18.0,-21.0,2780.0,-9061.0,525.0,-3546.0,-4271.0,-1513.0,-1168.0,-5600.0,-617.0,0.772231,-0.584653,0.248882,7706.0,-21530.0,970.0,-571.0,426.0,-461.0
2871.0,2771.0,2887.0,3135.0,3062.0,0.785706,-0.329407,-0.51886,0.070251,-35.0,25.0,-25.0,3417.0,-10404.0,432.0,-2883.0,-5566.0,-1571.0,-1236.0,-6305.0,685.0,0.76906,-0.590535,0.244544,8676.0,-24856.0,578.0,-792.0,584.0,-567.0
2877.0,2770.0,2882.0,3135.0,3030.0,0.785339,-0.334229,-0.516907,0.066223,-38.0,29.0,-29.0,3740.0,-10998.0,421.0,-2548.0,-6136.0,-1563.0,-1307.0,-6570.0,1306.0,0.767627,-0.593428,0.242242,9430.0,-25352.0,896.0,-854.0,666.0,-649.0
2865.0,2774.0,2895.0,3135.0,3057.0,0.785156,-0.343323,-0.512512,0.054443,-47.0,38.0,-48.0,4270.0,-11631.0,515.0,-2016.0,-6757.0,-1442.0,-1530.0,-6702.0,2128.0,0.767421,-0.59493,0.238895,9926.0,-24304.0,1432.0,-1074.0,893.0,-1094.0
2865.0,2779.0,2867.0,3123.0,3043.0,0.785339,-0.351135,-0.508667,0.034485,-64.0,48.0,-76.0,4861.0,-11633.0,762.0,-1485.0,-6827.0,-1170.0,-1818.0,-6342.0,2578.0,0.774735,-0.586603,0.235909,11634.0,-22752.0,2364.0,-1458.0,1116.0,-1736.0
2868.0,2774.0,2879.0,3159.0,3003.0,0.785095,-0.358582,-0.505005,0.006592,-81.0,56.0,-96.0,5441.0,-11105.0,1032.0,-1016.0,-6438.0,-875.0,-2064.0,-5647.0,2663.0,0.788226,-0.569699,0.232807,12632.0,-19974.0,2968.0,-1855.0,1287.0,-2177.0
2875.0,2777.0,2883.0,3125.0,3023.0,0.784485,-0.362183,-0.503296,-0.009644,-89.0,58.0,-103.0,5768.0,-10638.0,1166.0,-758.0,-6062.0,-726.0,-2107.0,-5154.0,2614.0,0.796641,-0.558546,0.231027,13564.0,-18326.0,3090.0,-2031.0,1334.0,-2337.0
2887.0,2770.0,2883.0,3135.0,3043.0,0.782166,-0.368835,-0.500122,-0.044983,-95.0,57.0,-109.0,6402.0,-9512.0,1452.0,-278.0,-5153.0,-412.0,-2092.0,-4069.0,2420.0,0.815539,-0.531987,0.227645,14334.0,-15426.0,3728.0,-2166.0,1327.0,-2476.0
2878.0,2768.0,2897.0,3123.0,3039.0,0.778625,-0.374023,-0.497498,-0.079773,-90.0,48.0,-105.0,6647.0,-7873.0,1814.0,-188.0,-3751.0,-31.0,-1932.0,-2720.0,1723.0,0.834402,-0.503075,0.225224,13622.0,-9678.0,4952.0,-2052.0,1110.0,-2392.0
2871.0,2743.0,2885.0,3121.0,3015.0,0.776367,-0.375305,-0.496887,-0.097473,-90.0,45.0,-111.0,6744.0,-6728.0,2104.0,-175.0,-2747.0,264.0,-1709.0,-1780.0,1246.0,0.844698,-0.485883,0.224496,14274.0,-6446.0,6122.0,-2040.0,1036.0,-2528.0
2876.0,2753.0,2899.0,3147.0,3063.0,0.771606,-0.374939,-0.495361,-0.136719,-91.0,56.0,-124.0,7093.0,-4718.0,2695.0,-9.0,-1087.0,826.0,-1184.0,-152.0,662.0,0.86697,-0.44316,0.228106,14598.0,-4396.0,6736.0,-2065.0,1304.0,-2827.0
2861.0,2763.0,2879.0,3103.0,3031.0,0.767517,-0.373535,-0.491272,-0.173279,-75.0,50.0,-101.0,6375.0,-3373.0,2927.0,-863.0,-70.0,975.0,-1047.0,591.0,-502.0,0.883571,-0.403135,0.238231,9796.0,-2576.0,6802.0,-1708.0,1158.0,-2295.0
2876.0,2754.0,2901.0,3152.0,3039.0,0.765686,-0.372375,-0.489563,-0.188049,-62.0,39.0,-88.0,6011.0,-2540.0,3229.0,-1277.0,623.0,1235.0,-920.0,1239.0,-1076.0,0.889753,-0.386121,0.243302,10230.0,208.0,8534.0,-1409.0,905.0,-2010.0
2855.0,2768.0,2903.0,3133.0,3039.0,0.763184,-0.367432,-0.487061,-0.213013,-43.0,31.0,-65.0,5972.0,-434.0,4107.0,-1400.0,2460.0,2013.0,-109.0,3073.0,-1614.0,0.899968,-0.353335,0.25559,12154.0,6056.0,10564.0,-975.0,730.0,-1474.0
2885.0,2765.0,2897.0,3119.0,3055.0,0.761292,-0.362183,-0.48407,-0.234375,-47.0,28.0,-46.0,6095.0,2100.0,4757.0,-1333.0,4758.0,2553.0,1356.0,4982.0,-2066.0,0.90681,-0.324545,0.268997,12754.0,11710.0,11232.0,-1066.0,652.0,-1048.0
2859.0,2765.0,2903.0,3119.0,3039.0,0.759888,-0.360229,-0.4823,-0.245422,-55.0,29.0,-45.0,6215.0,3166.0,4944.0,-1238.0,5711.0,2688.0,2106.0,5680.0,-2160.0,0.909804,-0.310734,0.275283,13168.0,12316.0,10830.0,-1254.0,673.0,-1029.0
2879.0,2766.0,2879.0,3159.0,3055.0,0.755554,-0.356262,-0.478455,-0.270752,-62.0,36.0,-66.0,6584.0,4289.0,5189.0,-919.0,6576.0,2827.0,3070.0,6259.0,-1863.0,0.915914,-0.279266,0.288327,14482.0,10500.0,11300.0,-1408.0,844.0,-1504.0
2875.0,2771.0,2863.0,3153.0,3045.0,0.75116,-0.348938,-0.47406,-0.298828,-51.0,43.0,-76.0,6594.0,4540.0,5235.0,-948.0,6513.0,2719.0,3356.0,6071.0,-1606.0,0.920735,-0.240891,0.307048,12420.0,9404.0,10408.0,-1147.0,987.0,-1724.0
2879.0,2771.0,2895.0,3143.0,3042.0,0.749268,-0.34491,-0.472046,-0.311218,-43.0,36.0,-66.0,6363.0,4629.0,5217.0,-1190.0,6456.0,2624.0,3391.0,5964.0,-1706.0,0.922062,-0.223041,0.316469,11176.0,9914.0,10296.0,-972.0,839.0,-1491.0
2865.0,2774.0,2896.0,3151.0,3047.0,0.745483,-0.338379,-0.469788,-0.3302,-33.0,15.0,-41.0,5995.0,4987.0,5147.0,-1573.0,6578.0,2447.0,3627.0,5905.0,-1924.0,0.923903,-0.194264,0.329577,11476.0,11222.0,10074.0,-745.0,356.0,-926.0
2875.0,2779.0,2907.0,3131.0,3027.0,0.741455,-0.334106,-0.469421,-0.343994,-30.0,5.0,-26.0,6061.0,5301.0,4926.0,-1524.0,6714.0,2172.0,4026.0,5703.0,-1839.0,0.925971,-0.172493,0.336104,12454.0,11242.0,8896.0,-687.0,131.0,-581.0
2863.0,2771.0,2907.0,3131.0,3031.0,0.73938,-0.332764,-0.469421,-0.34967,-30.0,3.0,-21.0,6099.0,5368.0,4706.0,-1493.0,6709.0,1938.0,4200.0,5478.0,-1827.0,0.926877,-0.163792,0.337864,12374.0,11062.0,7994.0,-675.0,89.0,-462.0
2858.0,2768.0,2899.0,3127.0,3013.0,0.735657,-0.330811,-0.469238,-0.359436,-26.0,5.0,-12.0,6101.0,5255.0,4106.0,-1502.0,6478.0,1314.0,4389.0,4797.0,-1914.0,0.928207,-0.149404,0.340765,12176.0,9670.0,6248.0,-589.0,122.0,-269.0
2877.0,2765.0,2881.0,3150.0,3026.0,0.734436,-0.330139,-0.46875,-0.36322,-23.0,7.0,-5.0,5987.0,5153.0,3733.0,-1618.0,6336.0,926.0,4445.0,4410.0,-2099.0,0.92836,-0.144413,0.342607,11110.0,9636.0,5192.0,-522.0,173.0,-112.0
2871.0,2775.0,2896.0,3139.0,3031.0,0.733521,-0.329712,-0.467041,-0.367554,-17.0,6.0,15.0,5378.0,4864.0,3041.0,-2220.0,6013.0,204.0,4352.0,3762.0,-2832.0,0.927542,-0.140376,0.346311,8350.0,8816.0,4020.0,-376.0,157.0,345.0
2864.0,2771.0,2887.0,3151.0,3043.0,0.734314,-0.331482,-0.464844,-0.367249,-12.0,2.0,30.0,4670.0,4686.0,2657.0,-2917.0,5877.0,-194.0,4196.0,3514.0,-3623.0,0.926155,-0.145397,0.348128,7602.0,9238.0,4754.0,-265.0,61.0,701.0
2875.0,2767.0,2895.0,3159.0,3031.0,0.735107,-0.332214,-0.463562,-0.366638,-12.0,4.0,30.0,4409.0,4642.0,2506.0,-3169.0,5858.0,-357.0,4163.0,3426.0,-3926.0,0.925141,-0.148507,0.34955,7560.0,8806.0,4388.0,-261.0,99.0,710.0
2871.0,2770.0,2886.0,3137.0,3031.0,0.738403,-0.332214,-0.459656,-0.364868,-4.0,15.0,36.0,4141.0,4494.0,2486.0,-3405.0,5765.0,-436.0,3997.0,3392.0,-4187.0,0.921252,-0.155189,0.356718,6998.0,8630.0,4632.0,-70.0,357.0,845.0
2871.0,2773.0,2885.0,3135.0,3037.0,0.740784,-0.332275,-0.457153,-0.363037,-2.0,14.0,45.0,3861.0,4431.0,2553.0,-3663.0,5744.0,-405.0,3844.0,3484.0,-4432.0,0.91856,-0.160361,0.36116,5876.0,8468.0,5746.0,-44.0,342.0,1034.0
2871.0,2768.0,2899.0,3143.0,3035.0,0.747498,-0.33374,-0.450867,-0.355835,4.0,8.0,67.0,2944.0,4160.0,2863.0,-4523.0,5618.0,-173.0,3215.0,3847.0,-5187.0,0.911556,-0.178072,0.370708,2876.0,7408.0,6744.0,105.0,202.0,1538.0
2867.0,2773.0,2894.0,3143.0,3039.0,0.751587,-0.334595,-0.447815,-0.35022,12.0,4.0,72.0,2530.0,4000.0,3046.0,-4904.0,5550.0,-26.0,2862.0,4036.0,-5510.0,0.907507,-0.189287,0.375045,2892.0,7054.0,7296.0,275.0,109.0,1658.0
2866.0,2765.0,2886.0,3131.0,3027.0,0.76123,-0.333374,-0.442139,-0.337463,32.0,14.0,71.0,2445.0,3617.0,3447.0,-4912.0,5330.0,278.0,2312.0,4230.0,-5418.0,0.898142,-0.209138,0.386729,5560.0,6024.0,7814.0,751.0,321.0,1648.0
2867.0,2771.0,2896.0,3147.0,3047.0,0.767334,-0.330933,-0.438843,-0.330261,43.0,22.0,76.0,2584.0,3483.0,3566.0,-4723.0,5268.0,323.0,2179.0,4244.0,-5233.0,0.892066,-0.218006,0.395775,5970.0,6296.0,7730.0,989.0,511.0,1744.0
2867.0,2778.0,2895.0,3151.0,3047.0,0.78186,-0.323914,-0.430664,-0.313538,57.0,33.0,90.0,2691.0,3320.0,3779.0,-4489.0,5257.0,344.0,1941.0,4335.0,-5033.0,0.876557,-0.236452,0.41922,5246.0,5782.0,8428.0,1310.0,773.0,2070.0
2867.0,2778.0,2899.0,3147.0,3031.0,0.799744,-0.316467,-0.419678,-0.290161,73.0,31.0,122.0,2310.0,2616.0,3965.0,-4693.0,4767.0,299.0,1082.0,4165.0,-5130.0,0.854922,-0.262637,0.447502,3388.0,2558.0,8456.0,1679.0,724.0,2806.0
2877.0,2763.0,2885.0,3127.0,3027.0,0.809448,-0.313171,-0.414001,-0.274597,82.0,25.0,137.0,2260.0,2131.0,4183.0,-4639.0,4421.0,405.0,560.0,4044.0,-4956.0,0.842217,-0.279625,0.461136,4528.0,1244.0,9874.0,1895.0,575.0,3148.0
2869.0,2769.0,2893.0,3131.0,3031.0,0.829468,-0.304932,-0.402405,-0.238892,103.0,25.0,145.0,2709.0,694.0,4638.0,-3953.0,3263.0,622.0,-452.0,3314.0,-3933.0,0.813255,-0.3136,0.490173,7500.0,-3766.0,10334.0,2364.0,595.0,3334.0
2867.0,2774.0,2886.0,3139.0,3036.0,0.839661,-0.299255,-0.396362,-0.219727,117.0,30.0,143.0,3100.0,-324.0,4669.0,-3430.0,2365.0,518.0,-863.0,2515.0,-3248.0,0.797128,-0.328363,0.506653,8728.0,-7084.0,9278.0,2682.0,704.0,3294.0
2871.0,2769.0,2895.0,3147.0,3043.0,0.860535,-0.283508,-0.383545,-0.178955,151.0,44.0,140.0,4248.0,-2770.0,4638.0,-1990.0,102.0,172.0,-1319.0,366.0,-1457.0,0.761578,-0.350663,0.545061,12486.0,-13358.0,9548.0,3465.0,1013.0,3217.0
2871.0,2770.0,2894.0,3143.0,3031.0,0.881897,-0.261963,-0.367615,-0.136047,169.0,59.0,135.0,5376.0,-5008.0,5178.0,-519.0,-2042.0,324.0,-1429.0,-1479.0,557.0,0.719675,-0.362023,0.592486,13310.0,-15848.0,12666.0,3879.0,1370.0,3110.0
2867.0,2775.0,2899.0,3131.0,3027.0,0.891846,-0.250183,-0.358643,-0.115845,165.0,61.0,124.0,5688.0,-5914.0,5612.0,-27.0,-2939.0,552.0,-1475.0,-2199.0,1389.0,0.697672,-0.363156,0.617593,13048.0,-17112.0,13864.0,3799.0,1409.0,2857.0
2902.0,2767.0,2896.0,3127.0,3039.0,0.90863,-0.226501,-0.341614,-0.080139,157.0,57.0,95.0,6074.0,-7216.0,6241.0,690.0,-4292.0,801.0,-1237.0,-3416.0,2516.0,0.657105,-0.356859,0.664029,13280.0,-17190.0,13974.0,3618.0,1318.0,2191.0
2866.0,2766.0,2891.0,3131.0,3038.0,0.922241,-0.201904,-0.325806,-0.050293,141.0,55.0,81.0,6426.0,-7823.0,6537.0,1336.0,-5040.0,752.0,-521.0,-4246.0,3072.0,0.621252,-0.339637,0.706144,15068.0,-20620.0,16012.0,3235.0,1281.0,1876.0
2871.0,2774.0,2883.0,3139.0,3039.0,0.929871,-0.186523,-0.315002,-0.03595,176.0,94.0,76.0,6824.0,-8061.0,7656.0,1915.0,-5404.0,1659.0,-416.0,-4303.0,4113.0,0.599234,-0.324237,0.731934,13470.0,-17782.0,17468.0,4041.0,2166.0,1745.0
2871.0,2773.0,2896.0,3143.0,3030.0,0.940613,-0.166077,-0.295837,-0.007385,114.0,49.0,88.0,5993.0,-8276.0,8204.0,1413.0,-5752.0,1898.0,-531.0,-4713.0,4022.0,0.55899,-0.308058,0.769706,10566.0,-16360.0,22200.0,2615.0,1139.0,2022.0
2863.0,2775.0,2903.0,3139.0,3039.0,0.947205,-0.154663,-0.280212,0.017334,75.0,33.0,73.0,5172.0,-8682.0,9250.0,867.0,-6202.0,2736.0,-1070.0,-5022.0,4508.0,0.525475,-0.30271,0.795057,8194.0,-19520.0,21034.0,1735.0,770.0,1688.0
2866.0,2767.0,2895.0,3135.0,3031.0,0.948853,-0.152832,-0.274841,0.027649,53.0,19.0,64.0,4837.0,-9041.0,9429.0,633.0,-6540.0,2857.0,-1184.0,-5352.0,4612.0,0.513116,-0.305228,0.80219,7908.0,-20252.0,19682.0,1225.0,455.0,1483.0
2866.0,2773.0,2891.0,3135.0,3039.0,0.950256,-0.153687,-0.267273,0.043579,32.0,20.0,44.0,5017.0,-9966.0,10012.0,965.0,-7382.0,3377.0,-932.0,-5937.0,5540.0,0.494561,-0.315378,0.809832,10726.0,-22818.0,20956.0,735.0,464.0,1030.0
2869.0,2768.0,2896.0,3135.0,3070.0,0.95166,-0.156982,-0.258362,0.054077,21.0,29.0,26.0,4990.0,-10722.0,10164.0,1100.0,-8045.0,3469.0,-642.0,-6459.0,5985.0,0.474767,-0.326731,0.817187,9250.0,-22892.0,20470.0,501.0,685.0,617.0
2867.0,2774.0,2891.0,3139.0,3037.0,0.952515,-0.158569,-0.25354,0.05719,19.0,31.0,15.0,4785.0,-10824.0,10156.0,976.0,-8111.0,3429.0,-642.0,-6528.0,5954.0,0.464864,-0.331079,0.821128,8244.0,-22116.0,20260.0,452.0,722.0,359.0
2869.0,2774.0,2903.0,3139.0,3035.0,0.954041,-0.161499,-0.245239,0.059937,10.0,21.0,-2.0,4063.0,-10351.0,10014.0,388.0,-7585.0,3234.0,-970.0,-6158.0,5410.0,0.448577,-0.337551,0.827561,5828.0,-18318.0,19634.0,232.0,490.0,-28.0
2867.0,2773.0,2879.0,3131.0,3031.0,0.954407,-0.163391,-0.242554,0.059753,0.0,12.0,-8.0,3666.0,-9870.0,9849.0,33.0,-7077.0,3058.0,-1200.0,-5777.0,4961.0,0.443463,-0.34087,0.828934,4958.0,-16740.0,18558.0,14.0,293.0,-179.0
2867.0,2767.0,2895.0,3131.0,3031.0,0.953979,-0.169495,-0.240723,0.057068,-19.0,-5.0,-18.0,2922.0,-9106.0,9420.0,-682.0,-6231.0,2648.0,-1695.0,-5178.0,4075.0,0.439944,-0.350864,0.826658,3708.0,-16378.0,17432.0,-426.0,-103.0,-408.0
2864.0,2775.0,2909.0,3131.0,3039.0,0.952271,-0.177856,-0.242493,0.051697,-29.0,-15.0,-31.0,2410.0,-8528.0,8827.0,-1222.0,-5547.0,2117.0,-2020.0,-4727.0,3210.0,0.443448,-0.363807,0.819056,3884.0,-15192.0,15922.0,-651.0,-323.0,-692.0
2870.0,2779.0,2895.0,3135.0,3027.0,0.951355,-0.182129,-0.243896,0.047302,-32.0,-12.0,-41.0,2281.0,-8244.0,8499.0,-1379.0,-5216.0,1825.0,-2081.0,-4502.0,2798.0,0.446834,-0.369612,0.814657,3794.0,-14898.0,14862.0,-724.0,-254.0,-920.0
2875.0,2771.0,2885.0,3151.0,3029.0,0.949585,-0.190857,-0.246216,0.035095,-36.0,-5.0,-57.0,1968.0,-7978.0,7720.0,-1752.0,-4867.0,1118.0,-2206.0,-4395.0,1953.0,0.454209,-0.379752,0.805895,2920.0,-15512.0,13218.0,-812.0,-111.0,-1290.0
2855.0,2774.0,2903.0,3147.0,3037.0,0.947754,-0.199402,-0.24823,0.019958,-37.0,-5.0,-68.0,1608.0,-7808.0,7096.0,-2181.0,-4630.0,564.0,-2463.0,-4349.0,1236.0,0.462562,-0.387876,0.797257,2212.0,-14962.0,12696.0,-831.0,-102.0,-1541.0
2870.0,2768.0,2903.0,3135.0,3034.0,0.946655,-0.203613,-0.249451,0.011414,-40.0,-6.0,-73.0,1446.0,-7714.0,6846.0,-2384.0,-4509.0,353.0,-2615.0,-4293.0,928.0,0.46764,-0.391197,0.792602,1970.0,-14910.0,12224.0,-902.0,-125.0,-1661.0
2871.0,2767.0,2910.0,3135.0,3047.0,0.943665,-0.213318,-0.252747,-0.007324,-50.0,-9.0,-81.0,1369.0,-7700.0,6337.0,-2564.0,-4432.0,-62.0,-2745.0,-4294.0,488.0,0.480141,-0.398899,0.781171,3318.0,-16216.0,11038.0,-1130.0,-194.0,-1838.0
2869.0,2767.0,2903.0,3134.0,3024.0,0.939636,-0.224731,-0.256592,-0.026062,-55.0,-12.0,-77.0,1210.0,-7561.0,5940.0,-2836.0,-4210.0,-345.0,-2987.0,-4117.0,56.0,0.49392,-0.408957,0.767252,1724.0,-13452.0,11152.0,-1253.0,-271.0,-1760.0
2867.0,2757.0,2891.0,3135.0,3035.0,0.937439,-0.230164,-0.258728,-0.036438,-59.0,-11.0,-87.0,1203.0,-7167.0,5985.0,-2908.0,-3786.0,-242.0,-3107.0,-3631.0,-80.0,0.501857,-0.412674,0.760204,2514.0,-11780.0,12388.0,-1348.0,-241.0,-1987.0
2867.0,2747.0,2919.0,3135.0,3051.0,0.93219,-0.241272,-0.262329,-0.062683,-76.0,-4.0,-111.0,1229.0,-6296.0,5751.0,-3025.0,-2880.0,-359.0,-3121.0,-2724.0,-637.0,0.519328,-0.416935,0.745879,2468.0,-9080.0,10468.0,-1729.0,-72.0,-2542.0
2863.0,2766.0,2900.0,3167.0,3047.0,0.924194,-0.256226,-0.266724,-0.095337,-103.0,2.0,-127.0,1704.0,-5576.0,5527.0,-2734.0,-2112.0,-423.0,-2768.0,-1910.0,-895.0,0.541864,-0.422747,0.726431,5244.0,-9850.0,9912.0,-2340.0,56.0,-2893.0
2877.0,2775.0,2909.0,3151.0,3051.0,0.914612,-0.272339,-0.268494,-0.13092,-102.0,16.0,-129.0,2258.0,-5197.0,4950.0,-2349.0,-1691.0,-845.0,-2227.0,-1643.0,-1195.0,0.562444,-0.427866,0.707398,5982.0,-8928.0,8130.0,-2321.0,370.0,-2945.0
2875.0,2771.0,2895.0,3127.0,3035.0,0.90979,-0.279297,-0.268738,-0.14856,-95.0,19.0,-126.0,2536.0,-4780.0,4674.0,-2149.0,-1270.0,-1056.0,-1848.0,-1378.0,-1423.0,0.571974,-0.428356,0.699561,6808.0,-6550.0,7768.0,-2166.0,449.0,-2877.0
2866.0,2768.0,2894.0,3143.0,3014.0,0.90033,-0.289978,-0.268738,-0.181763,-86.0,25.0,-110.0,3331.0,-3168.0,4457.0,-1496.0,309.0,-1173.0,-587.0,-234.0,-1819.0,0.58932,-0.424459,0.687324,9246.0,-204.0,9084.0,-1949.0,574.0,-2506.0
2874.0,2806.0,2891.0,3151.0,3055.0,0.891479,-0.297302,-0.266357,-0.214233,-91.0,38.0,-105.0,4058.0,-553.0,5083.0,-875.0,2854.0,-498.0,1044.0,1962.0,-2053.0,0.602288,-0.415952,0.681297,10052.0,7374.0,13454.0,-2075.0,873.0,-2389.0
2869.0,2768.0,2883.0,3123.0,3043.0,0.886963,-0.299988,-0.263794,-0.231689,-97.0,45.0,-107.0,4308.0,640.0,5801.0,-664.0,3998.0,223.0,1702.0,3162.0,-1890.0,0.606959,-0.40992,0.680803,9898.0,7854.0,15986.0,-2208.0,1032.0,-2437.0
2870.0,2782.0,2934.0,3163.0,3021.0,0.878967,-0.302307,-0.256531,-0.264954,-72.0,48.0,-94.0,4501.0,1997.0,7268.0,-505.0,5236.0,1651.0,2403.0,4802.0,-1247.0,0.611159,-0.395499,0.685586,9186.0,7464.0,18876.0,-1627.0,1109.0,-2151.0
2847.0,2767.0,2896.0,3159.0,3023.0,0.874878,-0.295959,-0.251526,-0.289307,-26.0,29.0,-63.0,4466.0,3505.0,8687.0,-542.0,6555.0,2966.0,3114.0,6470.0,-700.0,0.611355,-0.372321,0.698252,9226.0,12692.0,22002.0,-592.0,682.0,-1443.0
2875.0,2768.0,2906.0,3143.0,3047.0,0.874023,-0.290466,-0.250854,-0.297974,-16.0,22.0,-47.0,4587.0,4582.0,9372.0,-423.0,7516.0,3593.0,3761.0,7433.0,-416.0,0.611608,-0.358253,0.705407,9874.0,15634.0,22244.0,-350.0,504.0,-1056.0
2867.0,2751.0,2885.0,3134.0,3039.0,0.872498,-0.281982,-0.251404,-0.309998,-28.0,3.0,-19.0,5002.0,6213.0,9936.0,-24.0,8967.0,4081.0,5028.0,8471.0,-112.0,0.613526,-0.336189,0.714633,11616.0,15282.0,20306.0,-629.0,77.0,-432.0
2863.0,2783.0,2896.0,3127.0,3027.0,0.870117,-0.280212,-0.252441,-0.317261,-33.0,-3.0,-4.0,5691.0,5748.0,9698.0,635.0,8430.0,3836.0,5269.0,7633.0,376.0,0.617108,-0.327456,0.715513,13490.0,8094.0,18298.0,-735.0,-61.0,-74.0
2887.0,2770.0,2891.0,3159.0,3007.0,0.869324,-0.28009,-0.252686,-0.319275,-24.0,-1.0,1.0,5905.0,5053.0,9432.0,840.0,7720.0,3571.0,5009.0,6902.0,559.0,0.618183,-0.325626,0.71536,12836.0,5848.0,17224.0,-531.0,-16.0,26.0
2855.0,2768.0,2915.0,3148.0,3027.0,0.869019,-0.277344,-0.253601,-0.321899,0.0,0.0,-3.0,5940.0,3538.0,8622.0,866.0,6149.0,2743.0,4161.0,5336.0,544.0,0.619322,-0.318766,0.717579,11822.0,2542.0,14622.0,9.0,11.0,-53.0
2863.0,2768.0,2891.0,3135.0,3055.0,0.869202,-0.274841,-0.254761,-0.322571,9.0,-2.0,-3.0,5876.0,2857.0,8205.0,795.0,5424.0,2313.0,3713.0,4626.0,456.0,0.620188,-0.313428,0.719123,11266.0,1808.0,14002.0,227.0,-44.0,-52.0
2879.0,2782.0,2879.0,3119.0,3057.0,0.869812,-0.269592,-0.259277,-0.321777,18.0,-17.0,4.0,5684.0,1830.0,7570.0,567.0,4305.0,1670.0,2921.0,3611.0,256.0,0.624542,-0.30213,0.720209,11146.0,946.0,13768.0,422.0,-369.0,92.0
2857.0,2763.0,2893.0,3141.0,2991.0,0.870056,-0.267395,-0.262695,-0.320251,20.0,-25.0,8.0,5757.0,1432.0,7383.0,609.0,3865.0,1492.0,2670.0,3211.0,307.0,0.628387,-0.29704,0.71905,12426.0,560.0,14118.0,464.0,-555.0,185.0
2877.0,2767.0,2883.0,3147.0,3039.0,0.870728,-0.262512,-0.270813,-0.315491,26.0,-26.0,14.0,6343.0,969.0,7389.0,1122.0,3314.0,1528.0,2558.0,2700.0,859.0,0.637249,-0.286275,0.715448,14648.0,1258.0,15114.0,606.0,-593.0,335.0
2861.0,2771.0,2910.0,3147.0,3031.0,0.871338,-0.259827,-0.27478,-0.312683,26.0,-25.0,17.0,6668.0,923.0,7505.0,1414.0,3224.0,1656.0,2617.0,2624.0,1183.0,0.64134,-0.280955,0.713986,15266.0,1628.0,15800.0,611.0,-557.0,412.0
2871.0,2783.0,2901.0,3117.0,3029.0,0.872925,-0.254761,-0.282166,-0.305786,26.0,-26.0,26.0,7128.0,796.0,7779.0,1816.0,3025.0,1954.0,2578.0,2564.0,1743.0,0.648423,-0.272209,0.710982,15258.0,916.0,16164.0,606.0,-576.0,604.0
2855.0,2767.0,2865.0,3141.0,3023.0,0.873779,-0.252563,-0.286072,-0.301392,28.0,-31.0,30.0,7270.0,648.0,7938.0,1927.0,2851.0,2132.0,2433.0,2541.0,2000.0,0.652168,-0.26893,0.708702,15358.0,266.0,17030.0,648.0,-697.0,701.0
2867.0,2762.0,2879.0,3127.0,3031.0,0.875671,-0.24884,-0.295532,-0.289734,33.0,-48.0,42.0,7446.0,272.0,8341.0,2024.0,2439.0,2594.0,1958.0,2572.0,2513.0,0.661773,-0.264553,0.701485,15522.0,-496.0,17974.0,770.0,-1093.0,971.0
2865.0,2769.0,2883.0,3139.0,3011.0,0.876404,-0.247375,-0.301575,-0.282349,36.0,-58.0,47.0,7631.0,107.0,8606.0,2156.0,2263.0,2907.0,1747.0,2635.0,2867.0,0.668295,-0.263303,0.695662,16472.0,-746.0,18830.0,839.0,-1307.0,1095.0
2875.0,2768.0,2887.0,3123.0,3039.0,0.877625,-0.244812,-0.31543,-0.265137,40.0,-69.0,56.0,8105.0,-217.0,9209.0,2505.0,1932.0,3629.0,1313.0,2816.0,3676.0,0.683475,-0.262442,0.681093,17544.0,-1470.0,19928.0,925.0,-1574.0,1286.0
2871.0,2768.0,2899.0,3135.0,3043.0,0.878418,-0.24231,-0.330627,-0.245605,45.0,-79.0,60.0,8357.0,-655.0,9410.0,2623.0,1501.0,3971.0,787.0,2767.0,4076.0,0.699883,-0.26329,0.663912,16984.0,-2608.0,18700.0,1052.0,-1793.0,1385.0
2875.0,2775.0,2895.0,3135.0,3023.0,0.878357,-0.241333,-0.339233,-0.234863,48.0,-87.0,63.0,8341.0,-872.0,9264.0,2530.0,1295.0,3911.0,527.0,2652.0,4007.0,0.709297,-0.264606,0.653351,16630.0,-3054.0,17562.0,1101.0,-1987.0,1449.0
2875.0,2771.0,2901.0,3127.0,3024.0,0.876892,-0.240479,-0.358765,-0.210815,48.0,-104.0,72.0,8541.0,-1199.0,8907.0,2556.0,1016.0,3771.0,231.0,2464.0,3956.0,0.730589,-0.270481,0.626841,18052.0,-3136.0,16656.0,1110.0,-2369.0,1672.0
2873.0,2775.0,2887.0,3131.0,3029.0,0.873413,-0.241821,-0.380127,-0.184814,39.0,-114.0,77.0,8901.0,-1404.0,8496.0,2729.0,905.0,3629.0,127.0,2400.0,3956.0,0.7534,-0.281914,0.594033,19004.0,-3688.0,15860.0,894.0,-2592.0,1774.0
2864.0,2757.0,2886.0,3135.0,3031.0,0.870789,-0.24353,-0.390991,-0.171997,33.0,-116.0,75.0,9085.0,-1606.0,8316.0,2820.0,766.0,3600.0,16.0,2333.0,4007.0,0.764714,-0.289628,0.575675,19254.0,-4480.0,15600.0,761.0,-2647.0,1734.0
2879.0,2779.0,2871.0,3155.0,3023.0,0.864319,-0.247559,-0.411987,-0.148071,28.0,-112.0,65.0,9278.0,-2139.0,7918.0,2843.0,367.0,3511.0,-321.0,2089.0,4009.0,0.785489,-0.305932,0.537953,18448.0,-6064.0,14256.0,648.0,-2554.0,1502.0
2864.0,2763.0,2886.0,3152.0,3029.0,0.86084,-0.249268,-0.421997,-0.13678,29.0,-111.0,61.0,9082.0,-2429.0,7492.0,2571.0,140.0,3235.0,-508.0,1814.0,3680.0,0.794733,-0.313718,0.519538,16740.0,-6488.0,12194.0,682.0,-2529.0,1418.0
2865.0,2773.0,2895.0,3135.0,3035.0,0.852661,-0.252197,-0.443054,-0.114441,30.0,-118.0,54.0,8397.0,-2692.0,6458.0,1734.0,0.0,2523.0,-752.0,1390.0,2621.0,0.813274,-0.328671,0.480227,14298.0,-5850.0,9616.0,700.0,-2690.0,1254.0
2866.0,2759.0,2890.0,3143.0,3023.0,0.842346,-0.255371,-0.465393,-0.093018,25.0,-125.0,51.0,7447.0,-2843.0,5193.0,634.0,-27.0,1618.0,-853.0,864.0,1242.0,0.831552,-0.343642,0.436394,12012.0,-6148.0,6358.0,576.0,-2844.0,1188.0
2870.0,2781.0,2897.0,3121.0,3043.0,0.836304,-0.257751,-0.476929,-0.08197,22.0,-129.0,55.0,6987.0,-2934.0,4478.0,105.0,-42.0,1101.0,-792.0,536.0,556.0,0.83997,-0.352929,0.412226,11254.0,-6434.0,4656.0,506.0,-2932.0,1279.0
2875.0,2781.0,2924.0,3151.0,3025.0,0.822754,-0.26416,-0.499878,-0.058594,17.0,-130.0,62.0,6204.0,-2972.0,3235.0,-787.0,108.0,280.0,-571.0,98.0,-611.0,0.853509,-0.376098,0.360699,10340.0,-5708.0,3158.0,410.0,-2957.0,1434.0
2855.0,2757.0,2907.0,3139.0,3031.0,0.815918,-0.267456,-0.510437,-0.047241,15.0,-121.0,62.0,5895.0,-2895.0,2747.0,-1135.0,285.0,-4.0,-435.0,18.0,-1086.0,0.858219,-0.388217,0.335875,9986.0,-5276.0,2678.0,355.0,-2760.0,1429.0
2860.0,2767.0,2909.0,3139.0,3003.0,0.804138,-0.274475,-0.526611,-0.026855,8.0,-87.0,60.0,5215.0,-2779.0,1942.0,-1843.0,605.0,-472.0,-224.0,-161.0,-1977.0,0.861679,-0.413147,0.294703,7942.0,-5296.0,1650.0,185.0,-1974.0,1389.0
2852.0,2770.0,2901.0,3111.0,3039.0,0.795776,-0.282898,-0.5354,-0.010071,-2.0,-56.0,56.0,3786.0,-2857.0,1167.0,-3241.0,743.0,-1017.0,-284.0,-774.0,-3377.0,0.857816,-0.439463,0.266677,2060.0,-6430.0,-42.0,-29.0,-1266.0,1289.0
2847.0,2771.0,2906.0,3123.0,3055.0,0.792053,-0.287781,-0.53833,-0.002502,-4.0,-53.0,52.0,2819.0,-3092.0,827.0,-4178.0,620.0,-1259.0,-489.0,-1338.0,-4170.0,0.854212,-0.453181,0.254737,-114.0,-7838.0,-202.0,-83.0,-1193.0,1214.0
2849.0,2775.0,2864.0,3135.0,3037.0,0.784302,-0.297729,-0.544128,0.013367,0.0,-57.0,50.0,1406.0,-3768.0,434.0,-5520.0,176.0,-1454.0,-943.0,-2417.0,-5087.0,0.845562,-0.481566,0.230589,-302.0,-9580.0,178.0,6.0,-1291.0,1168.0
2895.0,2767.0,2879.0,3119.0,3026.0,0.780457,-0.302063,-0.546936,0.021667,4.0,-55.0,49.0,1061.0,-4052.0,366.0,-5825.0,4.0,-1429.0,-1094.0,-2758.0,-5211.0,0.84063,-0.495196,0.219201,368.0,-9660.0,376.0,107.0,-1250.0,1144.0
2851.0,2767.0,2894.0,3111.0,3031.0,0.774109,-0.308533,-0.551575,0.037109,10.0,-44.0,38.0,819.0,-4341.0,413.0,-5989.0,-92.0,-1235.0,-1271.0,-2996.0,-5177.0,0.831059,-0.518613,0.201195,1508.0,-9474.0,1244.0,237.0,-988.0,891.0
2870.0,2758.0,2895.0,3147.0,3015.0,0.770569,-0.312256,-0.553528,0.048645,13.0,-21.0,22.0,927.0,-4780.0,560.0,-5812.0,-396.0,-1014.0,-1434.0,-3195.0,-4764.0,0.822683,-0.535082,0.192246,2390.0,-11260.0,1620.0,299.0,-481.0,518.0
2885.0,2767.0,2895.0,3143.0,3051.0,0.770081,-0.313416,-0.553101,0.053101,15.0,-10.0,17.0,953.0,-5126.0,636.0,-5752.0,-690.0,-934.0,-1556.0,-3411.0,-4513.0,0.818579,-0.54145,0.191694,1822.0,-12440.0,1644.0,344.0,-217.0,405.0
2864.0,2769.0,2880.0,3154.0,3035.0,0.770691,-0.314941,-0.550598,0.061279,20.0,-2.0,9.0,648.0,-5887.0,712.0,-5988.0,-1357.0,-888.0,-1867.0,-4091.0,-4273.0,0.810083,-0.552925,0.195373,170.0,-14002.0,1432.0,464.0,-42.0,224.0
2859.0,2775.0,2869.0,3155.0,3013.0,0.770996,-0.315186,-0.5495,0.065369,22.0,-6.0,7.0,569.0,-6227.0,767.0,-6034.0,-1657.0,-850.0,-1990.0,-4363.0,-4107.0,0.806117,-0.557854,0.197416,908.0,-14394.0,1940.0,508.0,-125.0,164.0
2868.0,2779.0,2859.0,3123.0,3007.0,0.771118,-0.315186,-0.54834,0.073181,20.0,-11.0,2.0,709.0,-6773.0,894.0,-5840.0,-2133.0,-744.0,-2098.0,-4666.0,-3610.0,0.799538,-0.566347,0.19996,2204.0,-15256.0,2158.0,463.0,-247.0,65.0
2863.0,2757.0,2869.0,3123.0,3039.0,0.770508,-0.315247,-0.548279,0.079346,14.0,-11.0,-5.0,1185.0,-7384.0,1012.0,-5326.0,-2691.0,-626.0,-2097.0,-4864.0,-2817.0,0.794879,-0.572807,0.199988,4132.0,-16550.0,2328.0,326.0,-241.0,-99.0
2875.0,2773.0,2881.0,3143.0,3031.0,0.770264,-0.31543,-0.548218,0.081299,9.0,-7.0,-10.0,1483.0,-7723.0,1059.0,-5015.0,-3012.0,-578.0,-2080.0,-4964.0,-2361.0,0.793256,-0.575067,0.199877,4714.0,-17556.0,2438.0,226.0,-155.0,-209.0
2862.0,2775.0,2919.0,3127.0,3025.0,0.770264,-0.316406,-0.547546,0.082581,1.0,2.0,-21.0,1897.0,-8514.0,1090.0,-4584.0,-3780.0,-550.0,-2109.0,-5361.0,-1552.0,0.791252,-0.577866,0.200206,4814.0,-19568.0,2286.0,40.0,56.0,-465.0
2863.0,2775.0,2895.0,3151.0,3051.0,0.770935,-0.317566,-0.546204,0.080444,-4.0,10.0,-33.0,2160.0,-9278.0,1084.0,-4320.0,-4546.0,-567.0,-2193.0,-5832.0,-906.0,0.791082,-0.577523,0.201626,5082.0,-20670.0,2150.0,-89.0,230.0,-751.0
2867.0,2751.0,2898.0,3139.0,3051.0,0.771484,-0.318115,-0.545471,0.078125,-7.0,12.0,-38.0,2291.0,-9571.0,1082.0,-4196.0,-4851.0,-577.0,-2232.0,-6006.0,-645.0,0.791939,-0.576072,0.202556,5386.0,-20730.0,2166.0,-156.0,291.0,-864.0
2864.0,2737.0,2891.0,3139.0,3037.0,0.772339,-0.319763,-0.544189,0.071411,-18.0,14.0,-44.0,2559.0,-9965.0,1067.0,-3953.0,-5282.0,-597.0,-2297.0,-6208.0,-244.0,0.794928,-0.571653,0.203216,6052.0,-21052.0,2136.0,-396.0,325.0,-1004.0
2878.0,2775.0,2896.0,3125.0,3053.0,0.772339,-0.323486,-0.543091,0.062195,-32.0,18.0,-47.0,2972.0,-10407.0,1059.0,-3570.0,-5760.0,-585.0,-2392.0,-6359.0,298.0,0.798662,-0.567237,0.200784,7362.0,-22234.0,2084.0,-713.0,420.0,-1064.0
2871.0,2775.0,2899.0,3135.0,3027.0,0.772278,-0.326355,-0.542114,0.056519,-38.0,23.0,-48.0,3169.0,-10668.0,983.0,-3388.0,-6036.0,-648.0,-2417.0,-6493.0,571.0,0.800435,-0.565352,0.199212,7404.0,-22912.0,1392.0,-869.0,533.0,-1094.0
2875.0,2770.0,2905.0,3139.0,3039.0,0.771973,-0.333618,-0.539429,0.042358,-53.0,32.0,-58.0,3593.0,-11052.0,881.0,-2998.0,-6458.0,-720.0,-2524.0,-6610.0,1068.0,0.804585,-0.560787,0.195452,8850.0,-22924.0,1670.0,-1208.0,754.0,-1311.0
2864.0,2774.0,2891.0,3135.0,3039.0,0.771667,-0.341553,-0.536072,0.021912,-71.0,44.0,-75.0,4283.0,-11067.0,918.0,-2371.0,-6556.0,-654.0,-2634.0,-6297.0,1558.0,0.81237,-0.550623,0.19192,10748.0,-21560.0,2086.0,-1608.0,1028.0,-1708.0
2862.0,2759.0,2896.0,3139.0,3024.0,0.771484,-0.345581,-0.53418,0.00885,-80.0,50.0,-85.0,4616.0,-10910.0,951.0,-2085.0,-6464.0,-609.0,-2687.0,-6036.0,1686.0,0.818106,-0.542676,0.190492,11136.0,-20778.0,2056.0,-1823.0,1147.0,-1940.0
2859.0,2753.0,2883.0,3131.0,3031.0,0.770203,-0.353394,-0.530457,-0.022461,-96.0,57.0,-103.0,5334.0,-10285.0,1112.0,-1489.0,-6020.0,-423.0,-2775.0,-5257.0,1814.0,0.832993,-0.52054,0.187445,13058.0,-18100.0,3046.0,-2180.0,1321.0,-2341.0
2871.0,2765.0,2883.0,3135.0,3037.0,0.768799,-0.359924,-0.525269,-0.059448,-105.0,69.0,-112.0,5918.0,-8957.0,1435.0,-1048.0,-4935.0,-114.0,-2692.0,-3992.0,1510.0,0.850445,-0.490966,0.189133,13246.0,-12926.0,4036.0,-2383.0,1602.0,-2565.0
2875.0,2775.0,2882.0,3149.0,3039.0,0.768005,-0.362488,-0.521973,-0.07959,-107.0,74.0,-115.0,6071.0,-7996.0,1686.0,-969.0,-4115.0,110.0,-2570.0,-3159.0,1137.0,0.859456,-0.473698,0.192314,12906.0,-10006.0,4942.0,-2435.0,1699.0,-2633.0
2871.0,2775.0,2899.0,3139.0,3031.0,0.766052,-0.365173,-0.514832,-0.121704,-106.0,74.0,-122.0,6014.0,-5587.0,2321.0,-1175.0,-2030.0,656.0,-2118.0,-1202.0,-16.0,0.877662,-0.43417,0.203245,11670.0,-3176.0,7020.0,-2411.0,1702.0,-2788.0
2871.0,2775.0,2901.0,3134.0,3024.0,0.762939,-0.363708,-0.508118,-0.165955,-101.0,70.0,-127.0,5922.0,-2931.0,3273.0,-1418.0,233.0,1477.0,-1429.0,1062.0,-1036.0,0.896044,-0.386326,0.21915,11390.0,2064.0,9294.0,-2297.0,1616.0,-2888.0
2871.0,2768.0,2897.0,3123.0,3027.0,0.760925,-0.361877,-0.504944,-0.187439,-95.0,64.0,-121.0,5868.0,-1660.0,3701.0,-1538.0,1300.0,1831.0,-958.0,2099.0,-1442.0,0.904109,-0.361431,0.228217,11520.0,4176.0,9874.0,-2173.0,1483.0,-2760.0
2871.0,2763.0,2886.0,3127.0,3033.0,0.756836,-0.356201,-0.499207,-0.226196,-75.0,55.0,-102.0,5984.0,782.0,4546.0,-1526.0,3348.0,2515.0,232.0,4059.0,-1824.0,0.916778,-0.313334,0.247879,12414.0,8990.0,11490.0,-1699.0,1268.0,-2327.0
2865.0,2767.0,2887.0,3131.0,3025.0,0.753662,-0.347351,-0.494141,-0.259277,-57.0,48.0,-81.0,6161.0,3315.0,5161.0,-1416.0,5504.0,2945.0,1843.0,5800.0,-1984.0,0.924951,-0.267332,0.270404,13096.0,14142.0,12076.0,-1285.0,1114.0,-1853.0
2865.0,2768.0,2896.0,3139.0,3037.0,0.752319,-0.342651,-0.491516,-0.273987,-54.0,46.0,-70.0,6254.0,4509.0,5448.0,-1342.0,6526.0,3137.0,2665.0,6577.0,-1966.0,0.927318,-0.246229,0.282055,12934.0,16058.0,12574.0,-1232.0,1067.0,-1589.0
2865.0,2773.0,2903.0,3135.0,3031.0,0.749329,-0.335144,-0.485718,-0.300476,-59.0,38.0,-48.0,6358.0,6291.0,5827.0,-1255.0,8014.0,3340.0,4023.0,7575.0,-1838.0,0.92933,-0.210373,0.303536,13200.0,16470.0,12376.0,-1337.0,884.0,-1099.0
2865.0,2775.0,2895.0,3147.0,3039.0,0.746033,-0.331604,-0.479248,-0.322266,-58.0,31.0,-30.0,6582.0,6781.0,5928.0,-1026.0,8303.0,3300.0,4635.0,7572.0,-1437.0,0.928799,-0.185885,0.32078,13680.0,13634.0,11720.0,-1326.0,713.0,-672.0
2867.0,2764.0,2891.0,3135.0,3047.0,0.744629,-0.330627,-0.476013,-0.331177,-53.0,27.0,-23.0,6628.0,6621.0,5808.0,-973.0,8071.0,3118.0,4674.0,7228.0,-1308.0,0.927899,-0.1771,0.328247,13492.0,12000.0,10752.0,-1202.0,635.0,-522.0
2864.0,2768.0,2891.0,3134.0,3024.0,0.742432,-0.329346,-0.470459,-0.345032,-40.0,21.0,-12.0,6658.0,6081.0,5414.0,-926.0,7427.0,2625.0,4573.0,6371.0,-1184.0,0.925837,-0.164387,0.340451,13286.0,10616.0,9528.0,-907.0,488.0,-255.0
2866.0,2769.0,2896.0,3134.0,3027.0,0.741272,-0.32843,-0.465515,-0.354919,-33.0,18.0,-1.0,6467.0,5567.0,4947.0,-1096.0,6848.0,2072.0,4405.0,5580.0,-1356.0,0.923279,-0.156471,0.350881,11948.0,9516.0,8398.0,-745.0,423.0,-1.0
2869.0,2783.0,2896.0,3143.0,3039.0,0.741028,-0.328369,-0.463135,-0.358582,-30.0,16.0,5.0,6282.0,5273.0,4715.0,-1270.0,6538.0,1803.0,4251.0,5211.0,-1540.0,0.921886,-0.154518,0.355383,11464.0,8662.0,8120.0,-674.0,381.0,117.0
2871.0,2768.0,2895.0,3151.0,3047.0,0.741333,-0.328979,-0.458252,-0.363586,-24.0,13.0,14.0,5757.0,4657.0,4273.0,-1768.0,5922.0,1294.0,3850.0,4556.0,-2068.0,0.91866,-0.154538,0.363547,9650.0,7360.0,7418.0,-549.0,314.0,325.0
2870.0,2772.0,2890.0,3131.0,3023.0,0.741882,-0.329346,-0.455933,-0.36499,-20.0,12.0,16.0,5401.0,4288.0,4034.0,-2110.0,5564.0,1025.0,3566.0,4225.0,-2425.0,0.916913,-0.15585,0.367264,8616.0,6284.0,6522.0,-436.0,277.0,383.0
2869.0,2765.0,2891.0,3135.0,3035.0,0.743652,-0.32959,-0.452454,-0.365601,-5.0,7.0,19.0,4838.0,3607.0,3644.0,-2648.0,4912.0,585.0,3027.0,3662.0,-2984.0,0.913933,-0.159366,0.373339,8518.0,5482.0,6336.0,-109.0,183.0,455.0
2879.0,2779.0,2897.0,3147.0,3038.0,0.745178,-0.328552,-0.451294,-0.364929,5.0,9.0,20.0,4724.0,3421.0,3494.0,-2750.0,4734.0,406.0,2905.0,3464.0,-3114.0,0.912385,-0.160279,0.376851,8902.0,5958.0,6072.0,131.0,226.0,478.0
2865.0,2769.0,2906.0,3145.0,3035.0,0.749817,-0.32373,-0.449524,-0.361816,22.0,13.0,28.0,4572.0,3602.0,3320.0,-2869.0,4914.0,155.0,3069.0,3444.0,-3333.0,0.908383,-0.160187,0.386263,8560.0,8568.0,6422.0,510.0,314.0,663.0
2871.0,2771.0,2891.0,3133.0,3037.0,0.75293,-0.320862,-0.448547,-0.359192,23.0,13.0,38.0,4434.0,3893.0,3352.0,-2987.0,5211.0,142.0,3240.0,3663.0,-3489.0,0.905951,-0.160944,0.391775,7972.0,9564.0,7032.0,541.0,317.0,880.0
2869.0,2768.0,2885.0,3127.0,3031.0,0.76062,-0.317383,-0.444641,-0.350769,18.0,12.0,65.0,4082.0,4244.0,3512.0,-3283.0,5643.0,209.0,3331.0,4108.0,-3831.0,0.899062,-0.170883,0.403144,7024.0,8846.0,7358.0,431.0,296.0,1509.0
2865.0,2771.0,2891.0,3135.0,3035.0,0.770264,-0.317078,-0.438171,-0.337891,18.0,13.0,84.0,3679.0,4074.0,3651.0,-3606.0,5649.0,251.0,2996.0,4295.0,-4189.0,0.88929,-0.192359,0.414944,6188.0,7006.0,7642.0,433.0,306.0,1925.0
2866.0,2775.0,2895.0,3135.0,3035.0,0.775696,-0.317017,-0.434509,-0.3302,25.0,15.0,87.0,3537.0,3753.0,3740.0,-3700.0,5431.0,287.0,2648.0,4254.0,-4260.0,0.883452,-0.204867,0.421438,6290.0,5356.0,7926.0,588.0,344.0,1994.0
2863.0,2779.0,2898.0,3135.0,3035.0,0.787964,-0.315063,-0.42688,-0.312439,41.0,17.0,91.0,3404.0,3048.0,4067.0,-3719.0,4930.0,486.0,1884.0,4190.0,-4154.0,0.869608,-0.229769,0.437014,6594.0,4244.0,9580.0,949.0,402.0,2106.0
2867.0,2773.0,2895.0,3134.0,3039.0,0.794739,-0.312805,-0.422852,-0.302917,48.0,20.0,91.0,3390.0,2777.0,4312.0,-3668.0,4751.0,652.0,1546.0,4236.0,-4014.0,0.861621,-0.241019,0.446718,6730.0,3978.0,10046.0,1119.0,480.0,2085.0
2867.0,2774.0,2897.0,3135.0,3037.0,0.809204,-0.304932,-0.414673,-0.283203,68.0,27.0,86.0,3401.0,2161.0,4610.0,-3511.0,4279.0,759.0,924.0,4070.0,-3712.0,0.843825,-0.258631,0.470078,6902.0,2412.0,9930.0,1566.0,632.0,1992.0
2864.0,2773.0,2914.0,3155.0,3026.0,0.817078,-0.299194,-0.410645,-0.2724,80.0,30.0,87.0,3446.0,1857.0,4701.0,-3386.0,4029.0,738.0,667.0,3910.0,-3535.0,0.834058,-0.265211,0.483671,7300.0,1884.0,9878.0,1848.0,701.0,2013.0
2864.0,2759.0,2883.0,3152.0,3015.0,0.834351,-0.285095,-0.401917,-0.24707,101.0,37.0,106.0,4003.0,1141.0,5025.0,-2645.0,3411.0,811.0,290.0,3471.0,-2674.0,0.811556,-0.277135,0.514368,9928.0,162.0,11612.0,2322.0,869.0,2442.0
2864.0,2771.0,2891.0,3139.0,3033.0,0.843811,-0.277832,-0.396301,-0.231934,104.0,40.0,120.0,4214.0,707.0,5225.0,-2320.0,3042.0,870.0,49.0,3210.0,-2255.0,0.797684,-0.285044,0.531565,9526.0,-1400.0,11644.0,2396.0,929.0,2761.0
2875.0,2775.0,2903.0,3122.0,3015.0,0.862183,-0.265259,-0.38385,-0.197449,104.0,34.0,133.0,4405.0,-466.0,5629.0,-1875.0,2039.0,1003.0,-625.0,2460.0,-1494.0,0.766648,-0.305822,0.564642,8906.0,-4728.0,12000.0,2400.0,796.0,3068.0
2859.0,2774.0,2879.0,3130.0,3023.0,0.878113,-0.25177,-0.372864,-0.162781,114.0,26.0,114.0,4362.0,-1995.0,5657.0,-1673.0,632.0,781.0,-1267.0,1122.0,-970.0,0.7368,-0.320775,0.595164,9504.0,-9834.0,11628.0,2622.0,606.0,2623.0
2877.0,2775.0,2883.0,3135.0,3031.0,0.885193,-0.244446,-0.368042,-0.145691,118.0,25.0,110.0,4669.0,-3036.0,5800.0,-1252.0,-369.0,806.0,-1489.0,223.0,-293.0,0.722803,-0.325523,0.609584,11426.0,-12424.0,12612.0,2721.0,585.0,2536.0
2864.0,2771.0,2896.0,3151.0,3023.0,0.898376,-0.229919,-0.357239,-0.111572,121.0,34.0,105.0,5539.0,-5487.0,6269.0,-139.0,-2755.0,1033.0,-1714.0,-1881.0,1482.0,0.693175,-0.333393,0.639046,13378.0,-18542.0,13836.0,2784.0,792.0,2418.0
2879.0,2757.0,2891.0,3135.0,3023.0,0.910828,-0.21344,-0.343994,-0.080505,123.0,46.0,80.0,5715.0,-7735.0,6129.0,300.0,-5003.0,622.0,-1611.0,-4205.0,2284.0,0.661005,-0.333427,0.6722,7978.0,-22522.0,3728.0,2828.0,1067.0,1855.0
2871.0,2769.0,2891.0,3135.0,3035.0,0.917419,-0.201111,-0.336731,-0.06665,173.0,68.0,59.0,6133.0,-8653.0,7047.0,851.0,-5997.0,1375.0,-1707.0,-4877.0,3444.0,0.644655,-0.324119,0.692267,13570.0,-20876.0,17734.0,3970.0,1571.0,1353.0
2870.0,2765.0,2896.0,3127.0,3035.0,0.928955,-0.176941,-0.322388,-0.041931,133.0,38.0,58.0,5622.0,-9150.0,6716.0,593.0,-6678.0,740.0,-1246.0,-5951.0,2918.0,0.613806,-0.301704,0.729474,11934.0,-17058.0,19096.0,3067.0,878.0,1334.0
2877.0,2783.0,2894.0,3111.0,3021.0,0.936829,-0.161316,-0.30957,-0.022339,80.0,36.0,44.0,5170.0,-8741.0,7881.0,359.0,-6378.0,1685.0,-1579.0,-5486.0,3324.0,0.587236,-0.28842,0.75629,9294.0,-17722.0,19648.0,1838.0,837.0,1016.0
2847.0,2785.0,2891.0,3121.0,3023.0,0.939392,-0.15802,-0.303711,-0.015381,55.0,33.0,35.0,4932.0,-8951.0,8221.0,217.0,-6595.0,1950.0,-1749.0,-5650.0,3513.0,0.575468,-0.287543,0.765483,8408.0,-19356.0,18178.0,1282.0,756.0,812.0
2871.0,2775.0,2875.0,3135.0,3007.0,0.943298,-0.155762,-0.292969,-0.0047,43.0,35.0,25.0,4753.0,-9646.0,8884.0,213.0,-7261.0,2496.0,-1926.0,-6149.0,4177.0,0.554178,-0.291106,0.779741,9084.0,-21376.0,19406.0,1006.0,818.0,574.0
2871.0,2765.0,2879.0,3103.0,3006.0,0.947388,-0.153748,-0.280701,0.005554,42.0,36.0,28.0,4339.0,-9981.0,9359.0,-4.0,-7568.0,2845.0,-2094.0,-6390.0,4488.0,0.530157,-0.294435,0.795143,7008.0,-19884.0,20212.0,977.0,835.0,644.0
2877.0,2771.0,2887.0,3127.0,3022.0,0.949097,-0.153015,-0.274963,0.010254,35.0,30.0,24.0,4053.0,-9822.0,9614.0,-196.0,-7396.0,3045.0,-2243.0,-6200.0,4529.0,0.518796,-0.296091,0.801871,6392.0,-18400.0,20572.0,814.0,701.0,571.0
2859.0,2775.0,2878.0,3135.0,3043.0,0.951233,-0.154297,-0.266541,0.016907,10.0,15.0,13.0,3779.0,-9385.0,9851.0,-332.0,-6906.0,3213.0,-2276.0,-5696.0,4526.0,0.501867,-0.302557,0.810279,7224.0,-17560.0,19922.0,247.0,346.0,317.0
2878.0,2783.0,2903.0,3123.0,3053.0,0.951538,-0.156555,-0.264038,0.018555,0.0,9.0,6.0,3723.0,-9215.0,9788.0,-345.0,-6694.0,3139.0,-2209.0,-5497.0,4436.0,0.496675,-0.307735,0.811543,7002.0,-17392.0,18880.0,5.0,222.0,141.0
2864.0,2771.0,2915.0,3132.0,3029.0,0.951233,-0.162598,-0.261475,0.018433,-11.0,0.0,-12.0,3537.0,-8841.0,9416.0,-488.0,-6227.0,2777.0,-2130.0,-5119.0,3996.0,0.491452,-0.318976,0.810377,6498.0,-16354.0,17744.0,-232.0,16.0,-267.0
2846.0,2743.0,2893.0,3151.0,3035.0,0.950806,-0.16748,-0.260254,0.014221,-11.0,1.0,-27.0,3302.0,-8240.0,9119.0,-713.0,-5570.0,2496.0,-2198.0,-4560.0,3483.0,0.490138,-0.325885,0.808452,5750.0,-14272.0,17752.0,-237.0,29.0,-599.0
2862.0,2783.0,2895.0,3143.0,3046.0,0.950745,-0.169373,-0.259338,0.011047,-11.0,3.0,-31.0,3085.0,-7841.0,9061.0,-924.0,-5155.0,2441.0,-2356.0,-4186.0,3210.0,0.489387,-0.32779,0.808094,4656.0,-13268.0,17702.0,-242.0,83.0,-692.0
2869.0,2767.0,2899.0,3135.0,3039.0,0.950745,-0.172668,-0.257324,0.004272,-13.0,-1.0,-31.0,2358.0,-7015.0,8909.0,-1638.0,-4307.0,2290.0,-2892.0,-3461.0,2474.0,0.487824,-0.330526,0.807903,2216.0,-11620.0,17480.0,-275.0,-11.0,-699.0
2879.0,2781.0,2896.0,3119.0,3045.0,0.950073,-0.176392,-0.257263,-0.00177,-20.0,-19.0,-30.0,1460.0,-6114.0,8757.0,-2549.0,-3375.0,2159.0,-3583.0,-2661.0,1619.0,0.489462,-0.334259,0.805344,502.0,-9432.0,16828.0,-436.0,-419.0,-687.0
2866.0,2775.0,2887.0,3121.0,3023.0,0.949158,-0.178772,-0.259033,-0.005554,-27.0,-28.0,-38.0,1263.0,-5698.0,8695.0,-2781.0,-2941.0,2126.0,-3752.0,-2253.0,1321.0,0.493713,-0.336488,0.801874,1760.0,-9026.0,17074.0,-608.0,-623.0,-865.0
2850.0,2771.0,2881.0,3117.0,3011.0,0.946106,-0.185181,-0.264893,-0.018372,-38.0,-25.0,-66.0,1606.0,-5642.0,8112.0,-2555.0,-2851.0,1632.0,-3380.0,-2227.0,964.0,0.508037,-0.340668,0.790994,5262.0,-12588.0,13632.0,-856.0,-566.0,-1494.0
2871.0,2771.0,2874.0,3131.0,3014.0,0.942566,-0.192078,-0.27063,-0.036804,-40.0,-13.0,-85.0,2021.0,-5771.0,7359.0,-2274.0,-2967.0,972.0,-2931.0,-2447.0,580.0,0.524312,-0.342171,0.779651,5058.0,-11418.0,12964.0,-901.0,-290.0,-1945.0
2879.0,2768.0,2917.0,3127.0,3043.0,0.940674,-0.195679,-0.272888,-0.047913,-47.0,-10.0,-93.0,2233.0,-5987.0,6827.0,-2126.0,-3185.0,483.0,-2665.0,-2771.0,331.0,0.532148,-0.34199,0.774405,6002.0,-13646.0,10468.0,-1055.0,-227.0,-2115.0
2867.0,2771.0,2899.0,3127.0,3047.0,0.93512,-0.207214,-0.278564,-0.070801,-65.0,-15.0,-89.0,2648.0,-6539.0,5956.0,-1860.0,-3687.0,-261.0,-2338.0,-3413.0,61.0,0.550324,-0.348095,0.758925,6564.0,-14982.0,10308.0,-1483.0,-327.0,-2028.0
2879.0,2781.0,2897.0,3139.0,3031.0,0.928223,-0.2229,-0.283691,-0.090637,-77.0,-19.0,-70.0,2723.0,-6617.0,5183.0,-1922.0,-3648.0,-876.0,-2230.0,-3552.0,-415.0,0.567064,-0.362376,0.739647,5626.0,-11774.0,9002.0,-1752.0,-429.0,-1584.0
2875.0,2770.0,2885.0,3119.0,3026.0,0.924622,-0.230835,-0.285767,-0.100464,-81.0,-13.0,-73.0,2730.0,-6116.0,4961.0,-1979.0,-3089.0,-1019.0,-2105.0,-3084.0,-740.0,0.574833,-0.369452,0.730071,5256.0,-8938.0,7852.0,-1851.0,-275.0,-1662.0
2864.0,2763.0,2887.0,3151.0,3025.0,0.915771,-0.247009,-0.290039,-0.127319,-107.0,-4.0,-110.0,3082.0,-4353.0,4107.0,-1785.0,-1251.0,-1706.0,-1098.0,-1795.0,-1797.0,0.594117,-0.378553,0.709711,9122.0,-3214.0,6086.0,-2449.0,-86.0,-2501.0
2883.0,2783.0,2897.0,3143.0,3029.0,0.904236,-0.263489,-0.292664,-0.1651,-118.0,27.0,-130.0,4668.0,-3281.0,2974.0,-380.0,-169.0,-2677.0,813.0,-1615.0,-2016.0,0.616278,-0.379874,0.689822,14094.0,-4206.0,2114.0,-2695.0,621.0,-2977.0
2875.0,2775.0,2883.0,3139.0,3039.0,0.893494,-0.276367,-0.290222,-0.202698,-96.0,53.0,-114.0,5801.0,-2040.0,2507.0,634.0,1041.0,-3053.0,2260.0,-1198.0,-2064.0,0.630661,-0.37621,0.67881,13378.0,1018.0,4588.0,-2197.0,1215.0,-2596.0
2867.0,2767.0,2907.0,3139.0,3051.0,0.889465,-0.280029,-0.286865,-0.219482,-84.0,58.0,-98.0,5884.0,-1072.0,2841.0,696.0,1977.0,-2718.0,2656.0,-379.0,-2139.0,0.633236,-0.372229,0.678613,11930.0,4234.0,8576.0,-1922.0,1347.0,-2234.0
2871.0,2769.0,2887.0,3147.0,3047.0,0.884399,-0.28302,-0.2771,-0.246765,-75.0,55.0,-60.0,5388.0,1936.0,4699.0,228.0,4916.0,-922.0,3405.0,2878.0,-2277.0,0.629812,-0.363848,0.686171,8886.0,14756.0,17230.0,-1704.0,1267.0,-1361.0
2864.0,2763.0,2897.0,3141.0,3025.0,0.879944,-0.284241,-0.267151,-0.27124,-79.0,48.0,-56.0,5295.0,4277.0,7216.0,180.0,7187.0,1516.0,4171.0,5887.0,-1386.0,0.624351,-0.355308,0.69571,11360.0,12086.0,21706.0,-1791.0,1120.0,-1280.0
2861.0,2771.0,2889.0,3143.0,3007.0,0.878113,-0.283691,-0.262085,-0.282471,-65.0,47.0,-51.0,5246.0,4558.0,8097.0,162.0,7426.0,2348.0,4197.0,6507.0,-852.0,0.620549,-0.350163,0.701702,9516.0,10586.0,20342.0,-1477.0,1083.0,-1149.0
2864.0,2771.0,2898.0,3149.0,3022.0,0.876221,-0.279053,-0.254944,-0.29895,-26.0,34.0,-33.0,5303.0,4834.0,9655.0,276.0,7591.0,3803.0,4183.0,7386.0,330.0,0.61362,-0.336593,0.714267,10638.0,10652.0,22658.0,-574.0,779.0,-745.0
2880.0,2768.0,2891.0,3123.0,3018.0,0.876221,-0.274963,-0.252502,-0.304626,-17.0,25.0,-21.0,5233.0,5000.0,10179.0,235.0,7687.0,4270.0,4158.0,7718.0,701.0,0.610018,-0.328019,0.721198,9892.0,11092.0,23406.0,-379.0,586.0,-471.0
2870.0,2799.0,2903.0,3123.0,3046.0,0.876831,-0.268555,-0.249634,-0.310913,-19.0,2.0,-1.0,4843.0,5086.0,10498.0,-111.0,7672.0,4509.0,3915.0,7950.0,806.0,0.604768,-0.315725,0.731061,8658.0,9164.0,20752.0,-416.0,66.0,-6.0
2867.0,2769.0,2896.0,3163.0,3027.0,0.876526,-0.267029,-0.250549,-0.312439,-12.0,-16.0,6.0,4841.0,3731.0,9920.0,-124.0,6283.0,3924.0,3129.0,6662.0,839.0,0.606086,-0.311553,0.731836,10324.0,2336.0,17534.0,-268.0,-362.0,142.0
2870.0,2766.0,2887.0,3141.0,3046.0,0.876221,-0.266479,-0.252441,-0.312256,-3.0,-20.0,3.0,4969.0,2893.0,9462.0,-18.0,5427.0,3477.0,2728.0,5777.0,850.0,0.608808,-0.309337,0.730528,10740.0,814.0,16012.0,-57.0,-442.0,69.0
2863.0,2763.0,2897.0,3147.0,2979.0,0.875427,-0.263245,-0.258362,-0.312317,15.0,-20.0,-8.0,5270.0,1503.0,8465.0,217.0,3956.0,2502.0,2126.0,4103.0,770.0,0.616785,-0.299522,0.727866,11410.0,-402.0,13994.0,359.0,-449.0,-183.0
2875.0,2775.0,2885.0,3121.0,3059.0,0.875183,-0.260437,-0.261841,-0.3125,22.0,-19.0,-10.0,5386.0,1067.0,7973.0,298.0,3460.0,2015.0,1967.0,3440.0,639.0,0.62109,-0.29221,0.727214,11466.0,-228.0,12954.0,507.0,-422.0,-222.0
2863.0,2775.0,2875.0,3095.0,3045.0,0.875061,-0.254089,-0.269226,-0.311768,26.0,-18.0,-1.0,5666.0,708.0,7337.0,508.0,2975.0,1390.0,1931.0,2656.0,505.0,0.629612,-0.276815,0.725887,11918.0,1046.0,13518.0,598.0,-405.0,-6.0
2885.0,2778.0,2897.0,3103.0,3038.0,0.875488,-0.251038,-0.272583,-0.310242,24.0,-20.0,8.0,5703.0,732.0,7260.0,517.0,2947.0,1317.0,1921.0,2599.0,485.0,0.633051,-0.270428,0.725408,11566.0,1662.0,14344.0,569.0,-441.0,188.0
2878.0,2769.0,2865.0,3115.0,3039.0,0.876709,-0.245911,-0.279297,-0.30481,23.0,-28.0,20.0,5837.0,819.0,7578.0,597.0,2956.0,1654.0,1816.0,2806.0,806.0,0.639636,-0.260919,0.723049,12312.0,1954.0,16864.0,548.0,-621.0,477.0
2871.0,2779.0,2901.0,3149.0,3025.0,0.877441,-0.243469,-0.282959,-0.301208,25.0,-31.0,24.0,6006.0,829.0,7923.0,736.0,2932.0,2014.0,1733.0,2968.0,1173.0,0.64323,-0.256801,0.721287,13198.0,1630.0,18034.0,585.0,-705.0,558.0
2869.0,2790.0,2879.0,3139.0,3027.0,0.879395,-0.238159,-0.291199,-0.291748,33.0,-38.0,35.0,6531.0,887.0,8801.0,1197.0,2926.0,2927.0,1605.0,3371.0,2149.0,0.651122,-0.248958,0.716935,14626.0,2236.0,19950.0,769.0,-848.0,821.0
2863.0,2767.0,2865.0,3147.0,3039.0,0.881836,-0.232239,-0.301208,-0.278809,40.0,-49.0,47.0,7068.0,1064.0,9445.0,1655.0,3043.0,3622.0,1564.0,3751.0,2932.0,0.660733,-0.241634,0.710707,15686.0,2386.0,20350.0,930.0,-1105.0,1078.0
2881.0,2763.0,2927.0,3127.0,3051.0,0.882996,-0.229248,-0.307312,-0.270813,46.0,-57.0,53.0,7333.0,1045.0,9657.0,1869.0,2997.0,3873.0,1476.0,3824.0,3266.0,0.666877,-0.238402,0.706026,16278.0,1892.0,20540.0,1060.0,-1284.0,1216.0
2871.0,2746.0,2869.0,3149.0,3047.0,0.885193,-0.223022,-0.321472,-0.251587,51.0,-69.0,66.0,7772.0,1102.0,10033.0,2190.0,3011.0,4349.0,1245.0,4089.0,3807.0,0.681349,-0.233079,0.693779,15442.0,2844.0,18892.0,1187.0,-1573.0,1512.0
2879.0,2778.0,2895.0,3141.0,3015.0,0.885559,-0.221252,-0.329895,-0.240845,47.0,-84.0,69.0,7910.0,968.0,10164.0,2250.0,2876.0,4557.0,968.0,4139.0,4003.0,0.690858,-0.232957,0.684438,17100.0,828.0,22090.0,1093.0,-1910.0,1592.0
2871.0,2767.0,2881.0,3139.0,3051.0,0.885437,-0.21875,-0.347961,-0.216919,54.0,-97.0,76.0,8198.0,10.0,9806.0,2372.0,1946.0,4381.0,334.0,3384.0,4127.0,0.711098,-0.23642,0.662124,17916.0,-3576.0,18444.0,1251.0,-2206.0,1757.0
2879.0,2771.0,2896.0,3143.0,3023.0,0.883972,-0.217041,-0.368591,-0.188599,61.0,-106.0,87.0,8687.0,-914.0,9325.0,2678.0,1090.0,4131.0,-56.0,2604.0,4316.0,0.733516,-0.244685,0.63401,18776.0,-3816.0,17438.0,1414.0,-2428.0,2010.0
2863.0,2767.0,2886.0,3121.0,3047.0,0.88269,-0.216614,-0.379211,-0.173462,58.0,-110.0,91.0,8881.0,-1178.0,9077.0,2781.0,876.0,4010.0,-157.0,2407.0,4331.0,0.744601,-0.250848,0.618509,18924.0,-3886.0,16690.0,1347.0,-2519.0,2099.0
2875.0,2765.0,2902.0,3111.0,3007.0,0.878357,-0.217407,-0.400879,-0.143188,47.0,-117.0,90.0,9103.0,-1587.0,8562.0,2823.0,601.0,3777.0,-368.0,2177.0,4209.0,0.76649,-0.26712,0.584044,18410.0,-4402.0,15510.0,1091.0,-2662.0,2072.0
2871.0,2775.0,2867.0,3155.0,3047.0,0.871765,-0.220215,-0.422363,-0.114624,38.0,-120.0,84.0,8843.0,-2223.0,8011.0,2396.0,129.0,3536.0,-897.0,1779.0,3779.0,0.786887,-0.287125,0.546228,16026.0,-6394.0,13998.0,878.0,-2736.0,1936.0
2866.0,2775.0,2894.0,3135.0,3031.0,0.867676,-0.222473,-0.433105,-0.100525,33.0,-125.0,84.0,8462.0,-2520.0,7553.0,1938.0,-70.0,3244.0,-1146.0,1508.0,3270.0,0.796318,-0.298993,0.525892,14474.0,-6792.0,12050.0,757.0,-2845.0,1925.0
2866.0,2743.0,2893.0,3135.0,3047.0,0.85675,-0.228943,-0.456482,-0.072083,27.0,-139.0,83.0,7707.0,-3217.0,6134.0,1028.0,-542.0,2214.0,-1250.0,622.0,2074.0,0.815188,-0.326485,0.478427,13290.0,-8542.0,7298.0,621.0,-3166.0,1902.0
2877.0,2767.0,2887.0,3135.0,3039.0,0.843079,-0.235168,-0.48175,-0.043335,33.0,-140.0,76.0,7021.0,-3595.0,4373.0,199.0,-688.0,889.0,-804.0,-189.0,787.0,0.832689,-0.354778,0.425272,11810.0,-7440.0,3568.0,756.0,-3199.0,1762.0
2869.0,2761.0,2938.0,3143.0,3031.0,0.835999,-0.237183,-0.493896,-0.029724,34.0,-133.0,70.0,6633.0,-3478.0,3563.0,-247.0,-469.0,289.0,-493.0,-337.0,80.0,0.839894,-0.367207,0.399588,10922.0,-5984.0,2396.0,779.0,-3032.0,1624.0
2869.0,2784.0,2897.0,3121.0,3029.0,0.822571,-0.241455,-0.514832,-0.006104,17.0,-109.0,66.0,5793.0,-3082.0,2285.0,-1169.0,120.0,-609.0,-4.0,-418.0,-1255.0,0.849918,-0.390943,0.353308,8596.0,-5442.0,902.0,396.0,-2492.0,1521.0
2865.0,2779.0,2903.0,3133.0,3029.0,0.815918,-0.245605,-0.523376,0.004639,4.0,-101.0,70.0,5232.0,-3077.0,1732.0,-1745.0,246.0,-983.0,114.0,-634.0,-1912.0,0.851786,-0.405643,0.331499,6988.0,-6326.0,286.0,105.0,-2308.0,1610.0
2867.0,2775.0,2899.0,3147.0,3031.0,0.802612,-0.257202,-0.537659,0.024231,-10.0,-87.0,66.0,4140.0,-3447.0,929.0,-2828.0,148.0,-1442.0,108.0,-1321.0,-2887.0,0.850598,-0.438923,0.289544,5250.0,-8498.0,-30.0,-222.0,-1970.0,1524.0
2867.0,2771.0,2909.0,3141.0,3039.0,0.791382,-0.268066,-0.547913,0.040894,-4.0,-65.0,52.0,3217.0,-4135.0,618.0,-3707.0,-292.0,-1478.0,-221.0,-2138.0,-3374.0,0.845292,-0.469098,0.25589,3652.0,-10406.0,890.0,-89.0,-1469.0,1204.0
2867.0,2763.0,2897.0,3138.0,3014.0,0.787109,-0.272461,-0.551208,0.048523,0.0,-54.0,48.0,2704.0,-4446.0,601.0,-4187.0,-494.0,-1396.0,-485.0,-2519.0,-3624.0,0.841282,-0.482406,0.24383,2242.0,-10658.0,1236.0,19.0,-1226.0,1112.0
2870.0,2757.0,2879.0,3135.0,3043.0,0.780518,-0.279846,-0.555359,0.063354,6.0,-43.0,41.0,1532.0,-4773.0,809.0,-5279.0,-617.0,-1046.0,-1166.0,-3061.0,-4313.0,0.831476,-0.507219,0.226484,-422.0,-10036.0,2480.0,142.0,-965.0,954.0
2869.0,2770.0,2891.0,3147.0,3043.0,0.777954,-0.282776,-0.556763,0.069946,6.0,-38.0,35.0,1044.0,-4816.0,1028.0,-5728.0,-573.0,-775.0,-1537.0,-3183.0,-4609.0,0.826713,-0.51786,0.220158,-670.0,-9894.0,3460.0,139.0,-864.0,806.0
2863.0,2769.0,2898.0,3135.0,3031.0,0.773621,-0.28833,-0.55835,0.081299,2.0,-32.0,28.0,219.0,-5108.0,1379.0,-6474.0,-709.0,-343.0,-2178.0,-3602.0,-4980.0,0.81702,-0.536903,0.21021,-1750.0,-11532.0,3784.0,46.0,-715.0,661.0
2865.0,2769.0,2898.0,3149.0,3030.0,0.769714,-0.293884,-0.559204,0.091858,3.0,-28.0,21.0,-295.0,-5708.0,1638.0,-6904.0,-1160.0,-15.0,-2672.0,-4190.0,-4929.0,0.806864,-0.555149,0.201821,-1516.0,-13276.0,3968.0,85.0,-627.0,493.0
2863.0,2768.0,2891.0,3127.0,3023.0,0.76825,-0.296021,-0.559326,0.096558,6.0,-22.0,16.0,-331.0,-6029.0,1731.0,-6902.0,-1418.0,100.0,-2805.0,-4417.0,-4719.0,0.802238,-0.56285,0.199057,-712.0,-14006.0,3952.0,145.0,-502.0,381.0
2866.0,2773.0,2897.0,3131.0,3031.0,0.76709,-0.299072,-0.557739,0.105042,13.0,-8.0,10.0,-368.0,-6655.0,1687.0,-6862.0,-1936.0,57.0,-2827.0,-4922.0,-4314.0,0.792842,-0.576002,0.198943,-1056.0,-15086.0,2856.0,305.0,-181.0,243.0
2870.0,2768.0,2896.0,3139.0,3059.0,0.767273,-0.301086,-0.554932,0.112549,15.0,-1.0,5.0,-387.0,-7045.0,1408.0,-6807.0,-2236.0,-253.0,-2570.0,-5309.0,-4074.0,0.783794,-0.586945,0.202773,-708.0,-15006.0,1862.0,353.0,-15.0,119.0
2874.0,2769.0,2895.0,3149.0,3039.0,0.767517,-0.302063,-0.553467,0.115479,11.0,1.0,1.0,-338.0,-7227.0,1258.0,-6726.0,-2381.0,-420.0,-2413.0,-5465.0,-3922.0,0.779827,-0.591504,0.20485,-240.0,-15604.0,1680.0,274.0,35.0,26.0
2864.0,2769.0,2902.0,3141.0,3035.0,0.768005,-0.30481,-0.550537,0.118835,1.0,7.0,-7.0,34.0,-7852.0,1021.0,-6299.0,-2944.0,-682.0,-2127.0,-5807.0,-3248.0,0.773187,-0.599037,0.207954,1466.0,-18154.0,1314.0,39.0,179.0,-154.0
2867.0,2769.0,2896.0,3135.0,3035.0,0.768311,-0.306885,-0.548889,0.119507,-3.0,11.0,-10.0,260.0,-8326.0,905.0,-6048.0,-3388.0,-808.0,-2009.0,-6076.0,-2784.0,0.770085,-0.602758,0.209125,1842.0,-19572.0,1100.0,-64.0,264.0,-219.0
2871.0,2767.0,2895.0,3127.0,3029.0,0.768738,-0.31189,-0.545532,0.119019,-11.0,15.0,-18.0,794.0,-9366.0,723.0,-5468.0,-4373.0,-999.0,-1834.0,-6608.0,-1725.0,0.764501,-0.60938,0.210243,3636.0,-21964.0,1052.0,-234.0,353.0,-401.0
2865.0,2763.0,2891.0,3131.0,3031.0,0.769287,-0.317383,-0.542297,0.115479,-18.0,21.0,-28.0,1601.0,-10415.0,550.0,-4633.0,-5388.0,-1172.0,-1617.0,-7002.0,-466.0,0.761063,-0.613564,0.21032,5798.0,-23898.0,540.0,-400.0,490.0,-626.0
2871.0,2769.0,2891.0,3135.0,3031.0,0.769592,-0.320312,-0.540833,0.112244,-23.0,24.0,-34.0,2043.0,-10888.0,443.0,-4187.0,-5854.0,-1275.0,-1495.0,-7152.0,145.0,0.760535,-0.61443,0.209771,6746.0,-24518.0,240.0,-522.0,565.0,-767.0
2871.0,2778.0,2898.0,3147.0,3039.0,0.770508,-0.326599,-0.537903,0.101501,-38.0,35.0,-53.0,2922.0,-11599.0,314.0,-3325.0,-6581.0,-1389.0,-1371.0,-7277.0,1206.0,0.762616,-0.61249,0.207978,8240.0,-24878.0,388.0,-849.0,812.0,-1200.0
2871.0,2774.0,2899.0,3143.0,3035.0,0.772034,-0.332886,-0.535156,0.082642,-56.0,46.0,-81.0,3666.0,-12018.0,312.0,-2652.0,-7082.0,-1372.0,-1507.0,-7283.0,1938.0,0.771297,-0.60245,0.205661,9722.0,-25062.0,1028.0,-1272.0,1075.0,-1839.0
2869.0,2768.0,2886.0,3127.0,3025.0,0.772949,-0.335938,-0.533691,0.070068,-65.0,53.0,-92.0,4038.0,-12144.0,399.0,-2335.0,-7277.0,-1277.0,-1689.0,-7221.0,2245.0,0.777956,-0.594115,0.20468,10236.0,-24934.0,1410.0,-1483.0,1222.0,-2094.0
2875.0,2771.0,2891.0,3130.0,3035.0,0.774536,-0.34259,-0.530212,0.039795,-84.0,62.0,-109.0,4675.0,-12009.0,775.0,-1830.0,-7315.0,-887.0,-2249.0,-6785.0,2557.0,0.794071,-0.572897,0.202997,11312.0,-22946.0,3012.0,-1912.0,1433.0,-2490.0
2866.0,2769.0,2933.0,3135.0,3031.0,0.775513,-0.349121,-0.526001,0.003296,-98.0,68.0,-122.0,5363.0,-11486.0,1363.0,-1301.0,-7021.0,-298.0,-2879.0,-5954.0,2707.0,0.81354,-0.544963,0.202868,12860.0,-21034.0,4620.0,-2240.0,1563.0,-2785.0
2877.0,2771.0,2893.0,3147.0,3039.0,0.775574,-0.352173,-0.523621,-0.016296,-101.0,69.0,-125.0,5726.0,-11021.0,1728.0,-1021.0,-6685.0,60.0,-3143.0,-5340.0,2708.0,0.823691,-0.529206,0.203576,13624.0,-18972.0,5750.0,-2312.0,1593.0,-2847.0
2861.0,2778.0,2899.0,3141.0,3039.0,0.775574,-0.356812,-0.517517,-0.057373,-106.0,75.0,-127.0,6226.0,-9466.0,2712.0,-685.0,-5418.0,994.0,-3553.0,-3585.0,2307.0,0.843688,-0.494084,0.209668,13262.0,-13078.0,8654.0,-2408.0,1722.0,-2893.0
2875.0,2775.0,2896.0,3141.0,3030.0,0.775024,-0.358398,-0.510376,-0.101807,-106.0,74.0,-140.0,6056.0,-7028.0,3687.0,-1022.0,-3328.0,1867.0,-3551.0,-1385.0,1034.0,0.864082,-0.451616,0.222094,11086.0,-5828.0,10014.0,-2414.0,1711.0,-3199.0
2869.0,2768.0,2896.0,3143.0,3047.0,0.772095,-0.354065,-0.505798,-0.150696,-99.0,66.0,-164.0,5843.0,-4080.0,4484.0,-1429.0,-849.0,2537.0,-2845.0,996.0,-330.0,0.887761,-0.3943,0.237646,11398.0,792.0,11302.0,-2266.0,1521.0,-3739.0
2871.0,2769.0,2897.0,3135.0,3035.0,0.769836,-0.349365,-0.504272,-0.176147,-92.0,64.0,-170.0,5825.0,-2626.0,4833.0,-1543.0,325.0,2806.0,-2293.0,2108.0,-810.0,0.899494,-0.360256,0.247329,11614.0,3376.0,11712.0,-2091.0,1488.0,-3872.0
2871.0,2763.0,2897.0,3135.0,3027.0,0.765076,-0.336365,-0.500793,-0.225281,-77.0,64.0,-155.0,5849.0,342.0,5726.0,-1669.0,2709.0,3496.0,-965.0,4422.0,-1363.0,0.917843,-0.289051,0.272157,11658.0,9928.0,14606.0,-1749.0,1468.0,-3528.0
2873.0,2773.0,2894.0,3139.0,3039.0,0.760376,-0.323364,-0.494934,-0.268982,-76.0,54.0,-121.0,5506.0,3179.0,6541.0,-2084.0,5026.0,4075.0,544.0,6522.0,-1837.0,0.92663,-0.2255,0.300999,9532.0,13978.0,14998.0,-1728.0,1259.0,-2758.0
2875.0,2768.0,2891.0,3135.0,3027.0,0.757507,-0.318115,-0.491943,-0.288147,-74.0,45.0,-106.0,5264.0,4277.0,6804.0,-2343.0,5902.0,4234.0,1224.0,7258.0,-2019.0,0.928629,-0.198445,0.31364,9136.0,14808.0,15074.0,-1681.0,1039.0,-2422.0
2864.0,2771.0,2894.0,3149.0,3039.0,0.751221,-0.309326,-0.487,-0.320679,-63.0,28.0,-79.0,4979.0,5838.0,6948.0,-2640.0,7086.0,4209.0,2459.0,8020.0,-2128.0,0.930077,-0.152404,0.334316,9478.0,15620.0,13580.0,-1435.0,648.0,-1809.0
2867.0,2771.0,2911.0,3147.0,3027.0,0.744934,-0.302795,-0.483521,-0.345947,-55.0,18.0,-54.0,5111.0,6867.0,6815.0,-2506.0,7822.0,3954.0,3567.0,8180.0,-1861.0,0.929884,-0.11658,0.349129,10766.0,16142.0,13074.0,-1251.0,434.0,-1227.0
2875.0,2777.0,2894.0,3131.0,3039.0,0.742188,-0.300354,-0.481567,-0.356445,-52.0,17.0,-43.0,5144.0,7140.0,6625.0,-2465.0,7979.0,3710.0,3976.0,8030.0,-1788.0,0.928946,-0.102533,0.355776,10416.0,15670.0,11946.0,-1187.0,403.0,-972.0
2867.0,2768.0,2887.0,3143.0,3038.0,0.737671,-0.297363,-0.477478,-0.373352,-47.0,13.0,-23.0,5085.0,7191.0,6155.0,-2504.0,7864.0,3147.0,4382.0,7451.0,-1810.0,0.926486,-0.082178,0.36714,9718.0,13770.0,10826.0,-1062.0,311.0,-507.0
2869.0,2778.0,2909.0,3135.0,3038.0,0.734802,-0.296814,-0.473206,-0.384766,-40.0,7.0,-3.0,4763.0,6802.0,5650.0,-2805.0,7392.0,2570.0,4337.0,6755.0,-2157.0,0.923833,-0.072053,0.375957,8414.0,12328.0,9828.0,-898.0,162.0,-66.0
2864.0,2773.0,2897.0,3131.0,3025.0,0.733826,-0.297302,-0.471252,-0.388733,-37.0,4.0,4.0,4585.0,6542.0,5417.0,-2974.0,7115.0,2311.0,4234.0,6425.0,-2365.0,0.922777,-0.069953,0.379146,8068.0,11416.0,9430.0,-830.0,94.0,111.0
2865.0,2771.0,2896.0,3139.0,3029.0,0.732849,-0.299622,-0.467529,-0.393127,-30.0,-2.0,20.0,4097.0,5910.0,4783.0,-3446.0,6496.0,1643.0,3949.0,5667.0,-3008.0,0.920836,-0.071558,0.38326,6852.0,9858.0,7554.0,-678.0,-35.0,460.0
2875.0,2783.0,2893.0,3122.0,3047.0,0.732727,-0.301392,-0.466003,-0.39386,-27.0,-4.0,25.0,3926.0,5586.0,4421.0,-3613.0,6197.0,1275.0,3826.0,5250.0,-3297.0,0.920319,-0.074595,0.384018,6982.0,9246.0,6662.0,-598.0,-85.0,580.0
2871.0,2767.0,2887.0,3152.0,3035.0,0.733398,-0.305054,-0.463013,-0.393311,-19.0,0.0,33.0,3775.0,4940.0,3741.0,-3754.0,5621.0,586.0,3590.0,4416.0,-3692.0,0.919107,-0.083236,0.385128,6970.0,8082.0,5634.0,-423.0,14.0,758.0
2871.0,2770.0,2881.0,3121.0,3015.0,0.736633,-0.306946,-0.458435,-0.391235,-8.0,13.0,37.0,3263.0,4433.0,3293.0,-4237.0,5198.0,87.0,3261.0,3947.0,-4331.0,0.915573,-0.093501,0.391315,4176.0,7462.0,5178.0,-175.0,306.0,856.0
2875.0,2753.0,2933.0,3149.0,3043.0,0.739136,-0.307068,-0.455688,-0.389526,-2.0,15.0,40.0,2850.0,4225.0,3130.0,-4628.0,5035.0,-114.0,3056.0,3835.0,-4767.0,0.912853,-0.098924,0.39611,3270.0,7284.0,5444.0,-44.0,354.0,923.0
2871.0,2769.0,2903.0,3135.0,3051.0,0.745972,-0.305969,-0.450134,-0.383789,11.0,17.0,52.0,2252.0,4090.0,3002.0,-5173.0,4999.0,-336.0,2833.0,3858.0,-5380.0,0.90643,-0.110976,0.40753,3296.0,8200.0,6036.0,272.0,392.0,1209.0
2863.0,2771.0,2900.0,3125.0,3031.0,0.750488,-0.30481,-0.447205,-0.379333,20.0,20.0,62.0,2134.0,4067.0,3033.0,-5259.0,5035.0,-360.0,2755.0,3924.0,-5490.0,0.902493,-0.118233,0.414226,3682.0,8062.0,6352.0,472.0,460.0,1422.0
2866.0,2768.0,2906.0,3142.0,3051.0,0.763062,-0.300903,-0.439636,-0.366028,40.0,33.0,88.0,2007.0,4083.0,3139.0,-5293.0,5208.0,-403.0,2639.0,4111.0,-5606.0,0.891217,-0.137377,0.432416,3824.0,8172.0,6560.0,926.0,775.0,2025.0
2870.0,2778.0,2925.0,3139.0,3024.0,0.771606,-0.297729,-0.434387,-0.35675,52.0,45.0,104.0,2025.0,4105.0,3189.0,-5206.0,5329.0,-458.0,2605.0,4194.0,-5596.0,0.882782,-0.149524,0.445312,4342.0,8420.0,6906.0,1213.0,1031.0,2404.0
2883.0,2775.0,2887.0,3123.0,3031.0,0.79364,-0.288635,-0.419556,-0.332947,73.0,71.0,136.0,2022.0,4417.0,3324.0,-5007.0,5881.0,-619.0,2691.0,4574.0,-5646.0,0.858153,-0.178766,0.481381,3736.0,10348.0,6952.0,1678.0,1639.0,3138.0
2887.0,2781.0,2878.0,3135.0,3069.0,0.819458,-0.27594,-0.39978,-0.304077,83.0,86.0,158.0,1663.0,5074.0,3521.0,-5079.0,6787.0,-804.0,2755.0,5349.0,-6023.0,0.82302,-0.209114,0.528007,1502.0,12114.0,7188.0,1910.0,1982.0,3622.0
2882.0,2783.0,2899.0,3143.0,3059.0,0.83252,-0.269775,-0.389038,-0.287659,81.0,81.0,169.0,1429.0,5243.0,3577.0,-5148.0,7089.0,-942.0,2609.0,5634.0,-6251.0,0.80297,-0.225366,0.551707,1700.0,11014.0,7598.0,1878.0,1872.0,3881.0
2869.0,2778.0,2939.0,3139.0,3013.0,0.857727,-0.261475,-0.366638,-0.248047,78.0,67.0,205.0,1712.0,4215.0,4224.0,-4502.0,6399.0,-645.0,1534.0,5382.0,-5505.0,0.758667,-0.266661,0.59443,5106.0,3450.0,11490.0,1790.0,1555.0,4717.0
2854.0,2787.0,2903.0,3119.0,3059.0,0.881531,-0.257629,-0.34198,-0.198914,83.0,57.0,224.0,2302.0,1727.0,5580.0,-3476.0,4333.0,391.0,-300.0,4252.0,-3583.0,0.705424,-0.318168,0.63334,6404.0,-5272.0,15490.0,1902.0,1312.0,5137.0
2879.0,2773.0,2931.0,3135.0,3027.0,0.892151,-0.255493,-0.329895,-0.173157,90.0,51.0,215.0,2629.0,128.0,6323.0,-2917.0,2926.0,983.0,-1201.0,3338.0,-2334.0,0.677113,-0.34163,0.651809,7196.0,-9554.0,17096.0,2073.0,1178.0,4930.0
2863.0,2777.0,2883.0,3135.0,3039.0,0.910156,-0.247498,-0.308289,-0.123718,112.0,38.0,182.0,3366.0,-3661.0,7775.0,-1732.0,-595.0,2143.0,-2645.0,750.0,617.0,0.622422,-0.374241,0.687394,9806.0,-19170.0,20750.0,2576.0,887.0,4188.0
2879.0,2778.0,2881.0,3121.0,3023.0,0.917664,-0.242065,-0.298767,-0.099976,118.0,34.0,169.0,3771.0,-5461.0,8665.0,-1117.0,-2310.0,2895.0,-3100.0,-490.0,2260.0,0.596737,-0.38453,0.704244,9606.0,-21334.0,22586.0,2710.0,783.0,3886.0
2871.0,2755.0,2887.0,3123.0,3067.0,0.929504,-0.228882,-0.283081,-0.059387,117.0,19.0,117.0,4203.0,-8326.0,10196.0,-330.0,-5115.0,4175.0,-3585.0,-2632.0,4890.0,0.553435,-0.391871,0.734984,9614.0,-24198.0,24302.0,2689.0,443.0,2689.0
2863.0,2753.0,2885.0,3143.0,3050.0,0.937683,-0.212891,-0.272949,-0.030273,118.0,8.0,68.0,4645.0,-10293.0,10725.0,346.0,-7157.0,4496.0,-3187.0,-4605.0,6339.0,0.52477,-0.382722,0.760342,13800.0,-28910.0,27000.0,2718.0,205.0,1575.0
2879.0,2793.0,2894.0,3120.0,3035.0,0.946533,-0.189819,-0.260803,-0.006287,128.0,18.0,64.0,4751.0,-11038.0,10556.0,686.0,-8121.0,4068.0,-2306.0,-6000.0,6453.0,0.496104,-0.356061,0.791915,8438.0,-22078.0,19246.0,2934.0,423.0,1483.0
2887.0,2790.0,2899.0,3178.0,3047.0,0.94928,-0.180908,-0.257141,0.00592,113.0,10.0,68.0,4792.0,-10653.0,10898.0,810.0,-7814.0,4325.0,-2057.0,-5745.0,6571.0,0.486056,-0.34651,0.802318,9360.0,-18502.0,23324.0,2605.0,241.0,1561.0
2866.0,2785.0,2899.0,3139.0,3039.0,0.953186,-0.167969,-0.249817,0.028748,73.0,0.0,70.0,4075.0,-9789.0,10579.0,252.0,-7048.0,3871.0,-1866.0,-5419.0,5645.0,0.466587,-0.334574,0.818768,5376.0,-17804.0,19194.0,1675.0,9.0,1608.0
2875.0,2769.0,2895.0,3152.0,3030.0,0.953674,-0.16571,-0.247742,0.039856,54.0,-9.0,72.0,3781.0,-9889.0,10404.0,18.0,-7137.0,3668.0,-1809.0,-5632.0,5420.0,0.459321,-0.335816,0.822247,6020.0,-21034.0,19808.0,1257.0,-206.0,1660.0
2887.0,2768.0,2887.0,3135.0,3031.0,0.952209,-0.169006,-0.246521,0.062866,22.0,-25.0,79.0,3269.0,-10616.0,9721.0,-402.0,-7725.0,2992.0,-1537.0,-6433.0,5003.0,0.44823,-0.352855,0.821319,5784.0,-23606.0,18144.0,515.0,-567.0,1815.0
2883.0,2768.0,2879.0,3127.0,3055.0,0.94928,-0.177002,-0.246277,0.08252,6.0,-15.0,60.0,3043.0,-11263.0,8958.0,-548.0,-8177.0,2273.0,-1035.0,-7014.0,4694.0,0.438359,-0.376694,0.81596,5490.0,-24094.0,15256.0,159.0,-336.0,1381.0
2863.0,2773.0,2903.0,3127.0,3039.0,0.947937,-0.181702,-0.245605,0.089478,2.0,-6.0,45.0,3024.0,-11477.0,8655.0,-524.0,-8294.0,1992.0,-777.0,-7149.0,4614.0,0.433121,-0.388436,0.813253,5858.0,-24052.0,15412.0,47.0,-130.0,1043.0
2878.0,2782.0,2893.0,3127.0,3029.0,0.946472,-0.190674,-0.241577,0.097473,-2.0,13.0,17.0,2777.0,-11579.0,8137.0,-664.0,-8236.0,1496.0,-552.0,-7195.0,4294.0,0.420121,-0.408029,0.810595,4328.0,-22762.0,15082.0,-45.0,317.0,410.0
2863.0,2757.0,2895.0,3143.0,3047.0,0.945984,-0.199036,-0.236145,0.098755,-12.0,15.0,-6.0,2110.0,-11047.0,7781.0,-1227.0,-7580.0,1151.0,-922.0,-6796.0,3639.0,0.407467,-0.42321,0.809258,1952.0,-20166.0,14574.0,-255.0,354.0,-126.0
2867.0,2759.0,2905.0,3147.0,3039.0,0.945679,-0.203247,-0.23407,0.097412,-17.0,10.0,-16.0,1719.0,-10693.0,7602.0,-1583.0,-7170.0,985.0,-1215.0,-6549.0,3240.0,0.403112,-0.430015,0.807699,1170.0,-19260.0,14220.0,-367.0,247.0,-350.0
2855.0,2779.0,2897.0,3127.0,3039.0,0.944946,-0.211487,-0.232117,0.092041,-23.0,0.0,-31.0,987.0,-9787.0,7342.0,-2287.0,-6162.0,765.0,-1900.0,-5855.0,2426.0,0.399745,-0.442416,0.80279,-104.0,-16516.0,13994.0,-514.0,18.0,-691.0
2867.0,2765.0,2886.0,3139.0,3035.0,0.944031,-0.218689,-0.232178,0.08374,-20.0,-1.0,-42.0,609.0,-8971.0,7180.0,-2682.0,-5269.0,655.0,-2368.0,-5142.0,1824.0,0.40174,-0.451783,0.796475,274.0,-14174.0,15064.0,-443.0,-16.0,-948.0
2870.0,2768.0,2890.0,3133.0,3027.0,0.943848,-0.221558,-0.232056,0.078674,-22.0,-1.0,-47.0,447.0,-8468.0,7166.0,-2855.0,-4742.0,660.0,-2607.0,-4683.0,1529.0,0.403189,-0.454747,0.7941,1026.0,-14578.0,16136.0,-486.0,-9.0,-1067.0
2863.0,2761.0,2895.0,3135.0,3043.0,0.943115,-0.228455,-0.231995,0.066833,-34.0,-4.0,-54.0,121.0,-7978.0,6887.0,-3213.0,-4193.0,432.0,-2956.0,-4290.0,969.0,0.407059,-0.461928,0.78792,144.0,-15466.0,14480.0,-768.0,-85.0,-1220.0
2864.0,2762.0,2883.0,3135.0,3038.0,0.941345,-0.23761,-0.233582,0.053528,-45.0,-11.0,-60.0,-190.0,-7842.0,6550.0,-3584.0,-3972.0,176.0,-3294.0,-4185.0,528.0,0.414324,-0.472352,0.777977,-938.0,-15428.0,12534.0,-1009.0,-242.0,-1358.0
2869.0,2775.0,2879.0,3127.0,3047.0,0.939758,-0.243225,-0.235657,0.046082,-52.0,-15.0,-65.0,-220.0,-7892.0,6495.0,-3664.0,-3969.0,182.0,-3437.0,-4140.0,500.0,0.420504,-0.478864,0.770577,-644.0,-16290.0,12450.0,-1189.0,-321.0,-1476.0
2870.0,2768.0,2907.0,3123.0,3039.0,0.93512,-0.257324,-0.241638,0.029541,-64.0,-21.0,-73.0,-51.0,-8445.0,6232.0,-3628.0,-4385.0,82.0,-3539.0,-4409.0,650.0,0.436718,-0.495534,0.750717,986.0,-18776.0,12400.0,-1459.0,-459.0,-1657.0
2878.0,2771.0,2882.0,3139.0,3033.0,0.929321,-0.272949,-0.248474,0.01001,-71.0,-16.0,-90.0,260.0,-9011.0,5803.0,-3478.0,-4814.0,-156.0,-3538.0,-4710.0,765.0,0.45636,-0.512289,0.727498,1530.0,-19014.0,10372.0,-1623.0,-353.0,-2056.0
2867.0,2752.0,2881.0,3147.0,3056.0,0.92627,-0.280273,-0.251831,-0.002563,-73.0,-9.0,-109.0,382.0,-9074.0,5431.0,-3451.0,-4831.0,-434.0,-3516.0,-4768.0,576.0,0.467964,-0.517926,0.71601,1478.0,-18430.0,8250.0,-1657.0,-189.0,-2477.0
2867.0,2765.0,2889.0,3135.0,3071.0,0.9198,-0.292847,-0.258667,-0.0354,-70.0,8.0,-149.0,915.0,-8812.0,4380.0,-3152.0,-4548.0,-1310.0,-3111.0,-4758.0,-108.0,0.496577,-0.520407,0.694617,3878.0,-14954.0,5398.0,-1601.0,200.0,-3400.0
2863.0,2751.0,2885.0,3119.0,3045.0,0.91217,-0.30249,-0.264893,-0.078796,-91.0,29.0,-178.0,2005.0,-7017.0,3402.0,-2344.0,-2838.0,-2140.0,-1916.0,-3592.0,-1244.0,0.530925,-0.5101,0.676595,7632.0,-8110.0,3480.0,-2082.0,682.0,-4072.0
2865.0,2791.0,2915.0,3123.0,3035.0,0.906921,-0.308716,-0.267334,-0.103394,-108.0,35.0,-181.0,2601.0,-6162.0,2831.0,-1894.0,-2027.0,-2628.0,-1190.0,-3171.0,-1767.0,0.54874,-0.504681,0.666424,8772.0,-7494.0,2406.0,-2466.0,817.0,-4132.0
2877.0,2774.0,2915.0,3127.0,3047.0,0.894775,-0.321899,-0.269104,-0.15271,-111.0,54.0,-169.0,3712.0,-4605.0,2787.0,-1038.0,-559.0,-2520.0,-123.0,-1972.0,-1958.0,0.57989,-0.493866,0.647907,10152.0,-4208.0,7760.0,-2523.0,1237.0,-3854.0
2882.0,2778.0,2896.0,3131.0,3031.0,0.885925,-0.3255,-0.263611,-0.199158,-70.0,76.0,-151.0,4011.0,-2401.0,4223.0,-877.0,1463.0,-1094.0,450.0,450.0,-1923.0,0.596731,-0.471738,0.649086,8470.0,2928.0,14680.0,-1583.0,1757.0,-3441.0
2867.0,2775.0,2881.0,3151.0,3026.0,0.883118,-0.314026,-0.253845,-0.238831,-25.0,81.0,-119.0,3434.0,1160.0,7142.0,-1467.0,4710.0,1621.0,1143.0,4724.0,-1826.0,0.598348,-0.433392,0.673887,3428.0,14940.0,23226.0,-564.0,1863.0,-2705.0
2866.0,2765.0,2864.0,3121.0,3025.0,0.882874,-0.305115,-0.24939,-0.255493,-22.0,62.0,-103.0,2952.0,3366.0,8666.0,-1932.0,6735.0,3018.0,1765.0,7190.0,-1841.0,0.596269,-0.411321,0.689452,3492.0,19844.0,26780.0,-486.0,1440.0,-2343.0
2864.0,2756.0,2855.0,3139.0,3035.0,0.881531,-0.289856,-0.244019,-0.281616,-34.0,27.0,-62.0,2883.0,6646.0,11264.0,-1978.0,9706.0,5424.0,3315.0,10754.0,-933.0,0.593476,-0.373595,0.712843,6756.0,20692.0,28260.0,-778.0,637.0,-1413.0
2875.0,2736.0,2863.0,3119.0,3027.0,0.879517,-0.280212,-0.242371,-0.298584,-27.0,10.0,-36.0,3657.0,7412.0,12040.0,-1206.0,10264.0,6097.0,4356.0,11178.0,133.0,0.593672,-0.348167,0.725439,10078.0,14300.0,24206.0,-597.0,235.0,-810.0
2862.0,2791.0,2874.0,3119.0,3055.0,0.878967,-0.275879,-0.242493,-0.304138,-14.0,8.0,-25.0,4201.0,7160.0,11954.0,-665.0,9924.0,5972.0,4626.0,10621.0,616.0,0.594097,-0.337474,0.730172,11760.0,12710.0,23354.0,-301.0,191.0,-564.0
2881.0,2795.0,2887.0,3135.0,3043.0,0.879089,-0.266846,-0.24231,-0.311829,-10.0,10.0,-10.0,4757.0,6653.0,11384.0,-96.0,9258.0,5320.0,4825.0,9478.0,936.0,0.592444,-0.318044,0.740115,10168.0,11338.0,20096.0,-228.0,248.0,-219.0
2867.0,2763.0,2879.0,3111.0,3024.0,0.878967,-0.264404,-0.241882,-0.314697,-19.0,6.0,-6.0,4813.0,6026.0,10789.0,-33.0,8586.0,4700.0,4609.0,8599.0,789.0,0.591628,-0.312566,0.743201,9928.0,7636.0,17816.0,-419.0,141.0,-130.0
2864.0,2775.0,2899.0,3135.0,3045.0,0.877869,-0.264099,-0.241577,-0.318176,-19.0,-6.0,-3.0,4688.0,3808.0,9257.0,-163.0,6347.0,3163.0,3434.0,6199.0,288.0,0.592206,-0.30996,0.743782,8676.0,250.0,13550.0,-429.0,-137.0,-50.0
2865.0,2765.0,2879.0,3111.0,3015.0,0.87616,-0.265625,-0.244568,-0.319397,-5.0,-19.0,-7.0,4702.0,1502.0,7845.0,-198.0,4035.0,1788.0,2185.0,3839.0,-44.0,0.598241,-0.309231,0.7393,9772.0,-3056.0,11930.0,-112.0,-423.0,-150.0
2859.0,2769.0,2897.0,3127.0,3019.0,0.875122,-0.265808,-0.247192,-0.320007,1.0,-20.0,-12.0,4828.0,611.0,7252.0,-109.0,3126.0,1218.0,1768.0,2850.0,-128.0,0.602768,-0.307022,0.736485,10552.0,-3930.0,11048.0,38.0,-449.0,-255.0
2871.0,2775.0,2911.0,3143.0,3053.0,0.873474,-0.264038,-0.253113,-0.321411,14.0,-14.0,-14.0,5126.0,-453.0,6306.0,113.0,1992.0,305.0,1376.0,1444.0,-302.0,0.611905,-0.298554,0.73248,10886.0,-2820.0,10264.0,323.0,-301.0,-307.0
2851.0,2773.0,2926.0,3120.0,3047.0,0.873047,-0.262085,-0.255798,-0.32196,16.0,-10.0,-12.0,5201.0,-578.0,6023.0,159.0,1821.0,28.0,1365.0,1142.0,-415.0,0.61541,-0.292911,0.731748,10804.0,-1590.0,10526.0,384.0,-217.0,-255.0
2865.0,2766.0,2891.0,3147.0,3043.0,0.873047,-0.257812,-0.259705,-0.322327,13.0,-3.0,-1.0,5429.0,-479.0,5980.0,352.0,1837.0,-18.0,1516.0,1049.0,-314.0,0.619668,-0.282745,0.732192,11480.0,-290.0,12630.0,311.0,-60.0,-12.0
2875.0,2781.0,2895.0,3139.0,3039.0,0.873474,-0.255859,-0.260559,-0.32196,10.0,0.0,5.0,5434.0,-366.0,6233.0,355.0,1921.0,226.0,1504.0,1257.0,-150.0,0.619936,-0.279194,0.733261,10656.0,-2.0,14284.0,243.0,2.0,118.0
2875.0,2773.0,2897.0,3143.0,3039.0,0.875061,-0.252808,-0.261536,-0.319336,7.0,-10.0,17.0,5279.0,-130.0,7075.0,206.0,2126.0,1050.0,1294.0,1972.0,314.0,0.61918,-0.275409,0.735395,10740.0,490.0,17176.0,177.0,-223.0,390.0
2871.0,2765.0,2907.0,3139.0,3035.0,0.875854,-0.251526,-0.262878,-0.317017,9.0,-16.0,20.0,5500.0,-2.0,7665.0,421.0,2242.0,1641.0,1325.0,2326.0,853.0,0.619962,-0.273926,0.73525,12678.0,762.0,19042.0,213.0,-366.0,463.0
2865.0,2771.0,2896.0,3143.0,3039.0,0.877686,-0.247925,-0.266968,-0.311279,15.0,-20.0,26.0,6301.0,385.0,9019.0,1197.0,2588.0,3002.0,1607.0,3078.0,2254.0,0.622975,-0.268997,0.734488,15096.0,2348.0,22248.0,366.0,-456.0,607.0
2865.0,2775.0,2906.0,3135.0,3029.0,0.878845,-0.245789,-0.269348,-0.307739,16.0,-24.0,30.0,6672.0,671.0,9717.0,1554.0,2852.0,3703.0,1761.0,3546.0,2929.0,0.624708,-0.266242,0.734112,15490.0,3022.0,23646.0,369.0,-531.0,697.0
2871.0,2779.0,2893.0,3131.0,3047.0,0.880981,-0.242249,-0.275513,-0.298706,16.0,-39.0,40.0,7241.0,955.0,11006.0,2078.0,3103.0,5019.0,1728.0,4336.0,4163.0,0.630165,-0.262238,0.730762,16022.0,2220.0,25642.0,382.0,-888.0,934.0
2875.0,2768.0,2891.0,3142.0,3039.0,0.882935,-0.239441,-0.285522,-0.285706,28.0,-62.0,50.0,7665.0,870.0,11925.0,2413.0,2997.0,6007.0,1340.0,4796.0,5107.0,0.641015,-0.259671,0.722346,16514.0,1328.0,25920.0,651.0,-1406.0,1152.0
2864.0,2767.0,2890.0,3123.0,3031.0,0.883728,-0.237671,-0.292603,-0.277466,37.0,-74.0,55.0,7936.0,901.0,12230.0,2618.0,3012.0,6365.0,1210.0,4995.0,5479.0,0.649053,-0.257698,0.715859,17700.0,2202.0,26296.0,850.0,-1683.0,1264.0
2867.0,2763.0,2889.0,3135.0,3023.0,0.884644,-0.232544,-0.310547,-0.258606,48.0,-93.0,60.0,8417.0,1315.0,12436.0,2930.0,3369.0,6710.0,1121.0,5475.0,5807.0,0.669721,-0.250818,0.698955,17952.0,4130.0,24544.0,1108.0,-2111.0,1387.0
2871.0,2771.0,2891.0,3131.0,3037.0,0.524109,0.093567,0.751526,-1.21228,12346.0,8404.0,-13041.0,-7289.0,20990.0,719.0,1022.0,-30423.0,-8871.0,15833.0,-30220.0,-24509.0,-1.014621,-1.724041,1.170768,17986.0,4698.0,22414.0,1061.0,-2611.0,1747.0
2876.0,2779.0,2897.0,3137.0,3043.0,0.88269,-0.228516,-0.344788,-0.223145,38.0,-124.0,85.0,8781.0,1852.0,11741.0,2959.0,3896.0,6351.0,891.0,5941.0,5308.0,0.710665,-0.249542,0.657838,18004.0,4116.0,21570.0,874.0,-2818.0,1967.0
2877.0,2769.0,2898.0,3143.0,3025.0,0.878113,-0.234253,-0.369141,-0.194458,17.0,-142.0,102.0,8480.0,1166.0,10659.0,2422.0,3360.0,5598.0,188.0,5435.0,4349.0,0.739399,-0.267836,0.617757,15316.0,-1352.0,17314.0,410.0,-3235.0,2340.0
2864.0,2775.0,2899.0,3143.0,3043.0,0.869995,-0.245605,-0.395813,-0.161682,22.0,-161.0,106.0,7935.0,-631.0,9129.0,1642.0,1821.0,4491.0,-828.0,3857.0,3258.0,0.768131,-0.299359,0.566043,14388.0,-6890.0,13718.0,506.0,-3670.0,2449.0
2865.0,2768.0,2891.0,3131.0,3031.0,0.865173,-0.250854,-0.409729,-0.14386,30.0,-163.0,107.0,7608.0,-1337.0,8360.0,1208.0,1253.0,3949.0,-1192.0,3170.0,2673.0,0.781149,-0.316178,0.538415,13044.0,-6370.0,12040.0,700.0,-3727.0,2459.0
2869.0,2763.0,2887.0,3139.0,3035.0,0.854248,-0.258728,-0.437378,-0.109558,32.0,-158.0,92.0,6834.0,-2009.0,6950.0,248.0,827.0,2989.0,-1574.0,2313.0,1358.0,0.80395,-0.346199,0.483503,11280.0,-5650.0,9662.0,755.0,-3613.0,2117.0
2867.0,2767.0,2895.0,3127.0,3034.0,0.842346,-0.265198,-0.462341,-0.079529,26.0,-142.0,80.0,5838.0,-2325.0,5451.0,-888.0,732.0,1913.0,-1628.0,1516.0,-176.0,0.821085,-0.373238,0.431783,8070.0,-5634.0,6248.0,600.0,-3234.0,1843.0
2867.0,2771.0,2898.0,3143.0,3039.0,0.836304,-0.268677,-0.473389,-0.065247,24.0,-134.0,79.0,5136.0,-2511.0,4606.0,-1637.0,664.0,1268.0,-1607.0,972.0,-1094.0,0.826854,-0.387617,0.407377,5848.0,-6198.0,3916.0,562.0,-3064.0,1829.0
2875.0,2774.0,2894.0,3141.0,3031.0,0.82373,-0.276794,-0.49353,-0.036133,23.0,-125.0,86.0,3677.0,-3066.0,2864.0,-3147.0,377.0,-82.0,-1415.0,-394.0,-2809.0,0.833075,-0.420343,0.35965,3224.0,-8216.0,740.0,539.0,-2856.0,1970.0
2869.0,2771.0,2894.0,3139.0,3038.0,0.810974,-0.286377,-0.510193,-0.0047,25.0,-113.0,95.0,2424.0,-3670.0,1406.0,-4376.0,95.0,-1177.0,-1098.0,-1718.0,-4047.0,0.830198,-0.459693,0.315393,1502.0,-8716.0,-914.0,584.0,-2586.0,2182.0
2864.0,2768.0,2891.0,3135.0,3039.0,0.804688,-0.29126,-0.517212,0.010803,23.0,-105.0,93.0,1956.0,-3792.0,935.0,-4811.0,139.0,-1484.0,-951.0,-2096.0,-4479.0,0.826095,-0.479921,0.295298,1270.0,-8160.0,-674.0,529.0,-2393.0,2146.0
2865.0,2775.0,2899.0,3127.0,3027.0,0.793213,-0.300842,-0.528076,0.038025,13.0,-83.0,78.0,1103.0,-4034.0,310.0,-5572.0,204.0,-1830.0,-820.0,-2739.0,-5124.0,0.814875,-0.517424,0.261262,-378.0,-9064.0,-868.0,303.0,-1890.0,1787.0
2867.0,2765.0,2893.0,3135.0,3035.0,-1.21228,-0.446594,0.444946,-0.273132,-27606.0,-4375.0,-26389.0,26819.0,28392.0,31038.0,15982.0,21512.0,21643.0,-18544.0,5514.0,-1512.0,1.322758,0.839736,1.146801,-980.0,-12428.0,-860.0,113.0,-1521.0,1315.0
2867.0,2771.0,2897.0,3147.0,3035.0,0.778198,-0.314697,-0.539124,0.068542,5.0,-60.0,50.0,131.0,-5288.0,-112.0,-6389.0,-670.0,-1919.0,-1077.0,-4178.0,-5130.0,0.79595,-0.563699,0.220602,-1342.0,-13764.0,-692.0,121.0,-1353.0,1148.0
2875.0,2711.0,2891.0,3149.0,3047.0,0.770081,-0.322205,-0.543884,0.085632,11.0,-50.0,38.0,-359.0,-6289.0,-198.0,-6769.0,-1460.0,-1842.0,-1339.0,-5143.0,-4805.0,0.782487,-0.589395,0.200731,-1882.0,-15302.0,-454.0,267.0,-1144.0,889.0
2871.0,2773.0,2899.0,3151.0,3031.0,0.763489,-0.326965,-0.547607,0.101624,19.0,-43.0,31.0,-430.0,-6909.0,-128.0,-6735.0,-1907.0,-1655.0,-1449.0,-5558.0,-4328.0,0.769729,-0.610568,0.186462,-468.0,-15238.0,36.0,446.0,-981.0,715.0
2865.0,2769.0,2897.0,3135.0,3031.0,0.760864,-0.328674,-0.548767,0.10907,20.0,-37.0,30.0,-270.0,-7096.0,-35.0,-6523.0,-2018.0,-1522.0,-1451.0,-5548.0,-4005.0,0.763378,-0.619861,0.181639,574.0,-15230.0,624.0,465.0,-826.0,696.0
2871.0,2771.0,2891.0,3139.0,3039.0,0.757446,-0.332275,-0.548645,0.121948,15.0,-17.0,25.0,24.0,-7394.0,122.0,-6120.0,-2174.0,-1329.0,-1432.0,-5482.0,-3440.0,0.750097,-0.637174,0.177178,700.0,-15904.0,576.0,350.0,-383.0,581.0
2870.0,2775.0,2893.0,3135.0,3043.0,0.756042,-0.335876,-0.546387,0.130676,10.0,-3.0,8.0,167.0,-7882.0,277.0,-5881.0,-2551.0,-1175.0,-1527.0,-5637.0,-2891.0,0.738401,-0.650673,0.177325,830.0,-17522.0,1072.0,249.0,-46.0,199.0
2869.0,2773.0,2893.0,3143.0,3031.0,0.756042,-0.337219,-0.544861,0.133362,9.0,3.0,0.0,250.0,-8234.0,371.0,-5762.0,-2866.0,-1093.0,-1612.0,-5789.0,-2546.0,0.733932,-0.655231,0.178795,962.0,-18644.0,1282.0,225.0,79.0,4.0
2871.0,2774.0,2887.0,3142.0,3031.0,0.756714,-0.339417,-0.541687,0.137146,8.0,5.0,-9.0,239.0,-8932.0,522.0,-5714.0,-3506.0,-975.0,-1817.0,-6209.0,-2008.0,0.726705,-0.662263,0.182797,324.0,-19798.0,1504.0,202.0,116.0,-192.0
2875.0,2773.0,2894.0,3134.0,3035.0,0.756897,-0.340454,-0.540344,0.138733,6.0,3.0,-11.0,245.0,-9216.0,616.0,-5681.0,-3765.0,-893.0,-1924.0,-6356.0,-1769.0,0.723505,-0.665304,0.184259,582.0,-20032.0,1800.0,158.0,69.0,-234.0
2871.0,2768.0,2887.0,3135.0,3031.0,0.756897,-0.342834,-0.538269,0.140808,1.0,3.0,-15.0,364.0,-9644.0,766.0,-5520.0,-4150.0,-753.0,-2063.0,-6500.0,-1321.0,0.718281,-0.670566,0.185451,1238.0,-20408.0,1972.0,28.0,82.0,-328.0
2877.0,2775.0,2897.0,3153.0,3039.0,0.757019,-0.344177,-0.53717,0.141052,-3.0,6.0,-18.0,466.0,-9780.0,811.0,-5401.0,-4269.0,-712.0,-2087.0,-6501.0,-1129.0,0.716202,-0.672636,0.185964,1588.0,-20238.0,1864.0,-46.0,145.0,-392.0
2864.0,2773.0,2898.0,3135.0,3031.0,0.758057,-0.346802,-0.53479,0.138062,-11.0,19.0,-33.0,860.0,-9840.0,900.0,-4997.0,-4323.0,-635.0,-2071.0,-6257.0,-780.0,0.715042,-0.673459,0.187439,3012.0,-19752.0,1868.0,-240.0,450.0,-751.0
2871.0,2768.0,2890.0,3147.0,3039.0,0.760986,-0.348999,-0.531555,0.128723,-20.0,35.0,-51.0,1272.0,-9907.0,844.0,-4619.0,-4434.0,-723.0,-1982.0,-6110.0,-498.0,0.719164,-0.668014,0.191319,3590.0,-20058.0,1322.0,-440.0,805.0,-1158.0
2873.0,2767.0,2902.0,3123.0,3002.0,0.762756,-0.35022,-0.529663,0.122437,-24.0,39.0,-55.0,1411.0,-9942.0,752.0,-4505.0,-4502.0,-833.0,-1927.0,-6112.0,-425.0,0.722248,-0.663965,0.193591,3550.0,-20062.0,940.0,-528.0,904.0,-1258.0
2865.0,2771.0,2906.0,3131.0,3039.0,0.766174,-0.353333,-0.525818,0.108093,-31.0,42.0,-60.0,1689.0,-9895.0,654.0,-4285.0,-4528.0,-962.0,-1899.0,-6005.0,-348.0,0.729351,-0.655103,0.197379,4356.0,-19370.0,1222.0,-706.0,978.0,-1358.0
2871.0,2768.0,2885.0,3135.0,3033.0,0.76947,-0.356873,-0.521851,0.090515,-42.0,48.0,-68.0,2085.0,-9605.0,684.0,-3964.0,-4332.0,-959.0,-1917.0,-5622.0,-331.0,0.738492,-0.643676,0.200591,5522.0,-18212.0,1526.0,-957.0,1112.0,-1540.0
2878.0,2759.0,2893.0,3135.0,3023.0,0.771057,-0.359009,-0.519775,0.080139,-48.0,52.0,-72.0,2347.0,-9434.0,752.0,-3747.0,-4216.0,-901.0,-1952.0,-5360.0,-284.0,0.744012,-0.636941,0.201898,6266.0,-17786.0,1922.0,-1099.0,1214.0,-1631.0
2874.0,2773.0,2896.0,3151.0,3047.0,0.774353,-0.363831,-0.514709,0.056091,-60.0,63.0,-81.0,2898.0,-8968.0,890.0,-3297.0,-3879.0,-793.0,-1980.0,-4750.0,-246.0,0.756318,-0.621208,0.20547,7712.0,-16290.0,2202.0,-1369.0,1462.0,-1833.0
2869.0,2767.0,2895.0,3127.0,3029.0,0.777954,-0.368286,-0.508423,0.026611,-70.0,79.0,-93.0,3898.0,-8239.0,1026.0,-2421.0,-3323.0,-709.0,-1698.0,-3810.0,-23.0,0.771458,-0.600079,0.211792,11504.0,-14098.0,2538.0,-1589.0,1815.0,-2119.0
2869.0,2783.0,2865.0,3135.0,3055.0,0.782227,-0.371826,-0.499756,-0.008545,-79.0,97.0,-99.0,5345.0,-7316.0,1231.0,-1111.0,-2620.0,-603.0,-1096.0,-2649.0,490.0,0.788199,-0.573164,0.223941,15168.0,-11614.0,3268.0,-1808.0,2239.0,-2250.0
2864.0,2774.0,2897.0,3147.0,3047.0,0.784241,-0.373901,-0.494385,-0.02771,-87.0,103.0,-98.0,6051.0,-6807.0,1362.0,-471.0,-2227.0,-535.0,-756.0,-2083.0,746.0,0.796155,-0.559059,0.231583,16246.0,-10610.0,3458.0,-1979.0,2378.0,-2238.0
2877.0,2771.0,2897.0,3120.0,3035.0,0.786438,-0.379272,-0.482849,-0.067322,-98.0,101.0,-98.0,7167.0,-6020.0,1570.0,527.0,-1665.0,-445.0,-194.0,-1328.0,1202.0,0.810528,-0.531536,0.246026,17126.0,-10132.0,3848.0,-2237.0,2324.0,-2229.0
2864.0,2779.0,2882.0,3127.0,3019.0,0.786194,-0.383667,-0.472534,-0.107056,-92.0,90.0,-107.0,7701.0,-5504.0,1999.0,941.0,-1390.0,-123.0,-157.0,-852.0,1442.0,0.825154,-0.502098,0.259073,16428.0,-9412.0,5822.0,-2101.0,2079.0,-2436.0
2866.0,2783.0,2895.0,3111.0,3031.0,0.785767,-0.384033,-0.468018,-0.126892,-84.0,86.0,-113.0,7842.0,-5185.0,2423.0,1018.0,-1213.0,235.0,-288.0,-483.0,1498.0,0.832967,-0.484745,0.267009,16518.0,-8322.0,7722.0,-1923.0,1992.0,-2586.0
2877.0,2763.0,2903.0,3152.0,3019.0,0.785583,-0.380127,-0.458923,-0.166504,-68.0,87.0,-119.0,7999.0,-4227.0,3893.0,1055.0,-586.0,1519.0,-708.0,847.0,1594.0,0.84763,-0.444418,0.289758,15892.0,-5090.0,12818.0,-1545.0,2001.0,-2719.0
2858.0,2751.0,2907.0,3123.0,3039.0,0.786621,-0.371094,-0.44873,-0.205322,-55.0,83.0,-119.0,7524.0,-2894.0,5564.0,492.0,379.0,2927.0,-1119.0,2495.0,1212.0,0.858349,-0.399552,0.32186,12970.0,-1356.0,15858.0,-1243.0,1918.0,-2718.0
2877.0,2769.0,2907.0,3147.0,3007.0,-1.21228,-0.750793,0.886536,1.826111,19765.0,1896.0,6356.0,7522.0,-26781.0,-24351.0,12376.0,-2681.0,12885.0,-31625.0,16935.0,23618.0,-0.592605,5.058169,3.454668,11326.0,3410.0,16704.0,-1053.0,1514.0,-2517.0
2864.0,2758.0,2894.0,3147.0,3034.0,0.785889,-0.35376,-0.436707,-0.257874,-45.0,55.0,-105.0,6399.0,-162.0,7200.0,-718.0,2547.0,4183.0,-637.0,4907.0,74.0,0.868856,-0.330801,0.368261,10540.0,5568.0,16488.0,-1024.0,1272.0,-2384.0
2870.0,2768.0,2925.0,3127.0,3035.0,0.782532,-0.342529,-0.432861,-0.287964,-40.0,33.0,-93.0,5727.0,1660.0,7614.0,-1438.0,4009.0,4414.0,215.0,6091.0,-683.0,0.874728,-0.286783,0.390584,9762.0,8332.0,15936.0,-908.0,763.0,-2119.0
2879.0,2773.0,2887.0,3139.0,3039.0,0.777649,-0.332397,-0.431946,-0.313416,-34.0,18.0,-78.0,5435.0,3193.0,7740.0,-1775.0,5210.0,4414.0,1226.0,6867.0,-1053.0,0.880161,-0.24622,0.405902,10492.0,10636.0,15858.0,-778.0,416.0,-1768.0
2879.0,2771.0,2911.0,3138.0,2991.0,0.775208,-0.327515,-0.431763,-0.324646,-32.0,16.0,-70.0,5363.0,3806.0,7699.0,-1862.0,5669.0,4318.0,1709.0,7071.0,-1149.0,0.882064,-0.227444,0.412657,10244.0,11104.0,14862.0,-711.0,375.0,-1584.0
2871.0,2775.0,2867.0,3143.0,3037.0,0.770569,-0.319336,-0.431702,-0.343384,-28.0,9.0,-49.0,5244.0,4699.0,7279.0,-2002.0,6301.0,3810.0,2588.0,7042.0,-1390.0,0.884621,-0.195662,0.423347,10218.0,11572.0,12978.0,-633.0,208.0,-1104.0
2867.0,2778.0,2913.0,3167.0,3013.0,0.766235,-0.314392,-0.432129,-0.356873,-27.0,-1.0,-28.0,5129.0,5023.0,6537.0,-2134.0,6443.0,3023.0,3157.0,6504.0,-1712.0,0.886621,-0.173367,0.428897,9864.0,10254.0,10576.0,-606.0,-15.0,-621.0
2869.0,2768.0,2909.0,3147.0,3024.0,0.764221,-0.313171,-0.432678,-0.361572,-24.0,-6.0,-19.0,5054.0,4986.0,6081.0,-2218.0,6344.0,2562.0,3303.0,6093.0,-1920.0,0.887792,-0.165776,0.429482,9628.0,9652.0,9378.0,-546.0,-129.0,-416.0
2874.0,2778.0,2902.0,3134.0,3030.0,0.760742,-0.312134,-0.434448,-0.367554,-17.0,-11.0,-5.0,5004.0,4604.0,5113.0,-2290.0,5878.0,1609.0,3380.0,5081.0,-2265.0,0.890458,-0.155541,0.427652,10140.0,7626.0,7448.0,-378.0,-233.0,-106.0
2859.0,2767.0,2883.0,3143.0,3031.0,0.758728,-0.312134,-0.435791,-0.370178,-12.0,-6.0,5.0,5041.0,4036.0,4286.0,-2269.0,5273.0,801.0,3266.0,4095.0,-2480.0,0.892384,-0.151009,0.425359,10046.0,6268.0,6334.0,-270.0,-137.0,137.0
2845.0,2755.0,2886.0,3135.0,3007.0,0.75824,-0.312317,-0.435913,-0.370789,-12.0,-4.0,9.0,4975.0,3765.0,3906.0,-2337.0,4996.0,425.0,3180.0,3663.0,-2656.0,0.89266,-0.150359,0.42485,9476.0,5968.0,5610.0,-258.0,-75.0,223.0
2869.0,2777.0,2881.0,3155.0,3057.0,0.758423,-0.312683,-0.435059,-0.371155,-8.0,3.0,15.0,4688.0,3174.0,3263.0,-2619.0,4413.0,-226.0,2875.0,2916.0,-3100.0,0.892024,-0.151344,0.425914,7716.0,4790.0,3798.0,-162.0,69.0,351.0
2871.0,2775.0,2899.0,3131.0,3025.0,0.75885,-0.313049,-0.43457,-0.370544,-5.0,1.0,18.0,4500.0,2916.0,3100.0,-2803.0,4169.0,-392.0,2671.0,2708.0,-3304.0,0.891545,-0.15306,0.426305,8084.0,4352.0,5848.0,-107.0,23.0,430.0
2879.0,2769.0,2931.0,3111.0,3071.0,0.76123,-0.312805,-0.432861,-0.367859,2.0,2.0,26.0,3933.0,2582.0,2757.0,-3350.0,3874.0,-762.0,2357.0,2430.0,-3917.0,0.889151,-0.15777,0.429576,6154.0,4636.0,4968.0,60.0,60.0,600.0
2885.0,2779.0,2855.0,3171.0,3035.0,0.762817,-0.312561,-0.432007,-0.365845,4.0,2.0,29.0,3663.0,2645.0,2768.0,-3609.0,3961.0,-766.0,2314.0,2559.0,-4171.0,0.887782,-0.160759,0.431408,5700.0,5968.0,5636.0,112.0,59.0,677.0
2890.0,2768.0,2897.0,3133.0,3029.0,0.766174,-0.312195,-0.429932,-0.361572,-3.0,0.0,37.0,3191.0,3277.0,3001.0,-4055.0,4649.0,-566.0,2572.0,3238.0,-4612.0,0.884567,-0.167489,0.435451,5110.0,9054.0,7158.0,-57.0,12.0,870.0
2878.0,2768.0,2882.0,3143.0,3023.0,0.767578,-0.31311,-0.428223,-0.359741,-15.0,-1.0,41.0,2974.0,3712.0,3271.0,-4256.0,5125.0,-310.0,2745.0,3758.0,-4776.0,0.882666,-0.172575,0.437177,4630.0,10014.0,8292.0,-332.0,-14.0,952.0
2864.0,2775.0,2875.0,3147.0,3011.0,0.768982,-0.319275,-0.42218,-0.358459,-49.0,-2.0,42.0,2519.0,4063.0,4043.0,-4675.0,5606.0,441.0,2609.0,4689.0,-4967.0,0.878192,-0.188364,0.439654,3866.0,7580.0,10494.0,-1119.0,-37.0,969.0
2855.0,2768.0,2903.0,3150.0,3035.0,0.769348,-0.330933,-0.41272,-0.358154,-54.0,0.0,43.0,2514.0,2380.0,4282.0,-4630.0,4129.0,674.0,1270.0,3994.0,-4622.0,0.8721,-0.21357,0.440317,5896.0,-2568.0,8258.0,-1227.0,12.0,1006.0
2859.0,2768.0,2901.0,3120.0,3011.0,0.770569,-0.336548,-0.408142,-0.35553,-30.0,1.0,49.0,2780.0,955.0,4177.0,-4333.0,2826.0,569.0,308.0,3115.0,-4157.0,0.868309,-0.228453,0.440333,7362.0,-6874.0,7670.0,-685.0,39.0,1134.0
2871.0,2768.0,2911.0,3139.0,3029.0,0.778992,-0.339478,-0.401428,-0.341797,50.0,9.0,66.0,3630.0,-1408.0,4034.0,-3394.0,676.0,370.0,-1108.0,1541.0,-2916.0,0.857483,-0.254487,0.447264,10208.0,-8228.0,7968.0,1147.0,225.0,1529.0
2869.0,2773.0,2903.0,3119.0,3047.0,0.786255,-0.335571,-0.399292,-0.331299,84.0,17.0,75.0,4078.0,-1936.0,4043.0,-2887.0,219.0,308.0,-1284.0,1095.0,-2371.0,0.850239,-0.263119,0.455913,10656.0,-6210.0,8184.0,1931.0,391.0,1718.0
2879.0,2778.0,2907.0,3149.0,3025.0,0.80365,-0.321167,-0.395203,-0.307983,106.0,28.0,78.0,4733.0,-2016.0,4249.0,-2091.0,218.0,305.0,-1011.0,867.0,-1654.0,0.833037,-0.27278,0.481374,11176.0,-4022.0,8994.0,2435.0,648.0,1807.0
2867.0,2768.0,2878.0,3143.0,3039.0,0.812134,-0.313599,-0.392761,-0.296326,101.0,27.0,79.0,5022.0,-2104.0,4294.0,-1726.0,161.0,240.0,-881.0,684.0,-1347.0,0.823804,-0.276598,0.494765,11848.0,-4956.0,8882.0,2322.0,636.0,1828.0
2866.0,2765.0,2903.0,3152.0,3027.0,0.827148,-0.300964,-0.387939,-0.273376,91.0,23.0,74.0,5775.0,-2785.0,4298.0,-830.0,-443.0,55.0,-786.0,-75.0,-514.0,0.80632,-0.285777,0.517833,14102.0,-8270.0,8496.0,2086.0,527.0,1702.0
2885.0,2781.0,2891.0,3138.0,3039.0,0.84082,-0.286926,-0.383728,-0.251953,106.0,32.0,59.0,6713.0,-3752.0,4275.0,242.0,-1383.0,-155.0,-672.0,-1133.0,507.0,0.789877,-0.289144,0.540885,16452.0,-10340.0,8550.0,2435.0,736.0,1363.0
2877.0,2775.0,2901.0,3151.0,3023.0,0.848206,-0.277466,-0.381226,-0.241211,120.0,42.0,59.0,7207.0,-4165.0,4275.0,812.0,-1815.0,-274.0,-504.0,-1664.0,1002.0,0.780571,-0.286785,0.555315,17350.0,-10648.0,8634.0,2771.0,966.0,1355.0
2863.0,2768.0,2899.0,3141.0,3019.0,0.865173,-0.255371,-0.373718,-0.216003,139.0,52.0,81.0,7692.0,-4530.0,4530.0,1490.0,-2232.0,-305.0,-161.0,-2189.0,1573.0,0.756984,-0.280432,0.590303,15478.0,-9034.0,10270.0,3197.0,1214.0,1868.0
2875.0,2783.0,2898.0,3131.0,3037.0,0.88147,-0.2323,-0.365417,-0.188416,135.0,37.0,78.0,7403.0,-4174.0,5373.0,1408.0,-1947.0,253.0,-186.0,-1688.0,1717.0,0.731747,-0.27183,0.624996,16018.0,-8156.0,17882.0,3103.0,857.0,1789.0
2891.0,2779.0,2885.0,3131.0,3047.0,0.889648,-0.218445,-0.360291,-0.175903,141.0,57.0,66.0,7161.0,-3840.0,5539.0,1279.0,-1694.0,256.0,-73.0,-1494.0,1527.0,0.717914,-0.261926,0.644889,10612.0,-5586.0,7394.0,3240.0,1319.0,1531.0
2866.0,2779.0,2879.0,3150.0,3015.0,0.90033,-0.199158,-0.355469,-0.152954,102.0,28.0,69.0,7058.0,-3261.0,5688.0,1315.0,-1214.0,216.0,289.0,-1135.0,1369.0,0.701002,-0.249874,0.667966,15240.0,-5070.0,13000.0,2341.0,652.0,1581.0
2870.0,2789.0,2897.0,3147.0,3023.0,0.905457,-0.191406,-0.351562,-0.141235,93.0,39.0,79.0,7264.0,-3313.0,5926.0,1605.0,-1287.0,358.0,433.0,-1176.0,1670.0,0.690716,-0.247314,0.679566,15514.0,-7300.0,12830.0,2139.0,894.0,1812.0
2880.0,2773.0,2875.0,3143.0,3053.0,0.914612,-0.183044,-0.340881,-0.117493,63.0,46.0,84.0,7286.0,-4007.0,6246.0,1825.0,-1920.0,506.0,404.0,-1692.0,2060.0,0.666561,-0.254727,0.700614,14948.0,-11190.0,14708.0,1450.0,1059.0,1933.0
2878.0,2774.0,2889.0,3135.0,3011.0,0.924011,-0.176392,-0.325134,-0.096436,61.0,65.0,74.0,6906.0,-4846.0,6393.0,1705.0,-2689.0,443.0,273.0,-2407.0,2112.0,0.634876,-0.263267,0.72627,12238.0,-11548.0,13292.0,1406.0,1510.0,1712.0
2855.0,2746.0,2903.0,3141.0,3057.0,0.928711,-0.173035,-0.316162,-0.086914,58.0,71.0,71.0,6542.0,-4954.0,6434.0,1484.0,-2771.0,370.0,208.0,-2501.0,1928.0,0.617325,-0.266441,0.740159,10692.0,-10274.0,13056.0,1340.0,1628.0,1638.0
2879.0,2783.0,2871.0,3135.0,3007.0,0.937195,-0.168762,-0.297485,-0.068604,38.0,64.0,76.0,5629.0,-5167.0,6680.0,871.0,-2910.0,404.0,-173.0,-2597.0,1617.0,0.580759,-0.275509,0.766062,8328.0,-11390.0,14516.0,890.0,1486.0,1752.0
2883.0,2783.0,2875.0,3111.0,2994.0,0.943176,-0.170471,-0.280762,-0.050476,19.0,48.0,72.0,4939.0,-5838.0,7260.0,459.0,-3435.0,835.0,-699.0,-2925.0,1913.0,0.546825,-0.293225,0.784242,8486.0,-14138.0,16310.0,438.0,1101.0,1656.0
2869.0,2783.0,2896.0,3181.0,3047.0,0.945312,-0.172363,-0.273621,-0.042419,15.0,43.0,65.0,4809.0,-6252.0,7544.0,451.0,-3772.0,1065.0,-811.0,-3156.0,2223.0,0.531937,-0.302661,0.790838,8938.0,-14886.0,16666.0,353.0,991.0,1501.0
2863.0,2775.0,2896.0,3143.0,3025.0,0.948669,-0.176025,-0.260986,-0.029114,12.0,37.0,49.0,4644.0,-6624.0,7895.0,503.0,-4012.0,1327.0,-800.0,-3274.0,2597.0,0.505429,-0.318783,0.801723,8834.0,-13580.0,16500.0,288.0,869.0,1133.0
2845.0,2766.0,2911.0,3159.0,3003.0,0.950134,-0.17749,-0.25531,-0.023987,10.0,36.0,41.0,4552.0,-6590.0,8029.0,507.0,-3927.0,1420.0,-771.0,-3155.0,2672.0,0.493673,-0.325031,0.806644,8430.0,-12826.0,16774.0,244.0,836.0,961.0
2879.0,2759.0,2874.0,3127.0,3051.0,0.952515,-0.179932,-0.245056,-0.016174,7.0,30.0,30.0,4191.0,-6322.0,8155.0,318.0,-3578.0,1477.0,-827.0,-2808.0,2552.0,0.47266,-0.334848,0.815118,7258.0,-11698.0,16598.0,163.0,708.0,689.0
2877.0,2751.0,2914.0,3139.0,3047.0,0.954102,-0.182739,-0.237,-0.010193,2.0,20.0,22.0,3849.0,-6250.0,8211.0,113.0,-3432.0,1486.0,-930.0,-2669.0,2451.0,0.455968,-0.343872,0.820851,6842.0,-12856.0,16464.0,53.0,467.0,525.0
2867.0,2777.0,2896.0,3158.0,3037.0,0.954529,-0.184448,-0.23407,-0.007935,1.0,15.0,16.0,3747.0,-6375.0,8232.0,62.0,-3520.0,1495.0,-965.0,-2743.0,2483.0,0.44978,-0.348408,0.822378,6912.0,-13528.0,16624.0,30.0,350.0,389.0
2861.0,2779.0,2906.0,3135.0,3030.0,0.954895,-0.1875,-0.230164,-0.005859,0.0,8.0,0.0,3615.0,-6663.0,8196.0,-3.0,-3751.0,1448.0,-1001.0,-2964.0,2524.0,0.441761,-0.355388,0.823727,6822.0,-14154.0,16008.0,21.0,191.0,3.0
2877.0,2763.0,2891.0,3151.0,3055.0,0.954895,-0.188721,-0.229126,-0.006287,1.0,5.0,-10.0,3568.0,-6680.0,8138.0,-36.0,-3751.0,1389.0,-1006.0,-2981.0,2469.0,0.439955,-0.357536,0.82375,6984.0,-13338.0,16086.0,26.0,125.0,-216.0
2861.0,2771.0,2907.0,3155.0,3051.0,0.954834,-0.190369,-0.227966,-0.010315,-3.0,3.0,-25.0,3356.0,-6482.0,7983.0,-242.0,-3542.0,1236.0,-1127.0,-2845.0,2182.0,0.439267,-0.358838,0.823605,5592.0,-12226.0,15438.0,-53.0,90.0,-560.0
2855.0,2781.0,2914.0,3118.0,3043.0,0.0,-0.00177,0.189575,-0.387512,7859.0,-19862.0,23173.0,28969.0,-12747.0,-5537.0,28957.0,-11543.0,-6472.0,-5390.0,2250.0,996.0,0.001372,-0.146925,0.114224,4308.0,-11314.0,14576.0,-71.0,-73.0,-722.0
2867.0,2783.0,2893.0,3139.0,3023.0,0.954102,-0.192383,-0.228455,-0.019775,-4.0,-7.0,-33.0,2694.0,-5987.0,7556.0,-939.0,-3053.0,826.0,-1577.0,-2560.0,1355.0,0.443547,-0.35807,0.821498,4582.0,-10784.0,14084.0,-72.0,-158.0,-746.0
2863.0,2769.0,2887.0,3151.0,3029.0,0.953186,-0.193665,-0.230591,-0.026367,-5.0,-8.0,-33.0,2614.0,-5736.0,7123.0,-1070.0,-2811.0,417.0,-1526.0,-2478.0,863.0,0.449805,-0.357037,0.818581,5080.0,-11108.0,12682.0,-102.0,-174.0,-736.0
2867.0,2777.0,2907.0,3131.0,3035.0,0.952209,-0.195007,-0.232605,-0.033752,-3.0,-5.0,-40.0,2545.0,-5705.0,6595.0,-1191.0,-2791.0,-87.0,-1454.0,-2637.0,378.0,0.456141,-0.355674,0.815709,4912.0,-11358.0,11728.0,-60.0,-103.0,-911.0
2865.0,2766.0,2870.0,3115.0,3031.0,0.951721,-0.195435,-0.233459,-0.038574,-4.0,-3.0,-47.0,2502.0,-5650.0,6365.0,-1261.0,-2750.0,-307.0,-1440.0,-2673.0,144.0,0.459454,-0.353987,0.814563,4716.0,-10862.0,11354.0,-81.0,-56.0,-1059.0
2863.0,2756.0,2896.0,3135.0,3031.0,0.950256,-0.19751,-0.235474,-0.050476,-17.0,-3.0,-56.0,2557.0,-5509.0,5970.0,-1272.0,-2628.0,-674.0,-1332.0,-2674.0,-217.0,0.46746,-0.351598,0.811077,5566.0,-10780.0,11046.0,-385.0,-47.0,-1275.0
2858.0,2763.0,2879.0,3111.0,3039.0,0.947693,-0.203186,-0.237427,-0.064453,-32.0,-2.0,-59.0,2602.0,-5681.0,5761.0,-1299.0,-2776.0,-830.0,-1396.0,-2835.0,-302.0,0.476207,-0.35451,0.80462,5342.0,-12390.0,11034.0,-731.0,-43.0,-1331.0
2874.0,2770.0,2895.0,3138.0,3031.0,0.946106,-0.207092,-0.238342,-0.071472,-35.0,-3.0,-57.0,2655.0,-5895.0,5716.0,-1282.0,-2963.0,-841.0,-1461.0,-2989.0,-229.0,0.480597,-0.357793,0.800531,5678.0,-13096.0,11204.0,-792.0,-65.0,-1301.0
2874.0,2767.0,2893.0,3147.0,3035.0,0.94281,-0.215149,-0.240112,-0.084778,-35.0,-3.0,-54.0,2724.0,-6117.0,5711.0,-1283.0,-3127.0,-778.0,-1615.0,-3067.0,-102.0,0.48924,-0.364977,0.792135,5404.0,-12292.0,11388.0,-783.0,-65.0,-1226.0
2863.0,2775.0,2899.0,3142.0,3037.0,0.939026,-0.223083,-0.242126,-0.098877,-41.0,-7.0,-61.0,2616.0,-5737.0,5791.0,-1470.0,-2697.0,-624.0,-1804.0,-2552.0,-221.0,0.498842,-0.371081,0.783155,4700.0,-9652.0,12166.0,-934.0,-142.0,-1380.0
2866.0,2769.0,2883.0,3127.0,3035.0,0.936768,-0.227112,-0.243469,-0.107483,-47.0,-7.0,-72.0,2616.0,-5406.0,5939.0,-1520.0,-2349.0,-436.0,-1859.0,-2122.0,-230.0,0.504969,-0.373164,0.778229,5422.0,-8508.0,13168.0,-1063.0,-154.0,-1640.0
2869.0,2765.0,2898.0,3135.0,3035.0,0.930542,-0.237122,-0.247009,-0.129883,-66.0,-2.0,-93.0,2991.0,-5010.0,6235.0,-1279.0,-1920.0,-36.0,-1754.0,-1498.0,29.0,0.521301,-0.377139,0.765538,7770.0,-10252.0,13324.0,-1503.0,-41.0,-2125.0
2874.0,2770.0,2896.0,3135.0,3035.0,0.923706,-0.247253,-0.248535,-0.154541,-58.0,6.0,-94.0,3398.0,-5271.0,6053.0,-989.0,-2158.0,-125.0,-1653.0,-1696.0,196.0,0.535568,-0.379961,0.754212,7912.0,-11472.0,11236.0,-1317.0,150.0,-2135.0
2874.0,2770.0,2897.0,3135.0,3027.0,0.920532,-0.251099,-0.249146,-0.165771,-46.0,6.0,-87.0,3576.0,-5371.0,5889.0,-863.0,-2260.0,-252.0,-1586.0,-1832.0,201.0,0.541943,-0.379686,0.749736,8252.0,-11066.0,10782.0,-1042.0,160.0,-1991.0
2866.0,2768.0,2895.0,3143.0,3039.0,0.915649,-0.2547,-0.250671,-0.18396,-18.0,6.0,-68.0,3886.0,-5144.0,5569.0,-642.0,-2078.0,-530.0,-1289.0,-1829.0,28.0,0.552763,-0.374204,0.744547,8580.0,-8090.0,10356.0,-412.0,148.0,-1553.0
2867.0,2779.0,2905.0,3151.0,3043.0,0.912781,-0.251587,-0.251282,-0.200867,-18.0,17.0,-70.0,3948.0,-2923.0,6334.0,-637.0,12.0,213.0,-575.0,281.0,-201.0,0.559801,-0.358339,0.747078,7532.0,1640.0,15008.0,-406.0,404.0,-1591.0
2864.0,2769.0,2895.0,3142.0,3043.0,0.911072,-0.250305,-0.250671,-0.210815,-36.0,15.0,-72.0,3725.0,-1482.0,6761.0,-881.0,1388.0,625.0,-204.0,1669.0,-513.0,0.562296,-0.350401,0.749006,6338.0,5474.0,16618.0,-822.0,358.0,-1635.0
2875.0,2772.0,2897.0,3135.0,3039.0,0.904724,-0.254578,-0.249939,-0.232788,-73.0,5.0,-73.0,3601.0,97.0,7141.0,-1074.0,2917.0,1034.0,431.0,3135.0,-846.0,0.570777,-0.344279,0.745437,7718.0,1594.0,14322.0,-1671.0,132.0,-1658.0
2869.0,2773.0,2895.0,3141.0,3037.0,0.900879,-0.258423,-0.249756,-0.243286,-67.0,3.0,-71.0,3736.0,-8.0,6921.0,-980.0,2810.0,845.0,578.0,2901.0,-904.0,0.575741,-0.344091,0.741611,8498.0,-978.0,12522.0,-1514.0,83.0,-1615.0
2875.0,2773.0,2897.0,3141.0,3030.0,0.895142,-0.260315,-0.250366,-0.261353,-20.0,14.0,-64.0,4308.0,-125.0,6818.0,-478.0,2620.0,762.0,976.0,2523.0,-594.0,0.584294,-0.33517,0.739137,10234.0,1350.0,13472.0,-442.0,321.0,-1447.0
2871.0,2774.0,2895.0,3147.0,3039.0,0.893005,-0.251526,-0.249084,-0.277832,-4.0,32.0,-56.0,4574.0,1503.0,7594.0,-215.0,4049.0,1455.0,1917.0,3846.0,-293.0,0.584631,-0.310821,0.749341,9394.0,9394.0,18950.0,-74.0,743.0,-1277.0
2871.0,2771.0,2919.0,3135.0,3039.0,0.8927,-0.245911,-0.246399,-0.286133,-13.0,42.0,-49.0,4409.0,2610.0,8015.0,-347.0,5051.0,1808.0,2403.0,4796.0,-337.0,0.580647,-0.298043,0.757601,7364.0,11790.0,17854.0,-278.0,965.0,-1113.0
2867.0,2767.0,2897.0,3135.0,3039.0,0.89093,-0.241638,-0.239563,-0.300842,-48.0,27.0,-29.0,3935.0,3810.0,8295.0,-752.0,6156.0,1999.0,2920.0,5787.0,-657.0,0.572258,-0.286424,0.768483,6932.0,8778.0,17114.0,-1093.0,628.0,-663.0
2871.0,2775.0,2897.0,3146.0,3039.0,0.889648,-0.242798,-0.236145,-0.306335,-52.0,20.0,-20.0,3836.0,3585.0,8230.0,-824.0,5938.0,1917.0,2819.0,5583.0,-697.0,0.568927,-0.28733,0.7706,7230.0,5146.0,15986.0,-1174.0,467.0,-442.0
2871.0,2774.0,2896.0,3147.0,3043.0,0.888,-0.2453,-0.231018,-0.312866,-27.0,12.0,-7.0,3896.0,2523.0,7908.0,-722.0,4907.0,1576.0,2374.0,4589.0,-617.0,0.563781,-0.291098,0.772889,8270.0,1938.0,14628.0,-604.0,288.0,-149.0
