flex_1,flex_2,flex_3,flex_4,flex_5,Qw,Qx,Qy,Qz,GYRx,GYRy,GYRz,ACCx,ACCy,ACCz,ACCx_real,ACCy_real,ACCz_real,ACCx_world,ACCy_world,ACCz_world,GRAx,GRAy,GRAz,ACCx_raw,ACCy_raw,ACCz_raw,GYRx_raw,GYRy_raw,GYRz_raw
2861.0,2783.0,2849.0,3103.0,3003.0,1.0,0.0,0.0,0.0,0.0,0.0,0.0,0.0,0.0,0.0,0.0,0.0,0.0,0.0,0.0,0.0,0.0,0.0,0.0,0.0,0.0,0.0,0.0,0.0,0.0
2862.0,2783.0,2849.0,3095.0,3005.0,0.870972,0.127686,-0.473389,0.031677,-1.0,-1.0,-1.0,7561.0,1614.0,1454.0,739.0,37.0,-2799.0,2685.0,693.0,-830.0,0.832706,0.19243,0.519195,15118.0,3174.0,2752.0,-6.0,-1.0,-14.0
2861.0,2783.0,2851.0,3101.0,3007.0,0.869568,0.128296,-0.475708,0.031738,1.0,-1.0,0.0,7587.0,1641.0,1439.0,742.0,60.0,-2774.0,2666.0,710.0,-795.0,0.835465,0.192928,0.514398,15244.0,3396.0,2800.0,23.0,-5.0,7.0
2859.0,2783.0,2850.0,3095.0,3003.0,0.868896,0.128723,-0.476868,0.03186,1.0,-1.0,0.0,7597.0,1668.0,1432.0,741.0,84.0,-2762.0,2653.0,732.0,-777.0,0.8369,0.193308,0.512024,15218.0,3530.0,2808.0,32.0,-1.0,16.0
2859.0,2781.0,2847.0,3093.0,3003.0,0.867554,0.129456,-0.479065,0.032166,0.0,0.0,1.0,7589.0,1719.0,1414.0,711.0,131.0,-2742.0,2615.0,778.0,-769.0,0.839557,0.193801,0.507422,15162.0,3552.0,2780.0,20.0,5.0,28.0
2859.0,2787.0,2854.0,3099.0,3006.0,0.866943,0.1297,-0.480164,0.032349,0.0,0.0,1.0,7590.0,1724.0,1426.0,701.0,136.0,-2713.0,2587.0,777.0,-754.0,0.84094,0.193819,0.505258,15170.0,3476.0,2946.0,11.0,12.0,31.0
2862.0,2781.0,2847.0,3099.0,3003.0,0.865784,0.130127,-0.482117,0.032532,-1.0,0.0,0.0,7579.0,1732.0,1448.0,670.0,143.0,-2658.0,2527.0,773.0,-739.0,0.843284,0.193955,0.50127,15122.0,3404.0,2916.0,-10.0,20.0,19.0
2861.0,2779.0,2847.0,3099.0,3003.0,0.865173,0.13031,-0.483093,0.032593,-1.0,0.0,0.0,7575.0,1713.0,1449.0,657.0,123.0,-2640.0,2510.0,751.0,-739.0,0.844413,0.193991,0.499227,15136.0,3316.0,2932.0,-16.0,21.0,14.0
2860.0,2778.0,2843.0,3095.0,2999.0,0.864075,0.130554,-0.485046,0.032593,-1.0,0.0,0.0,7579.0,1680.0,1458.0,642.0,90.0,-2600.0,2479.0,710.0,-726.0,0.846743,0.193999,0.495373,15166.0,3238.0,2926.0,-22.0,17.0,14.0
2859.0,2783.0,2847.0,3103.0,3003.0,0.863525,0.130615,-0.485962,0.032654,-2.0,0.0,0.0,7578.0,1659.0,1461.0,632.0,71.0,-2581.0,2463.0,687.0,-724.0,0.847811,0.193842,0.493523,15138.0,3194.0,2954.0,-25.0,17.0,19.0
2863.0,2782.0,2847.0,3099.0,2997.0,0.862427,0.130737,-0.487854,0.032776,-1.0,0.0,0.0,7546.0,1610.0,1459.0,582.0,24.0,-2553.0,2425.0,639.0,-750.0,0.850047,0.193523,0.48976,14926.0,3112.0,2858.0,-9.0,21.0,18.0
2862.0,2783.0,2851.0,3099.0,3003.0,0.861877,0.13092,-0.48877,0.032898,-1.0,0.0,0.0,7523.0,1602.0,1465.0,550.0,16.0,-2531.0,2393.0,628.0,-763.0,0.851133,0.193516,0.487879,14910.0,3176.0,2988.0,-3.0,18.0,14.0
2862.0,2783.0,2850.0,3099.0,3003.0,0.860779,0.131226,-0.490601,0.032898,-1.0,0.0,-1.0,7473.0,1594.0,1483.0,483.0,7.0,-2482.0,2322.0,612.0,-788.0,0.853231,0.193633,0.484113,14802.0,3180.0,3028.0,-11.0,11.0,-9.0
2863.0,2783.0,2847.0,3095.0,3003.0,0.860291,0.131409,-0.491516,0.032715,-1.0,0.0,-2.0,7454.0,1593.0,1489.0,455.0,4.0,-2462.0,2294.0,606.0,-797.0,0.854291,0.19394,0.482314,14816.0,3164.0,3018.0,-22.0,3.0,-23.0
2861.0,2783.0,2847.0,3099.0,3003.0,0.859131,0.131653,-0.493408,0.032349,-2.0,-1.0,-2.0,7445.0,1563.0,1491.0,430.0,-28.0,-2427.0,2261.0,567.0,-798.0,0.856322,0.194292,0.478368,14912.0,2992.0,2988.0,-25.0,-8.0,-25.0
2862.0,2783.0,2847.0,3093.0,2999.0,0.858582,0.131836,-0.494385,0.032227,-1.0,-1.0,-1.0,7454.0,1542.0,1479.0,429.0,-51.0,-2423.0,2264.0,544.0,-796.0,0.857437,0.194519,0.476404,14974.0,2982.0,2898.0,-6.0,-13.0,-22.0
2861.0,2783.0,2846.0,3095.0,3001.0,0.8573,0.132446,-0.496399,0.032043,0.0,-2.0,-2.0,7450.0,1554.0,1502.0,408.0,-45.0,-2364.0,2206.0,537.0,-773.0,0.859613,0.19528,0.472036,14844.0,3184.0,3128.0,5.0,-33.0,-26.0
2863.0,2785.0,2847.0,3095.0,2999.0,0.856689,0.13269,-0.497437,0.03186,-1.0,-2.0,-2.0,7444.0,1573.0,1527.0,392.0,-29.0,-2322.0,2162.0,543.0,-759.0,0.860752,0.195652,0.469882,14826.0,3248.0,3208.0,-10.0,-43.0,-28.0
2859.0,2782.0,2851.0,3095.0,3003.0,0.855408,0.132935,-0.499573,0.031433,-1.0,-3.0,-2.0,7445.0,1531.0,1545.0,375.0,-74.0,-2268.0,2120.0,486.0,-746.0,0.863034,0.19602,0.465466,14946.0,2838.0,3098.0,-21.0,-50.0,-31.0
2862.0,2781.0,2847.0,3095.0,2999.0,0.854736,0.133179,-0.500671,0.031311,0.0,-2.0,-2.0,7449.0,1499.0,1531.0,369.0,-109.0,-2263.0,2121.0,451.0,-750.0,0.864224,0.196312,0.463146,14904.0,2816.0,2958.0,13.0,-45.0,-40.0
2863.0,2783.0,2847.0,3099.0,3007.0,0.853333,0.134094,-0.502808,0.031067,1.0,-3.0,-3.0,7463.0,1528.0,1521.0,364.0,-90.0,-2233.0,2093.0,464.0,-725.0,0.866456,0.197613,0.458345,15010.0,3274.0,3016.0,42.0,-56.0,-46.0
2861.0,2783.0,2847.0,3099.0,3005.0,0.8526,0.134583,-0.503906,0.030945,1.0,-3.0,-2.0,7481.0,1561.0,1504.0,373.0,-63.0,-2230.0,2092.0,489.0,-705.0,0.86759,0.198304,0.455851,15090.0,3332.0,2926.0,33.0,-65.0,-42.0
2863.0,2783.0,2847.0,3099.0,2999.0,0.851074,0.135437,-0.506287,0.030701,1.0,-3.0,-2.0,7549.0,1569.0,1454.0,421.0,-64.0,-2237.0,2125.0,487.0,-654.0,0.870091,0.199447,0.450601,15300.0,3088.0,2750.0,43.0,-66.0,-24.0
2863.0,2783.0,2850.0,3095.0,3003.0,0.850281,0.135986,-0.507446,0.030823,3.0,-3.0,-1.0,7583.0,1572.0,1416.0,445.0,-66.0,-2253.0,2152.0,489.0,-634.0,0.871327,0.199971,0.447933,15352.0,3200.0,2610.0,75.0,-59.0,-20.0
2861.0,2784.0,2847.0,3099.0,3001.0,0.848694,0.13739,-0.509705,0.031128,4.0,-2.0,-1.0,7656.0,1659.0,1368.0,498.0,8.0,-2257.0,2170.0,562.0,-562.0,0.87372,0.201472,0.442575,15520.0,3666.0,2630.0,97.0,-44.0,-6.0
2863.0,2783.0,2851.0,3099.0,3003.0,0.847961,0.138062,-0.510803,0.031311,3.0,-2.0,-1.0,7681.0,1719.0,1356.0,513.0,62.0,-2248.0,2160.0,612.0,-527.0,0.874929,0.202154,0.440038,15522.0,3794.0,2666.0,76.0,-37.0,-1.0
2863.0,2782.0,2852.0,3094.0,2999.0,0.846619,0.138916,-0.512756,0.031494,1.0,-1.0,0.0,7744.0,1772.0,1335.0,559.0,109.0,-2232.0,2160.0,651.0,-459.0,0.876968,0.20292,0.435538,15684.0,3576.0,2598.0,36.0,-3.0,17.0
2863.0,2781.0,2850.0,3095.0,3004.0,0.846008,0.139282,-0.513611,0.031738,2.0,0.0,1.0,7769.0,1771.0,1318.0,577.0,107.0,-2233.0,2171.0,650.0,-439.0,0.877879,0.203066,0.433542,15692.0,3520.0,2554.0,50.0,20.0,23.0
2859.0,2782.0,2847.0,3095.0,3003.0,0.845032,0.140137,-0.515015,0.03241,2.0,2.0,1.0,7781.0,1806.0,1337.0,576.0,139.0,-2187.0,2125.0,672.0,-406.0,0.879491,0.203457,0.430251,15470.0,3774.0,2818.0,62.0,57.0,45.0
2862.0,2787.0,2871.0,3099.0,3003.0,0.844543,0.140442,-0.515625,0.032776,1.0,2.0,2.0,7766.0,1832.0,1370.0,555.0,165.0,-2142.0,2071.0,688.0,-396.0,0.880142,0.203418,0.428735,15438.0,3798.0,2988.0,41.0,58.0,52.0
2863.0,2782.0,2847.0,3099.0,3003.0,0.843811,0.140747,-0.516724,0.033386,0.0,2.0,2.0,7725.0,1826.0,1421.0,504.0,162.0,-2071.0,1987.0,673.0,-405.0,0.881432,0.203025,0.426319,15362.0,3534.0,2938.0,6.0,54.0,58.0
2861.0,2782.0,2847.0,3095.0,2999.0,0.843445,0.140808,-0.517334,0.033691,0.0,2.0,2.0,7715.0,1804.0,1441.0,488.0,143.0,-2041.0,1958.0,649.0,-408.0,0.882173,0.202668,0.425073,15374.0,3494.0,2980.0,10.0,55.0,58.0
2861.0,2783.0,2847.0,3087.0,3003.0,0.842712,0.140991,-0.518372,0.034363,0.0,3.0,2.0,7710.0,1786.0,1479.0,473.0,131.0,-1984.0,1905.0,625.0,-394.0,0.883366,0.202005,0.422757,15392.0,3562.0,3062.0,7.0,72.0,68.0
2863.0,2783.0,2850.0,3102.0,2999.0,0.842407,0.140991,-0.51886,0.034729,0.0,3.0,3.0,7694.0,1774.0,1495.0,452.0,123.0,-1960.0,1876.0,614.0,-402.0,0.883976,0.201505,0.421762,15270.0,3488.0,3078.0,1.0,80.0,72.0
2862.0,2783.0,2847.0,3099.0,3003.0,0.841858,0.14093,-0.519714,0.035461,-1.0,3.0,3.0,7633.0,1737.0,1496.0,382.0,95.0,-1944.0,1836.0,590.0,-459.0,0.885046,0.200427,0.420018,15104.0,3320.0,3058.0,-10.0,79.0,72.0
2863.0,2781.0,2847.0,3099.0,3003.0,0.841614,0.140808,-0.520142,0.035767,-1.0,3.0,3.0,7606.0,1710.0,1495.0,351.0,73.0,-1939.0,1823.0,571.0,-487.0,0.885589,0.199805,0.419219,15046.0,3266.0,3018.0,-16.0,83.0,77.0
2863.0,2782.0,2864.0,3095.0,2999.0,0.841125,0.140564,-0.520935,0.03656,-1.0,3.0,3.0,7553.0,1638.0,1509.0,289.0,12.0,-1912.0,1784.0,511.0,-540.0,0.886622,0.198373,0.417697,14956.0,3074.0,3072.0,-4.0,88.0,78.0
2862.0,2783.0,2847.0,3094.0,3005.0,0.840942,0.140442,-0.521301,0.036987,0.0,3.0,3.0,7522.0,1609.0,1520.0,254.0,-10.0,-1896.0,1760.0,489.0,-567.0,0.887158,0.197644,0.417073,14832.0,3060.0,3094.0,3.0,90.0,74.0
2863.0,2783.0,2847.0,3095.0,2999.0,0.840454,0.14032,-0.522034,0.03772,-1.0,3.0,2.0,7451.0,1570.0,1545.0,175.0,-39.0,-1859.0,1698.0,459.0,-624.0,0.888076,0.196483,0.415577,14716.0,3024.0,3228.0,-8.0,69.0,64.0
2863.0,2779.0,2845.0,3099.0,3003.0,0.840149,0.140198,-0.522461,0.038025,-1.0,2.0,2.0,7428.0,1543.0,1560.0,148.0,-61.0,-1837.0,1672.0,435.0,-642.0,0.888552,0.195841,0.414675,14724.0,2910.0,3194.0,-14.0,59.0,53.0
2862.0,2779.0,2845.0,3095.0,3003.0,0.8396,0.140015,-0.523438,0.038452,-1.0,1.0,1.0,7397.0,1475.0,1574.0,108.0,-121.0,-1807.0,1642.0,372.0,-673.0,0.889724,0.194858,0.412815,14722.0,2762.0,3184.0,-11.0,45.0,40.0
2863.0,2783.0,2849.0,3099.0,3003.0,0.839294,0.139954,-0.523926,0.038696,-1.0,1.0,1.0,7386.0,1461.0,1570.0,92.0,-131.0,-1803.0,1635.0,363.0,-686.0,0.890287,0.194377,0.411827,14722.0,2864.0,3108.0,-1.0,39.0,40.0
2862.0,2783.0,2851.0,3099.0,2999.0,0.838562,0.139954,-0.525085,0.039124,-1.0,0.0,1.0,7385.0,1492.0,1576.0,81.0,-94.0,-1777.0,1601.0,393.0,-673.0,0.891584,0.193633,0.409415,14806.0,3110.0,3168.0,-5.0,11.0,41.0
2863.0,2783.0,2845.0,3095.0,2975.0,0.838135,0.139893,-0.525757,0.039246,-2.0,-1.0,2.0,7400.0,1516.0,1585.0,90.0,-66.0,-1757.0,1583.0,413.0,-649.0,0.89229,0.19323,0.40802,14922.0,3180.0,3216.0,-24.0,-4.0,46.0
2863.0,2783.0,2847.0,3091.0,3003.0,0.837219,0.139587,-0.527283,0.03949,-2.0,-1.0,2.0,7444.0,1503.0,1576.0,120.0,-70.0,-1741.0,1585.0,402.0,-611.0,0.893927,0.192086,0.404984,15000.0,2914.0,3056.0,-27.0,-16.0,55.0
2861.0,2782.0,2847.0,3095.0,3002.0,0.83667,0.139465,-0.528076,0.039734,-1.0,-2.0,2.0,7464.0,1485.0,1550.0,134.0,-83.0,-1753.0,1606.0,392.0,-602.0,0.894734,0.191408,0.40328,15050.0,2852.0,2932.0,-10.0,-24.0,57.0
2859.0,2783.0,2847.0,3099.0,2999.0,0.835571,0.139526,-0.529785,0.040405,1.0,-1.0,2.0,7531.0,1490.0,1513.0,185.0,-69.0,-1761.0,1634.0,405.0,-551.0,0.896622,0.190356,0.399672,15282.0,3120.0,2928.0,26.0,-22.0,68.0
2863.0,2779.0,2847.0,3095.0,2999.0,0.835083,0.139587,-0.530579,0.040771,1.0,-1.0,3.0,7561.0,1513.0,1510.0,208.0,-42.0,-1750.0,1630.0,426.0,-517.0,0.897537,0.189869,0.398028,15306.0,3170.0,3014.0,30.0,-13.0,73.0
2863.0,2779.0,2851.0,3091.0,2999.0,0.834045,0.139771,-0.531982,0.041565,1.0,0.0,3.0,7601.0,1556.0,1503.0,236.0,8.0,-1731.0,1615.0,469.0,-469.0,0.899014,0.188926,0.394818,15254.0,3262.0,2984.0,25.0,7.0,72.0
2863.0,2783.0,2847.0,3099.0,3019.0,0.833618,0.139832,-0.532654,0.04187,0.0,0.0,3.0,7602.0,1588.0,1503.0,231.0,43.0,-1719.0,1596.0,500.0,-460.0,0.899769,0.188528,0.393399,15204.0,3358.0,3044.0,7.0,7.0,69.0
2861.0,2781.0,2851.0,3071.0,3003.0,0.832764,0.139526,-0.533997,0.042236,-3.0,-1.0,3.0,7595.0,1645.0,1558.0,212.0,110.0,-1642.0,1507.0,544.0,-429.0,0.901172,0.187277,0.390659,15154.0,3448.0,3320.0,-56.0,-3.0,74.0
2862.0,2768.0,2843.0,3098.0,3003.0,0.832397,0.139221,-0.534668,0.042236,-4.0,-1.0,2.0,7584.0,1651.0,1569.0,195.0,122.0,-1621.0,1479.0,550.0,-432.0,0.901873,0.18661,0.389417,15118.0,3266.0,3212.0,-85.0,-7.0,64.0
2863.0,2779.0,2847.0,3091.0,2999.0,0.831726,0.138306,-0.536011,0.042175,-5.0,0.0,2.0,7607.0,1600.0,1587.0,207.0,85.0,-1584.0,1462.0,501.0,-410.0,0.903294,0.184852,0.387111,15304.0,3060.0,3184.0,-99.0,4.0,62.0
2861.0,2783.0,2850.0,3095.0,2999.0,0.831421,0.137817,-0.536621,0.042236,-4.0,0.0,2.0,7613.0,1573.0,1575.0,207.0,66.0,-1587.0,1470.0,482.0,-413.0,0.903958,0.183839,0.386089,15238.0,2992.0,3050.0,-89.0,16.0,67.0
2863.0,2783.0,2847.0,3099.0,3003.0,0.83075,0.137085,-0.537781,0.042419,-4.0,0.0,3.0,7599.0,1558.0,1558.0,183.0,65.0,-1587.0,1461.0,482.0,-431.0,0.905152,0.182142,0.383944,15144.0,3136.0,3120.0,-69.0,21.0,75.0
2859.0,2779.0,2847.0,3099.0,2999.0,0.830444,0.136658,-0.538391,0.042542,-4.0,0.0,3.0,7585.0,1564.0,1553.0,164.0,79.0,-1583.0,1448.0,495.0,-443.0,0.905835,0.181165,0.382907,15078.0,3156.0,3082.0,-81.0,12.0,86.0
2859.0,2781.0,2843.0,3099.0,3003.0,0.829773,0.135559,-0.539673,0.042847,-4.0,0.0,4.0,7590.0,1489.0,1539.0,157.0,24.0,-1579.0,1455.0,439.0,-454.0,0.907228,0.17872,0.380736,15200.0,2666.0,2988.0,-85.0,10.0,98.0
2863.0,2783.0,2847.0,3090.0,3003.0,0.829407,0.135071,-0.540344,0.043091,-3.0,0.0,4.0,7588.0,1448.0,1521.0,149.0,-5.0,-1588.0,1467.0,413.0,-468.0,0.907971,0.17749,0.379556,15164.0,2676.0,2942.0,-63.0,14.0,95.0
2863.0,2783.0,2846.0,3095.0,3003.0,0.828674,0.134338,-0.541565,0.04364,-3.0,0.0,3.0,7589.0,1431.0,1501.0,140.0,-5.0,-1589.0,1466.0,413.0,-473.0,0.909287,0.175378,0.377266,15214.0,2868.0,2952.0,-49.0,8.0,87.0
2859.0,2778.0,2847.0,3091.0,3003.0,0.828308,0.134033,-0.542236,0.043823,-3.0,0.0,3.0,7594.0,1441.0,1498.0,139.0,11.0,-1582.0,1456.0,426.0,-466.0,0.910025,0.174516,0.37603,15232.0,2934.0,2972.0,-60.0,9.0,81.0
2861.0,2783.0,2847.0,3095.0,2999.0,0.827698,0.133118,-0.543335,0.044067,-5.0,1.0,3.0,7600.0,1446.0,1496.0,135.0,33.0,-1568.0,1439.0,442.0,-457.0,0.911167,0.172476,0.374092,15166.0,2906.0,2998.0,-93.0,38.0,79.0
2863.0,2783.0,2851.0,3099.0,3003.0,0.827515,0.132568,-0.543762,0.044067,-5.0,2.0,2.0,7582.0,1456.0,1486.0,113.0,51.0,-1573.0,1431.0,461.0,-475.0,0.911626,0.17148,0.373471,15020.0,2964.0,2936.0,-107.0,49.0,67.0
2863.0,2783.0,2847.0,3103.0,3003.0,0.827209,0.131348,-0.544556,0.043701,-8.0,2.0,2.0,7531.0,1482.0,1507.0,56.0,91.0,-1543.0,1375.0,492.0,-508.0,0.912403,0.169709,0.372392,14900.0,3008.0,3134.0,-168.0,47.0,51.0
2861.0,2778.0,2846.0,3095.0,2999.0,0.827087,0.130493,-0.544983,0.043335,-10.0,1.0,2.0,7508.0,1473.0,1518.0,30.0,91.0,-1528.0,1352.0,487.0,-525.0,0.912807,0.168625,0.371917,14918.0,2838.0,3110.0,-207.0,40.0,48.0
2862.0,2779.0,2846.0,3095.0,3015.0,0.826843,0.128479,-0.545898,0.042419,-10.0,1.0,1.0,7455.0,1384.0,1553.0,-29.0,22.0,-1485.0,1308.0,407.0,-573.0,0.913645,0.166151,0.370957,14706.0,2488.0,3206.0,-228.0,30.0,34.0
2863.0,2783.0,2847.0,3099.0,3005.0,0.826721,0.127441,-0.546326,0.04187,-11.0,0.0,1.0,7408.0,1346.0,1563.0,-79.0,-5.0,-1472.0,1283.0,378.0,-618.0,0.91399,0.164968,0.370508,14500.0,2502.0,3132.0,-231.0,16.0,24.0
2863.0,2783.0,2894.0,3099.0,2999.0,0.826294,0.125305,-0.547607,0.040527,-12.0,-2.0,0.0,7342.0,1302.0,1588.0,-154.0,-30.0,-1433.0,1227.0,342.0,-674.0,0.915126,0.162692,0.368829,14588.0,2436.0,3290.0,-268.0,-35.0,18.0
2859.0,2782.0,2847.0,3099.0,3003.0,0.82605,0.124146,-0.548279,0.039795,-12.0,-2.0,0.0,7323.0,1287.0,1598.0,-178.0,-35.0,-1416.0,1205.0,330.0,-689.0,0.915692,0.161463,0.36792,14510.0,2530.0,3224.0,-268.0,-33.0,7.0
2855.0,2783.0,2847.0,3095.0,2999.0,0.825562,0.122009,-0.549622,0.037842,-14.0,-3.0,-2.0,7254.0,1385.0,1645.0,-255.0,75.0,-1353.0,1100.0,419.0,-716.0,0.916727,0.159855,0.366014,14230.0,3300.0,3490.0,-311.0,-48.0,-24.0
2864.0,2781.0,2850.0,3099.0,3003.0,0.825378,0.120789,-0.550293,0.036438,-17.0,-4.0,-3.0,7210.0,1477.0,1696.0,-303.0,172.0,-1295.0,1013.0,498.0,-723.0,0.917202,0.159289,0.365165,14166.0,3496.0,3742.0,-386.0,-71.0,-48.0
2864.0,2781.0,2853.0,3091.0,3005.0,0.825012,0.117554,-0.551758,0.032288,-25.0,-5.0,-5.0,7102.0,1590.0,1814.0,-418.0,292.0,-1163.0,833.0,582.0,-760.0,0.918005,0.158337,0.363432,13810.0,3338.0,3926.0,-569.0,-105.0,-114.0
2861.0,2771.0,2847.0,3091.0,2999.0,0.824951,0.115479,-0.55249,0.029602,-29.0,-5.0,-7.0,7040.0,1584.0,1864.0,-483.0,291.0,-1108.0,763.0,568.0,-799.0,0.918392,0.157819,0.36284,13668.0,3052.0,4044.0,-642.0,-109.0,-156.0
2861.0,2782.0,2847.0,3094.0,2999.0,0.82489,0.11084,-0.553833,0.022827,-36.0,-6.0,-14.0,6762.0,1600.0,2002.0,-764.0,309.0,-963.0,530.0,566.0,-1001.0,0.918763,0.157577,0.361948,12416.0,3370.0,4594.0,-805.0,-132.0,-299.0
2861.0,2783.0,2847.0,3099.0,3003.0,0.825012,0.108215,-0.554321,0.018188,-43.0,-8.0,-18.0,6503.0,1667.0,2125.0,-1022.0,369.0,-840.0,316.0,618.0,-1184.0,0.91858,0.158393,0.361993,11306.0,3798.0,5056.0,-967.0,-161.0,-406.0
2859.0,2782.0,2851.0,3099.0,3003.0,0.825562,0.101013,-0.555176,0.004272,-68.0,-12.0,-33.0,5686.0,1750.0,2498.0,-1830.0,422.0,-476.0,-316.0,687.0,-1783.0,0.917527,0.162041,0.363146,8534.0,3252.0,6266.0,-1549.0,-264.0,-755.0
2859.0,2778.0,2847.0,3095.0,2999.0,0.825989,0.096008,-0.55542,-0.005615,-84.0,-15.0,-45.0,5169.0,1649.0,2763.0,-2338.0,298.0,-223.0,-719.0,597.0,-2174.0,0.916463,0.164841,0.36458,7132.0,2704.0,7236.0,-1914.0,-323.0,-1010.0
2859.0,2777.0,2845.0,3098.0,2995.0,0.827026,0.082153,-0.554993,-0.035217,-138.0,-22.0,-80.0,3965.0,1733.0,3452.0,-3507.0,299.0,417.0,-1732.0,777.0,-2992.0,0.912201,0.174977,0.370447,4194.0,3826.0,8956.0,-3156.0,-483.0,-1830.0
2863.0,2783.0,2845.0,3099.0,3003.0,0.826599,0.06012,-0.553101,-0.084656,-218.0,-32.0,-135.0,2802.0,1709.0,3857.0,-4605.0,127.0,736.0,-2392.0,1070.0,-3859.0,0.904206,0.193036,0.380898,2372.0,2784.0,8212.0,-4990.0,-728.0,-3084.0
2863.0,2787.0,2849.0,3095.0,2998.0,0.824707,0.045471,-0.551208,-0.11792,-261.0,-36.0,-165.0,2378.0,1571.0,3820.0,-4982.0,-108.0,640.0,-2420.0,1149.0,-4249.0,0.898447,0.204998,0.388148,2446.0,2272.0,7114.0,-5960.0,-820.0,-3777.0
2863.0,2783.0,2847.0,3103.0,3003.0,0.814758,0.008972,-0.543457,-0.201904,-349.0,-37.0,-231.0,2166.0,1429.0,3016.0,-5058.0,-488.0,-335.0,-1515.0,1196.0,-4712.0,0.881949,0.234073,0.40917,4954.0,2824.0,1898.0,-7988.0,-840.0,-5273.0
2863.0,2783.0,2850.0,3095.0,2999.0,0.791199,-0.036072,-0.525818,-0.310181,-442.0,-13.0,-317.0,3698.0,1341.0,1005.0,-3301.0,-863.0,-2635.0,836.0,-209.0,-4223.0,0.85443,0.269117,0.444422,14812.0,2206.0,-4446.0,-10113.0,-287.0,-7251.0
2863.0,2777.0,2847.0,3095.0,3003.0,0.773071,-0.057739,-0.509521,-0.373413,-472.0,24.0,-381.0,5373.0,1409.0,-138.0,-1433.0,-976.0,-4022.0,2084.0,-1843.0,-3381.0,0.830914,0.291251,0.474131,21800.0,3700.0,-7142.0,-10804.0,566.0,-8714.0
2859.0,2779.0,2850.0,3099.0,3003.0,0.720032,-0.082581,-0.455322,-0.517151,-494.0,149.0,-538.0,9602.0,2355.0,-2136.0,3530.0,-528.0,-6819.0,3634.0,-6624.0,-1468.0,0.741106,0.352019,0.571753,31938.0,7800.0,-9124.0,-11304.0,3424.0,-12309.0
2855.0,2790.0,2847.0,3093.0,2997.0,0.643188,-0.072571,-0.366821,-0.668213,-485.0,301.0,-644.0,12674.0,3775.0,-2325.0,8013.0,523.0,-8226.0,2262.0,-11211.0,-1160.0,0.568856,0.396876,0.720375,32126.0,10824.0,-3120.0,-11094.0,6914.0,-14733.0
2863.0,2782.0,2850.0,3098.0,3003.0,0.596924,-0.053528,-0.308655,-0.738586,-473.0,383.0,-666.0,13125.0,3685.0,-2231.0,9458.0,473.0,-8814.0,320.0,-12654.0,-2665.0,0.447557,0.392032,0.803695,27258.0,5408.0,-4774.0,-10831.0,8775.0,-15255.0
2857.0,2781.0,2850.0,3095.0,3007.0,0.493591,0.005615,-0.169861,-0.852966,-432.0,486.0,-635.0,10797.0,-15.0,-2897.0,9501.0,-2434.0,-10616.0,-5034.0,-9927.0,-9220.0,0.158104,0.295314,0.9423,10828.0,-15748.0,-6862.0,-9878.0,11148.0,-14527.0
2859.0,2783.0,2853.0,3102.0,3006.0,0.390686,0.079712,-0.021484,-0.916809,-344.0,492.0,-493.0,5584.0,-5248.0,-2416.0,6643.0,-6080.0,-10496.0,-7154.0,-323.0,-11830.0,-0.129374,0.101679,0.986359,-8376.0,-24718.0,-1886.0,-7862.0,11279.0,-11289.0
2851.0,2779.0,2839.0,3095.0,3002.0,0.344604,0.118591,0.044617,-0.930176,-281.0,457.0,-409.0,2013.0,-7458.0,-1409.0,4072.0,-7447.0,-9338.0,-6070.0,4619.0,-10052.0,-0.251372,-0.001269,0.967925,-17952.0,-27862.0,4304.0,-6415.0,10474.0,-9347.0
2855.0,2779.0,2847.0,3089.0,2999.0,0.274719,0.18988,0.139954,-0.932129,-117.0,318.0,-215.0,-5917.0,-10459.0,2048.0,-2387.0,-9176.0,-5232.0,-1882.0,10437.0,-2184.0,-0.430882,-0.156582,0.888693,-32768.0,-26716.0,15292.0,-2666.0,7298.0,-4902.0
2855.0,2781.0,2851.0,3095.0,2999.0,0.241272,0.238892,0.171936,-0.924744,40.0,147.0,-50.0,-10733.0,-9751.0,5463.0,-6433.0,-8090.0,-1309.0,1144.0,9579.0,3933.0,-0.524794,-0.202718,0.826732,-32768.0,-11920.0,20220.0,918.0,3377.0,-1134.0
2853.0,2779.0,2851.0,3099.0,3003.0,0.236023,0.254822,0.16803,-0.922546,84.0,75.0,1.0,-12232.0,-7747.0,6815.0,-7730.0,-6192.0,149.0,2579.0,7792.0,5543.0,-0.549488,-0.189743,0.813631,-32768.0,-2868.0,22160.0,1931.0,1730.0,40.0
2859.0,2783.0,2847.0,3095.0,3007.0,0.237244,0.271973,0.142395,-0.921631,96.0,-22.0,42.0,-14142.0,-3093.0,8445.0,-9481.0,-1999.0,1797.0,5202.0,4400.0,7118.0,-0.568881,-0.133424,0.811442,-32768.0,6756.0,21238.0,2199.0,-498.0,984.0
2863.0,2783.0,2852.0,3103.0,3007.0,0.243347,0.275391,0.116089,-0.922729,58.0,-53.0,32.0,-14451.0,413.0,9404.0,-9824.0,1070.0,2675.0,6510.0,1937.0,7659.0,-0.564722,-0.080206,0.821331,-26382.0,9210.0,21236.0,1344.0,-1211.0,738.0
2855.0,2779.0,2847.0,3070.0,3001.0,0.246521,0.273743,0.107544,-0.923462,30.0,-50.0,25.0,-13549.0,1365.0,9652.0,-8972.0,1886.0,2876.0,6205.0,984.0,7270.0,-0.558606,-0.063659,0.827054,-20864.0,7558.0,20404.0,703.0,-1142.0,580.0
2855.0,2780.0,2847.0,3095.0,3015.0,0.253235,0.268494,0.100464,-0.92395,-7.0,-29.0,24.0,-10711.0,1418.0,9423.0,-6229.0,1824.0,2577.0,4336.0,196.0,5470.0,-0.547031,-0.049663,0.83563,-12390.0,486.0,17008.0,-151.0,-646.0,550.0
2851.0,2781.0,2846.0,3095.0,2999.0,0.26001,0.266296,0.098633,-0.922913,4.0,-5.0,29.0,-8056.0,258.0,8564.0,-3609.0,615.0,1693.0,2191.0,479.0,3352.0,-0.542828,-0.04358,0.838731,-9162.0,-2976.0,14470.0,93.0,-106.0,686.0
2855.0,2783.0,2849.0,3095.0,2999.0,0.262817,0.267151,0.096497,-0.922119,18.0,3.0,30.0,-7097.0,-221.0,8150.0,-2645.0,86.0,1279.0,1383.0,665.0,2506.0,-0.543412,-0.037539,0.838696,-8820.0,-3042.0,13928.0,434.0,83.0,707.0
2853.0,2774.0,2850.0,3103.0,2999.0,0.266968,0.271851,0.088013,-0.920349,41.0,9.0,30.0,-5987.0,-493.0,7512.0,-1502.0,-354.0,658.0,576.0,762.0,1378.0,-0.547388,-0.016854,0.836665,-9780.0,-842.0,13438.0,942.0,218.0,692.0
2855.0,2781.0,2849.0,3095.0,3003.0,0.268677,0.274597,0.082703,-0.919556,42.0,7.0,28.0,-5764.0,-332.0,7284.0,-1262.0,-294.0,439.0,528.0,682.0,1061.0,-0.549455,-0.004544,0.835526,-10440.0,546.0,13274.0,964.0,161.0,645.0
2855.0,2775.0,2847.0,3099.0,3003.0,0.271667,0.27832,0.073059,-0.918396,28.0,-5.0,19.0,-5651.0,192.0,6979.0,-1137.0,52.0,143.0,753.0,436.0,746.0,-0.550912,0.017027,0.834455,-11198.0,1908.0,13240.0,647.0,-101.0,456.0
2859.0,2781.0,2850.0,3095.0,3003.0,0.272949,0.278625,0.069702,-0.918152,17.0,-11.0,15.0,-5627.0,391.0,6865.0,-1123.0,193.0,24.0,874.0,350.0,641.0,-0.549691,0.024107,0.835014,-11100.0,1850.0,13088.0,406.0,-244.0,351.0
2861.0,2783.0,2851.0,3101.0,3003.0,0.274963,0.276733,0.066223,-0.918396,1.0,-18.0,6.0,-5498.0,477.0,6680.0,-1035.0,226.0,-185.0,929.0,345.0,415.0,-0.54472,0.030545,0.838089,-10478.0,662.0,12808.0,45.0,-405.0,151.0
2855.0,2780.0,2845.0,3091.0,2999.0,0.275513,0.275085,0.065613,-0.918762,-1.0,-19.0,2.0,-5411.0,356.0,6579.0,-973.0,101.0,-302.0,874.0,454.0,276.0,-0.541631,0.031014,0.840054,-10282.0,-98.0,12550.0,-18.0,-424.0,65.0
2851.0,2779.0,2851.0,3103.0,2999.0,0.275574,0.271667,0.065002,-0.9198,1.0,-18.0,-2.0,-5159.0,82.0,6387.0,-771.0,-164.0,-526.0,695.0,642.0,-35.0,-0.535585,0.03015,0.843944,-9500.0,-562.0,12282.0,28.0,-398.0,-30.0
2853.0,2783.0,2851.0,3095.0,2999.0,0.275391,0.270203,0.064514,-0.920349,3.0,-17.0,-2.0,-5022.0,4.0,6321.0,-656.0,-242.0,-607.0,609.0,675.0,-171.0,-0.532895,0.030071,0.845711,-9220.0,-368.0,12300.0,72.0,-369.0,-27.0
2855.0,2783.0,2847.0,3103.0,2999.0,0.275146,0.267761,0.063049,-0.921204,4.0,-13.0,0.0,-4829.0,4.0,6242.0,-503.0,-251.0,-710.0,544.0,636.0,-344.0,-0.528021,0.031185,0.84865,-9232.0,218.0,12274.0,102.0,-296.0,5.0
2854.0,2779.0,2851.0,3095.0,2999.0,0.275024,0.266846,0.062317,-0.92157,4.0,-12.0,0.0,-4784.0,60.0,6215.0,-474.0,-201.0,-746.0,567.0,588.0,-391.0,-0.526111,0.031919,0.849839,-9340.0,452.0,12292.0,93.0,-261.0,0.0
2853.0,2779.0,2849.0,3095.0,3005.0,0.274841,0.265686,0.061218,-0.922058,2.0,-8.0,-1.0,-4736.0,153.0,6184.0,-446.0,-118.0,-790.0,612.0,515.0,-442.0,-0.523607,0.033149,0.851392,-9412.0,548.0,12364.0,57.0,-170.0,-13.0
2859.0,2782.0,2850.0,3101.0,3005.0,0.274719,0.265442,0.060974,-0.922119,1.0,-5.0,-1.0,-4743.0,180.0,6177.0,-458.0,-93.0,-799.0,638.0,501.0,-443.0,-0.52304,0.033393,0.851597,-9562.0,446.0,12292.0,31.0,-112.0,-5.0
2855.0,2789.0,2849.0,3095.0,3003.0,0.274536,0.265991,0.060669,-0.922058,2.0,0.0,-1.0,-4810.0,200.0,6148.0,-518.0,-79.0,-824.0,700.0,524.0,-432.0,-0.52383,0.034168,0.851129,-9962.0,544.0,12208.0,64.0,3.0,-2.0
2859.0,2778.0,2846.0,3099.0,2999.0,0.274353,0.266785,0.060486,-0.921936,3.0,1.0,-1.0,-4889.0,236.0,6137.0,-587.0,-49.0,-829.0,769.0,533.0,-398.0,-0.525106,0.034858,0.850403,-10290.0,718.0,12238.0,77.0,43.0,-10.0
2855.0,2779.0,2851.0,3099.0,2995.0,0.273682,0.268921,0.059998,-0.921509,4.0,4.0,-2.0,-5060.0,360.0,6141.0,-730.0,60.0,-807.0,920.0,502.0,-296.0,-0.528466,0.036621,0.848162,-10630.0,1094.0,12330.0,95.0,99.0,-37.0
2859.0,2783.0,2847.0,3099.0,3003.0,0.273315,0.270142,0.059814,-0.921265,3.0,4.0,-2.0,-5152.0,418.0,6144.0,-806.0,111.0,-793.0,996.0,490.0,-239.0,-0.53044,0.037458,0.846876,-10874.0,1206.0,12316.0,87.0,108.0,-32.0
2855.0,2781.0,2847.0,3101.0,3007.0,0.272705,0.272583,0.059509,-0.920776,3.0,3.0,-2.0,-5329.0,506.0,6161.0,-950.0,185.0,-755.0,1120.0,485.0,-122.0,-0.534433,0.03908,0.844354,-11180.0,1330.0,12418.0,76.0,86.0,-29.0
2855.0,2779.0,2847.0,3095.0,3005.0,0.272339,0.273682,0.059387,-0.920532,3.0,2.0,-2.0,-5394.0,552.0,6178.0,-1001.0,226.0,-728.0,1166.0,466.0,-68.0,-0.536212,0.039733,0.84312,-11132.0,1394.0,12500.0,71.0,61.0,-45.0
2851.0,2781.0,2843.0,3095.0,2999.0,0.271545,0.27533,0.059082,-0.920288,1.0,0.0,-3.0,-5438.0,666.0,6234.0,-1023.0,331.0,-658.0,1205.0,368.0,11.0,-0.538852,0.040784,0.84137,-10950.0,1640.0,12636.0,32.0,18.0,-68.0
2855.0,2783.0,2845.0,3103.0,3007.0,0.271179,0.27594,0.059082,-0.920227,0.0,-1.0,-4.0,-5451.0,699.0,6257.0,-1028.0,363.0,-630.0,1213.0,335.0,40.0,-0.539898,0.040921,0.840722,-10968.0,1572.0,12676.0,2.0,-1.0,-76.0
2858.0,2783.0,2847.0,3095.0,2999.0,0.270569,0.276733,0.059509,-0.920166,-3.0,-1.0,-3.0,-5430.0,696.0,6318.0,-994.0,366.0,-561.0,1158.0,297.0,81.0,-0.541484,0.040234,0.83979,-10720.0,1262.0,12864.0,-50.0,-15.0,-67.0
2859.0,2779.0,2849.0,3094.0,2999.0,0.270386,0.2771,0.059875,-0.920044,-3.0,-1.0,-2.0,-5391.0,647.0,6350.0,-948.0,322.0,-524.0,1084.0,303.0,87.0,-0.542267,0.039671,0.83922,-10524.0,976.0,12896.0,-58.0,-6.0,-38.0
2850.0,2777.0,2847.0,3099.0,2999.0,0.27063,0.277954,0.060364,-0.919739,-1.0,1.0,2.0,-5308.0,495.0,6395.0,-851.0,172.0,-472.0,912.0,372.0,74.0,-0.543963,0.039408,0.838258,-10440.0,482.0,12916.0,-11.0,36.0,55.0
2855.0,2783.0,2854.0,3099.0,2999.0,0.270996,0.278687,0.060364,-0.919373,1.0,2.0,4.0,-5281.0,422.0,6418.0,-815.0,93.0,-441.0,829.0,415.0,78.0,-0.54515,0.040052,0.837375,-10396.0,472.0,12966.0,37.0,65.0,105.0
2853.0,2783.0,2847.0,3095.0,3005.0,0.271912,0.280701,0.059509,-0.918579,5.0,4.0,6.0,-5285.0,354.0,6438.0,-795.0,0.0,-405.0,747.0,476.0,97.0,-0.548054,0.043324,0.835389,-10666.0,674.0,12922.0,136.0,101.0,159.0
2851.0,2775.0,2847.0,3093.0,3003.0,0.2724,0.28186,0.058716,-0.918091,7.0,4.0,6.0,-5315.0,381.0,6445.0,-813.0,6.0,-388.0,754.0,476.0,123.0,-0.549535,0.045745,0.8342,-10816.0,984.0,12916.0,161.0,96.0,157.0
2859.0,2779.0,2846.0,3098.0,2999.0,0.273071,0.283936,0.057129,-0.917358,5.0,1.0,4.0,-5394.0,527.0,6456.0,-870.0,115.0,-361.0,838.0,404.0,185.0,-0.552142,0.050254,0.832231,-11048.0,1550.0,12952.0,128.0,40.0,98.0
2854.0,2783.0,2847.0,3099.0,3002.0,0.273254,0.284607,0.05658,-0.917114,3.0,-1.0,2.0,-5424.0,601.0,6457.0,-894.0,176.0,-355.0,883.0,362.0,208.0,-0.552955,0.05176,0.831564,-11014.0,1596.0,12936.0,82.0,-1.0,52.0
2855.0,2779.0,2847.0,3095.0,3003.0,0.273193,0.285095,0.056152,-0.917053,-1.0,-4.0,-1.0,-5415.0,626.0,6469.0,-880.0,193.0,-340.0,875.0,337.0,214.0,-0.553576,0.052783,0.831189,-10726.0,1188.0,12938.0,-1.0,-73.0,-20.0
2855.0,2779.0,2847.0,3099.0,3002.0,0.273071,0.285034,0.056213,-0.917114,-1.0,-5.0,-2.0,-5381.0,594.0,6473.0,-846.0,163.0,-336.0,834.0,345.0,197.0,-0.553518,0.052561,0.831262,-10520.0,954.0,13018.0,-22.0,-92.0,-39.0
2855.0,2779.0,2847.0,3099.0,2999.0,0.272705,0.284729,0.056458,-0.917297,-1.0,-4.0,-2.0,-5261.0,487.0,6485.0,-729.0,63.0,-327.0,696.0,372.0,134.0,-0.553155,0.051717,0.831544,-10108.0,642.0,12966.0,-9.0,-78.0,-38.0
2859.0,2783.0,2859.0,3101.0,3003.0,0.272522,0.284668,0.056458,-0.917358,0.0,-3.0,-2.0,-5193.0,444.0,6491.0,-662.0,21.0,-321.0,625.0,375.0,100.0,-0.553057,0.051573,0.831591,-9956.0,650.0,13020.0,16.0,-54.0,-27.0
2855.0,2779.0,2847.0,3093.0,2999.0,0.272217,0.285095,0.056152,-0.917297,3.0,0.0,0.0,-5073.0,414.0,6484.0,-537.0,-13.0,-324.0,522.0,345.0,27.0,-0.553605,0.052199,0.831104,-9896.0,814.0,12922.0,74.0,6.0,5.0
2853.0,2775.0,2843.0,3091.0,3003.0,0.272095,0.285583,0.055725,-0.917236,4.0,1.0,0.0,-5063.0,433.0,6471.0,-522.0,-2.0,-334.0,523.0,331.0,11.0,-0.55422,0.053185,0.830695,-10124.0,1002.0,12858.0,95.0,23.0,21.0
2857.0,2779.0,2851.0,3095.0,3002.0,0.272095,0.286804,0.05481,-0.916931,4.0,1.0,1.0,-5136.0,514.0,6458.0,-582.0,58.0,-337.0,598.0,309.0,47.0,-0.555786,0.055563,0.829538,-10574.0,1266.0,12926.0,93.0,25.0,35.0
2855.0,2783.0,2847.0,3099.0,2999.0,0.272095,0.287415,0.054443,-0.916748,3.0,0.0,1.0,-5194.0,556.0,6465.0,-634.0,92.0,-325.0,645.0,301.0,88.0,-0.556601,0.056586,0.828891,-10712.0,1358.0,12958.0,71.0,12.0,28.0
2854.0,2783.0,2847.0,3097.0,2999.0,0.272156,0.288208,0.054138,-0.916504,-1.0,-1.0,0.0,-5274.0,632.0,6472.0,-704.0,159.0,-311.0,722.0,274.0,144.0,-0.557756,0.057639,0.828053,-10696.0,1394.0,12952.0,-3.0,-11.0,7.0
2855.0,2777.0,2843.0,3103.0,2997.0,0.272156,0.288513,0.05426,-0.916382,-2.0,-1.0,-1.0,-5292.0,639.0,6467.0,-718.0,167.0,-313.0,736.0,274.0,151.0,-0.558311,0.057595,0.82764,-10660.0,1334.0,12908.0,-29.0,-16.0,-5.0
2851.0,2778.0,2845.0,3091.0,3002.0,0.272034,0.289001,0.054688,-0.91626,-2.0,-1.0,-2.0,-5313.0,607.0,6467.0,-730.0,139.0,-307.0,727.0,302.0,162.0,-0.559355,0.05702,0.827022,-10672.0,1050.0,12918.0,-30.0,-13.0,-25.0
2851.0,2781.0,2851.0,3103.0,2997.0,0.271912,0.289307,0.054871,-0.916199,-1.0,-1.0,-1.0,-5328.0,585.0,6459.0,-740.0,119.0,-312.0,725.0,324.0,163.0,-0.559965,0.056787,0.826647,-10734.0,1032.0,12858.0,-19.0,-8.0,-18.0
2858.0,2779.0,2855.0,3095.0,3015.0,0.271851,0.289917,0.055054,-0.915955,0.0,-1.0,0.0,-5373.0,550.0,6456.0,-777.0,84.0,-308.0,730.0,370.0,186.0,-0.561034,0.056775,0.825793,-10926.0,1032.0,12900.0,10.0,-11.0,9.0
2855.0,2779.0,2841.0,3095.0,2999.0,0.271851,0.290283,0.054993,-0.915894,1.0,-2.0,0.0,-5403.0,547.0,6450.0,-802.0,79.0,-312.0,746.0,387.0,197.0,-0.561637,0.057092,0.825475,-10992.0,1110.0,12850.0,25.0,-23.0,15.0
2854.0,2827.0,2851.0,3095.0,2999.0,0.271851,0.290771,0.054688,-0.91571,0.0,-3.0,0.0,-5422.0,597.0,6448.0,-815.0,122.0,-309.0,776.0,356.0,210.0,-0.562259,0.057937,0.82489,-10816.0,1344.0,12914.0,20.0,-57.0,10.0
2859.0,2786.0,2851.0,3102.0,2999.0,0.271851,0.290833,0.054504,-0.91571,0.0,-4.0,0.0,-5407.0,616.0,6441.0,-800.0,138.0,-316.0,778.0,337.0,197.0,-0.562271,0.058305,0.824874,-10676.0,1358.0,12852.0,11.0,-73.0,4.0
2855.0,2783.0,2851.0,3101.0,3007.0,0.271851,0.29071,0.054321,-0.915771,-1.0,-4.0,-1.0,-5326.0,634.0,6424.0,-722.0,154.0,-335.0,743.0,292.0,138.0,-0.561983,0.058568,0.825077,-10354.0,1246.0,12798.0,-17.0,-88.0,-4.0
2864.0,2781.0,2849.0,3099.0,2999.0,0.271912,0.290588,0.054382,-0.915771,-1.0,-4.0,0.0,-5281.0,617.0,6421.0,-678.0,138.0,-338.0,706.0,286.0,110.0,-0.5618,0.058425,0.825174,-10316.0,1106.0,12834.0,-21.0,-78.0,2.0
2855.0,2782.0,2850.0,3095.0,2995.0,0.271973,0.290649,0.054382,-0.915771,0.0,-2.0,0.0,-5214.0,550.0,6422.0,-610.0,70.0,-337.0,623.0,312.0,68.0,-0.561918,0.058494,0.825172,-10276.0,884.0,12900.0,9.0,-35.0,12.0
2858.0,2783.0,2850.0,3095.0,3003.0,0.272034,0.290833,0.054321,-0.91571,1.0,-1.0,0.0,-5194.0,533.0,6426.0,-588.0,51.0,-332.0,595.0,316.0,59.0,-0.562191,0.058747,0.824994,-10308.0,992.0,12876.0,24.0,-11.0,18.0
2859.0,2783.0,2847.0,3099.0,2999.0,0.272156,0.291565,0.054077,-0.915405,1.0,0.0,1.0,-5183.0,541.0,6426.0,-568.0,51.0,-325.0,578.0,305.0,55.0,-0.563235,0.059697,0.824101,-10364.0,1082.0,12878.0,24.0,16.0,32.0
2851.0,2782.0,2831.0,3095.0,2997.0,0.272278,0.291992,0.054016,-0.915283,0.0,0.0,1.0,-5190.0,548.0,6423.0,-570.0,55.0,-324.0,581.0,303.0,57.0,-0.563926,0.060126,0.823701,-10432.0,1142.0,12800.0,22.0,18.0,40.0
2855.0,2783.0,2851.0,3095.0,2999.0,0.272461,0.292786,0.053772,-0.914978,1.0,-1.0,1.0,-5221.0,553.0,6415.0,-591.0,52.0,-325.0,594.0,315.0,69.0,-0.565086,0.061145,0.822805,-10564.0,1150.0,12788.0,32.0,-4.0,29.0
2855.0,2783.0,2851.0,3098.0,3003.0,0.272461,0.293091,0.053589,-0.914856,1.0,-2.0,0.0,-5231.0,568.0,6412.0,-598.0,62.0,-325.0,604.0,310.0,74.0,-0.565473,0.061659,0.822422,-10500.0,1230.0,12818.0,26.0,-23.0,14.0
2855.0,2785.0,2851.0,3103.0,2999.0,0.2724,0.293335,0.053467,-0.914795,-1.0,-3.0,-1.0,-5213.0,587.0,6407.0,-577.0,79.0,-328.0,600.0,287.0,61.0,-0.565811,0.061987,0.822147,-10324.0,1156.0,12748.0,-2.0,-47.0,-9.0
2859.0,2779.0,2847.0,3095.0,2999.0,0.272339,0.293335,0.053528,-0.914856,-1.0,-3.0,-1.0,-5196.0,572.0,6403.0,-560.0,65.0,-332.0,583.0,292.0,47.0,-0.565874,0.061833,0.822219,-10306.0,1040.0,12776.0,-9.0,-50.0,-18.0
2855.0,2781.0,2847.0,3095.0,3003.0,0.272034,0.293457,0.05365,-0.914856,-1.0,-2.0,-2.0,-5210.0,555.0,6411.0,-572.0,51.0,-322.0,579.0,306.0,62.0,-0.566131,0.061497,0.821968,-10502.0,1088.0,12848.0,0.0,-34.0,-35.0
2855.0,2783.0,2849.0,3099.0,3005.0,0.271851,0.29364,0.053711,-0.914856,0.0,-2.0,-2.0,-5229.0,544.0,6415.0,-588.0,41.0,-316.0,581.0,320.0,75.0,-0.56648,0.061377,0.821755,-10566.0,996.0,12844.0,12.0,-23.0,-39.0
2859.0,2787.0,2845.0,3102.0,3005.0,0.271301,0.29425,0.053589,-0.914856,2.0,-1.0,-2.0,-5283.0,509.0,6425.0,-634.0,4.0,-301.0,586.0,368.0,112.0,-0.567471,0.061609,0.821111,-10770.0,900.0,12884.0,62.0,-12.0,-32.0
2854.0,2781.0,2846.0,3099.0,2999.0,0.270996,0.294617,0.053284,-0.914856,4.0,-1.0,-2.0,-5323.0,507.0,6449.0,-670.0,-2.0,-274.0,594.0,383.0,155.0,-0.567943,0.062186,0.820762,-10892.0,1048.0,13098.0,93.0,-12.0,-27.0
2855.0,2779.0,2847.0,3101.0,3002.0,0.270386,0.295532,0.052368,-0.914795,5.0,-1.0,0.0,-5409.0,548.0,6529.0,-747.0,23.0,-187.0,615.0,374.0,273.0,-0.569022,0.064003,0.819876,-11054.0,1312.0,13290.0,119.0,-6.0,1.0
2853.0,2779.0,2854.0,3095.0,3005.0,0.270264,0.296021,0.051819,-0.914673,4.0,0.0,0.0,-5437.0,598.0,6564.0,-771.0,63.0,-148.0,632.0,341.0,321.0,-0.569533,0.065213,0.819356,-10996.0,1510.0,13310.0,110.0,1.0,19.0
2858.0,2781.0,2850.0,3099.0,2999.0,0.270386,0.297058,0.050781,-0.914368,3.0,0.0,2.0,-5430.0,663.0,6585.0,-754.0,107.0,-118.0,627.0,289.0,340.0,-0.570702,0.067775,0.818354,-10762.0,1508.0,13184.0,90.0,5.0,59.0
2855.0,2775.0,2852.0,3056.0,3005.0,0.270569,0.297485,0.050232,-0.914246,3.0,-1.0,3.0,-5404.0,693.0,6584.0,-725.0,126.0,-117.0,617.0,259.0,327.0,-0.571132,0.069132,0.818032,-10648.0,1548.0,13160.0,84.0,-8.0,73.0
2855.0,2774.0,2847.0,3099.0,3003.0,0.270996,0.297974,0.049072,-0.914001,3.0,-3.0,2.0,-5350.0,730.0,6539.0,-669.0,141.0,-159.0,608.0,232.0,262.0,-0.571293,0.071795,0.817641,-10488.0,1592.0,12866.0,81.0,-53.0,63.0
2853.0,2782.0,2847.0,3095.0,3002.0,0.271118,0.298035,0.048523,-0.91394,3.0,-4.0,1.0,-5293.0,755.0,6510.0,-614.0,157.0,-187.0,593.0,200.0,209.0,-0.571083,0.072911,0.817613,-10190.0,1676.0,12882.0,70.0,-78.0,42.0
2855.0,2747.0,2847.0,3101.0,3003.0,0.271301,0.297607,0.047791,-0.914062,-1.0,-5.0,0.0,-5142.0,806.0,6467.0,-472.0,198.0,-236.0,545.0,111.0,90.0,-0.569995,0.074115,0.81826,-9802.0,1708.0,12834.0,-2.0,-104.0,7.0
2855.0,2782.0,2854.0,3095.0,2999.0,0.271362,0.297241,0.047729,-0.914185,-2.0,-5.0,-1.0,-5078.0,803.0,6441.0,-413.0,196.0,-266.0,519.0,93.0,31.0,-0.569371,0.074053,0.81874,-9810.0,1554.0,12704.0,-44.0,-101.0,-9.0
2857.0,2779.0,2850.0,3103.0,3003.0,0.27124,0.296631,0.04834,-0.914368,-4.0,-3.0,-3.0,-5014.0,729.0,6421.0,-355.0,134.0,-290.0,460.0,124.0,-26.0,-0.568683,0.072516,0.819313,-9896.0,1112.0,12840.0,-90.0,-61.0,-50.0
2853.0,2783.0,2847.0,3103.0,2999.0,0.271118,0.296509,0.04895,-0.914429,-5.0,-2.0,-3.0,-4994.0,652.0,6427.0,-334.0,68.0,-285.0,408.0,169.0,-38.0,-0.568815,0.071255,0.819371,-9860.0,830.0,12904.0,-95.0,-27.0,-55.0
2855.0,2783.0,2854.0,3101.0,3003.0,0.270874,0.296692,0.05011,-0.914429,-2.0,1.0,-2.0,-4988.0,478.0,6446.0,-320.0,-87.0,-263.0,306.0,289.0,-39.0,-0.569754,0.069088,0.819016,-10026.0,524.0,12996.0,-43.0,36.0,-28.0
2859.0,2783.0,2851.0,3099.0,2999.0,0.270691,0.297058,0.050415,-0.914307,-1.0,2.0,-1.0,-5008.0,427.0,6456.0,-334.0,-135.0,-248.0,283.0,332.0,-21.0,-0.570498,0.068632,0.818445,-10148.0,604.0,12986.0,0.0,55.0,-14.0
2854.0,2781.0,2846.0,3103.0,3006.0,0.270386,0.298096,0.050476,-0.914062,2.0,1.0,-1.0,-5121.0,461.0,6477.0,-433.0,-103.0,-217.0,351.0,343.0,63.0,-0.572252,0.068925,0.81721,-10646.0,1216.0,13022.0,53.0,39.0,-8.0
2853.0,2779.0,2847.0,3099.0,3005.0,0.270203,0.298523,0.050354,-0.914001,2.0,0.0,-1.0,-5204.0,532.0,6486.0,-510.0,-35.0,-204.0,432.0,317.0,123.0,-0.572912,0.069276,0.816757,-10946.0,1502.0,13054.0,49.0,10.0,-17.0
2861.0,2783.0,2850.0,3099.0,2999.0,0.269775,0.299011,0.050171,-0.91394,-1.0,-3.0,-3.0,-5384.0,678.0,6528.0,-684.0,107.0,-157.0,599.0,265.0,271.0,-0.573627,0.069625,0.816141,-11238.0,1772.0,13262.0,-3.0,-58.0,-49.0
2853.0,2783.0,2847.0,3099.0,2979.0,0.269531,0.29895,0.050232,-0.914062,-2.0,-4.0,-3.0,-5445.0,720.0,6552.0,-746.0,152.0,-134.0,653.0,249.0,329.0,-0.573596,0.069323,0.816263,-11228.0,1664.0,13222.0,-32.0,-87.0,-63.0
2860.0,2783.0,2851.0,3095.0,2999.0,0.269043,0.29834,0.05072,-0.914368,-3.0,-6.0,-4.0,-5478.0,702.0,6598.0,-784.0,146.0,-93.0,655.0,261.0,383.0,-0.572876,0.067779,0.816873,-10866.0,1218.0,13302.0,-58.0,-119.0,-76.0
2857.0,2785.0,2852.0,3099.0,3007.0,0.268799,0.297913,0.050964,-0.914551,-2.0,-6.0,-3.0,-5428.0,652.0,6610.0,-739.0,103.0,-85.0,598.0,274.0,360.0,-0.572311,0.066938,0.817307,-10504.0,970.0,13276.0,-44.0,-123.0,-63.0
2854.0,2778.0,2843.0,3103.0,3003.0,0.268494,0.297058,0.050903,-0.914917,0.0,-6.0,-1.0,-5285.0,569.0,6607.0,-608.0,25.0,-96.0,475.0,283.0,270.0,-0.570901,0.066372,0.818327,-10096.0,936.0,13200.0,20.0,-120.0,-5.0
2853.0,2779.0,2851.0,3095.0,2999.0,0.268494,0.296753,0.050598,-0.915039,2.0,-5.0,0.0,-5220.0,542.0,6596.0,-548.0,-4.0,-111.0,427.0,284.0,221.0,-0.570252,0.066754,0.818763,-10062.0,942.0,13152.0,52.0,-113.0,22.0
2858.0,2781.0,2847.0,3102.0,3003.0,0.268738,0.296387,0.049561,-0.915161,3.0,-4.0,2.0,-5141.0,565.0,6579.0,-478.0,3.0,-133.0,395.0,251.0,163.0,-0.569121,0.068589,0.819439,-10134.0,1302.0,13122.0,79.0,-85.0,54.0
2855.0,2783.0,2851.0,3095.0,3005.0,0.26886,0.296326,0.049011,-0.915161,3.0,-4.0,2.0,-5131.0,597.0,6564.0,-471.0,26.0,-150.0,411.0,233.0,146.0,-0.568726,0.069634,0.819595,-10222.0,1396.0,13004.0,69.0,-73.0,46.0
2862.0,2775.0,2846.0,3101.0,3007.0,0.268982,0.296265,0.048462,-0.915161,0.0,-3.0,0.0,-5103.0,668.0,6550.0,-447.0,88.0,-165.0,434.0,173.0,125.0,-0.568331,0.070679,0.81975,-10112.0,1472.0,13082.0,5.0,-53.0,2.0
2853.0,2783.0,2845.0,3099.0,2999.0,0.268982,0.296204,0.048462,-0.915161,-2.0,-3.0,-1.0,-5092.0,678.0,6542.0,-437.0,99.0,-173.0,437.0,161.0,113.0,-0.568219,0.070646,0.819786,-10116.0,1374.0,13046.0,-31.0,-46.0,-15.0
2857.0,2777.0,2847.0,3095.0,3003.0,0.268799,0.296082,0.049072,-0.915283,-3.0,-2.0,-2.0,-5075.0,630.0,6511.0,-418.0,61.0,-205.0,421.0,192.0,73.0,-0.568378,0.069343,0.819924,-10062.0,1022.0,13000.0,-58.0,-37.0,-43.0
7.0,15136.0,2886.0,2980.0,-57.0,9.0,11.0,,,,,,,,,,,,,,,,,,,,,,,
2859.0,2783.0,2847.0,3093.0,2999.0,0.764526,0.185791,-0.612,0.080017,-3.0,0.0,0.0,7591.0,1449.0,1419.0,-318.0,-75.0,-70.0,13.0,-8.0,-333.0,0.965512,0.186143,0.181842,15040.0,2682.0,3004.0,-56.0,9.0,8.0
2864.0,2783.0,2847.0,3095.0,3003.0,0.764709,0.185303,-0.611938,0.079895,-2.0,0.0,0.0,7576.0,1395.0,1459.0,-333.0,-125.0,-34.0,-4.0,-67.0,-350.0,0.96552,0.185624,0.182358,15136.0,2734.0,3004.0,-30.0,8.0,7.0
2857.0,2783.0,2847.0,3103.0,2999.0,0.764771,0.18512,-0.611877,0.079895,-2.0,0.0,0.0,7572.0,1388.0,1468.0,-337.0,-130.0,-27.0,-10.0,-73.0,-354.0,0.965472,0.185376,0.182594,15120.0,2760.0,2980.0,-25.0,5.0,3.0
2862.0,2783.0,2850.0,3099.0,2999.0,0.764893,0.184937,-0.611877,0.079773,-1.0,-1.0,-1.0,7572.0,1405.0,1458.0,-337.0,-112.0,-39.0,-6.0,-52.0,-353.0,0.965547,0.185291,0.182829,15198.0,2880.0,2884.0,-21.0,0.0,-3.0
2859.0,2775.0,2847.0,3091.0,2997.0,0.764893,0.184875,-0.611877,0.079651,-2.0,0.0,-1.0,7583.0,1415.0,1445.0,-326.0,-103.0,-52.0,5.0,-40.0,-343.0,0.965492,0.185347,0.182832,15226.0,2872.0,2830.0,-23.0,4.0,-4.0
2860.0,2768.0,2843.0,3093.0,3007.0,0.764893,0.184631,-0.611938,0.07959,-1.0,0.0,0.0,7599.0,1409.0,1421.0,-310.0,-106.0,-76.0,31.0,-36.0,-332.0,0.965524,0.185038,0.182838,15254.0,2788.0,2884.0,-14.0,6.0,7.0
2863.0,2783.0,2845.0,3098.0,2999.0,0.764954,0.18457,-0.611938,0.07959,-1.0,0.0,0.0,7601.0,1420.0,1419.0,-309.0,-95.0,-79.0,30.0,-25.0,-330.0,0.965589,0.184967,0.182954,15202.0,2926.0,2856.0,-8.0,7.0,7.0
2862.0,2783.0,2850.0,3095.0,2995.0,0.764954,0.184509,-0.611877,0.07959,-1.0,0.0,0.0,7599.0,1435.0,1427.0,-310.0,-79.0,-72.0,18.0,-13.0,-327.0,0.965486,0.184884,0.183051,15176.0,2948.0,2894.0,-19.0,5.0,4.0
2863.0,2779.0,2850.0,3095.0,2999.0,0.765076,0.184265,-0.611877,0.079285,-2.0,0.0,-1.0,7588.0,1444.0,1420.0,-321.0,-70.0,-81.0,21.0,0.0,-337.0,0.965484,0.184929,0.183279,15126.0,2846.0,2846.0,-44.0,7.0,-9.0
2861.0,2783.0,2849.0,3095.0,2999.0,0.765137,0.184082,-0.611877,0.079102,-3.0,0.0,-1.0,7585.0,1446.0,1417.0,-324.0,-68.0,-85.0,23.0,3.0,-340.0,0.965462,0.184895,0.183411,15146.0,2886.0,2780.0,-47.0,15.0,-13.0
2859.0,2781.0,2839.0,3099.0,2997.0,0.76532,0.183777,-0.611816,0.078674,-2.0,0.0,-1.0,7597.0,1410.0,1402.0,-311.0,-105.0,-103.0,55.0,-25.0,-338.0,0.965387,0.185028,0.183811,15282.0,2702.0,2802.0,-44.0,11.0,-22.0
2865.0,2781.0,2849.0,3103.0,2999.0,0.765381,0.183655,-0.611816,0.078552,-2.0,0.0,-1.0,7606.0,1388.0,1396.0,-302.0,-127.0,-110.0,71.0,-43.0,-335.0,0.965398,0.185013,0.18393,15258.0,2630.0,2790.0,-36.0,12.0,-16.0
2859.0,2775.0,2847.0,3051.0,3003.0,0.765381,0.183472,-0.611816,0.07843,-1.0,0.0,-1.0,7590.0,1360.0,1392.0,-317.0,-154.0,-115.0,81.0,-65.0,-355.0,0.965325,0.184882,0.183978,15118.0,2686.0,2854.0,-18.0,1.0,-6.0
2859.0,2785.0,2843.0,3091.0,2992.0,0.765381,0.18335,-0.611877,0.078369,-1.0,-1.0,0.0,7583.0,1354.0,1413.0,-325.0,-159.0,-93.0,61.0,-77.0,-360.0,0.965376,0.18476,0.183939,15148.0,2694.0,2936.0,-17.0,-5.0,0.0
2861.0,2783.0,2849.0,3095.0,2997.0,0.765381,0.183044,-0.611938,0.078369,-1.0,-1.0,0.0,7579.0,1351.0,1434.0,-329.0,-158.0,-73.0,42.0,-83.0,-360.0,0.965422,0.184283,0.183976,15154.0,2706.0,2942.0,-18.0,-5.0,13.0
2861.0,2782.0,2854.0,3095.0,2999.0,0.765381,0.182922,-0.612,0.078369,-1.0,-1.0,0.0,7574.0,1361.0,1438.0,-335.0,-147.0,-68.0,32.0,-74.0,-363.0,0.965496,0.184087,0.183946,15098.0,2804.0,2868.0,-7.0,-2.0,8.0
2863.0,2751.0,2846.0,3095.0,3003.0,0.765381,0.1828,-0.612,0.07843,-1.0,-1.0,0.0,7587.0,1381.0,1469.0,-322.0,-124.0,-38.0,0.0,-66.0,-340.0,0.9655,0.183825,0.184,15224.0,2796.0,3016.0,-9.0,-5.0,7.0
2859.0,2779.0,2849.0,3095.0,3002.0,0.765442,0.182739,-0.612,0.07843,-1.0,-1.0,0.0,7593.0,1383.0,1469.0,-316.0,-122.0,-39.0,1.0,-64.0,-334.0,0.965565,0.183754,0.184116,15220.0,2764.0,2876.0,-8.0,-4.0,2.0
2861.0,2780.0,2847.0,3095.0,3003.0,0.765381,0.182678,-0.612122,0.078491,0.0,-1.0,0.0,7607.0,1368.0,1461.0,-303.0,-135.0,-45.0,15.0,-76.0,-325.0,0.96569,0.183545,0.183905,15262.0,2698.0,2924.0,8.0,-8.0,7.0
2859.0,2778.0,2845.0,3091.0,3005.0,0.76532,0.182678,-0.612183,0.078613,0.0,-1.0,0.0,7614.0,1381.0,1455.0,-297.0,-121.0,-50.0,16.0,-61.0,-318.0,0.965753,0.183363,0.183756,15276.0,2854.0,2870.0,21.0,-7.0,12.0
2893.0,2783.0,2847.0,3091.0,2993.0,0.765198,0.182739,-0.612244,0.078735,0.0,-1.0,0.0,7620.0,1428.0,1474.0,-291.0,-73.0,-29.0,-17.0,-26.0,-299.0,0.965751,0.183253,0.183491,15286.0,3018.0,3058.0,2.0,-11.0,8.0
2863.0,2783.0,2845.0,3099.0,3003.0,0.765259,0.182678,-0.612244,0.078674,-1.0,-1.0,0.0,7618.0,1450.0,1484.0,-293.0,-51.0,-20.0,-34.0,-9.0,-295.0,0.965794,0.183257,0.183597,15222.0,3044.0,3018.0,-19.0,-4.0,0.0
2863.0,2781.0,2851.0,3094.0,2999.0,0.765381,0.182373,-0.612183,0.078308,-3.0,0.0,-1.0,7620.0,1466.0,1494.0,-290.0,-35.0,-12.0,-46.0,2.0,-288.0,0.965668,0.183292,0.183913,15256.0,2922.0,2982.0,-59.0,3.0,-11.0
2863.0,2783.0,2846.0,3089.0,2993.0,0.765442,0.18219,-0.612183,0.078064,-3.0,0.0,-1.0,7611.0,1454.0,1464.0,-299.0,-47.0,-43.0,-16.0,3.0,-305.0,0.965625,0.183333,0.184035,15158.0,2788.0,2724.0,-65.0,5.0,-17.0
2859.0,2775.0,2847.0,3099.0,3007.0,0.765564,0.181763,-0.612244,0.077576,-3.0,0.0,-1.0,7627.0,1419.0,1426.0,-283.0,-82.0,-83.0,36.0,-15.0,-303.0,0.965624,0.183311,0.184226,15318.0,2716.0,2764.0,-52.0,12.0,-13.0
2862.0,2783.0,2853.0,3095.0,2995.0,0.765625,0.18158,-0.612183,0.077454,-2.0,0.0,-1.0,7628.0,1403.0,1406.0,-281.0,-97.0,-104.0,60.0,-21.0,-308.0,0.965533,0.183212,0.184442,15254.0,2734.0,2674.0,-39.0,20.0,-2.0
2855.0,2785.0,2851.0,3089.0,3006.0,0.765747,0.181396,-0.612122,0.077515,-1.0,0.0,0.0,7616.0,1408.0,1400.0,-294.0,-90.0,-113.0,63.0,-10.0,-321.0,0.965582,0.182911,0.18478,15192.0,2868.0,2838.0,-2.0,15.0,11.0
2859.0,2777.0,2847.0,3091.0,3003.0,0.765747,0.181335,-0.612122,0.077515,-1.0,0.0,0.0,7608.0,1427.0,1420.0,-301.0,-70.0,-93.0,36.0,1.0,-320.0,0.965573,0.182817,0.184802,15156.0,2930.0,2960.0,-5.0,12.0,14.0
2864.0,2779.0,2847.0,3088.0,2994.0,0.765869,0.181091,-0.612061,0.077515,-2.0,0.0,0.0,7606.0,1454.0,1475.0,-304.0,-41.0,-41.0,-21.0,8.0,-308.0,0.965591,0.182497,0.185152,15152.0,2936.0,3078.0,-38.0,7.0,15.0
2861.0,2777.0,2843.0,3093.0,3005.0,0.76593,0.180786,-0.612061,0.077393,-3.0,0.0,0.0,7602.0,1445.0,1485.0,-307.0,-47.0,-33.0,-27.0,0.0,-311.0,0.965574,0.182201,0.185337,15220.0,2802.0,3046.0,-56.0,3.0,16.0
2863.0,2783.0,2843.0,3091.0,2999.0,0.766113,0.180176,-0.612061,0.077209,-3.0,0.0,0.0,7604.0,1396.0,1487.0,-306.0,-91.0,-35.0,-10.0,-39.0,-318.0,0.965638,0.181556,0.185809,15150.0,2640.0,2932.0,-48.0,7.0,17.0
2862.0,2781.0,2847.0,3095.0,2995.0,0.766174,0.179932,-0.612061,0.077209,-2.0,0.0,0.0,7598.0,1378.0,1477.0,-312.0,-106.0,-46.0,3.0,-49.0,-329.0,0.965675,0.181204,0.185991,15140.0,2676.0,2854.0,-36.0,10.0,11.0
2859.0,2783.0,2851.0,3103.0,2999.0,0.766235,0.179688,-0.612061,0.077148,-1.0,0.0,-1.0,7594.0,1367.0,1440.0,-316.0,-115.0,-85.0,40.0,-42.0,-341.0,0.96569,0.180927,0.186163,15214.0,2704.0,2782.0,-20.0,9.0,-1.0
2864.0,2783.0,2851.0,3095.0,3003.0,0.766235,0.179565,-0.612061,0.077087,-1.0,0.0,0.0,7604.0,1365.0,1440.0,-306.0,-116.0,-85.0,43.0,-44.0,-332.0,0.965649,0.180814,0.186197,15264.0,2744.0,2922.0,-19.0,9.0,3.0
2863.0,2791.0,2843.0,3094.0,3005.0,0.766296,0.179321,-0.612061,0.077087,-1.0,-1.0,0.0,7605.0,1377.0,1458.0,-305.0,-101.0,-68.0,23.0,-37.0,-325.0,0.965686,0.180462,0.186378,15254.0,2810.0,3042.0,-19.0,-3.0,15.0
2863.0,2781.0,2850.0,3095.0,3015.0,0.766357,0.179199,-0.612122,0.077087,-1.0,0.0,0.0,7611.0,1380.0,1468.0,-301.0,-96.0,-59.0,14.0,-36.0,-319.0,0.965836,0.180288,0.186441,15250.0,2774.0,2976.0,-22.0,1.0,17.0
2863.0,2781.0,2843.0,3095.0,3003.0,0.766418,0.178833,-0.612061,0.077209,-1.0,0.0,1.0,7610.0,1376.0,1474.0,-301.0,-95.0,-55.0,10.0,-37.0,-318.0,0.965804,0.179608,0.186759,15194.0,2730.0,2960.0,-18.0,11.0,23.0
2866.0,2783.0,2843.0,3099.0,3003.0,0.766479,0.178711,-0.612061,0.077271,-1.0,0.0,0.0,7611.0,1375.0,1482.0,-301.0,-94.0,-49.0,4.0,-38.0,-316.0,0.965882,0.179368,0.186906,15214.0,2758.0,3030.0,-13.0,13.0,21.0
2863.0,2787.0,2845.0,3091.0,2993.0,0.766602,0.178467,-0.611938,0.077332,-2.0,0.0,0.0,7589.0,1398.0,1514.0,-323.0,-68.0,-20.0,-36.0,-23.0,-327.0,0.965828,0.178982,0.187339,15118.0,2898.0,3106.0,-23.0,12.0,15.0
2863.0,2778.0,2851.0,3101.0,2995.0,0.766663,0.178284,-0.611877,0.077271,-2.0,0.0,0.0,7577.0,1403.0,1520.0,-334.0,-61.0,-16.0,-44.0,-17.0,-336.0,0.965759,0.178807,0.187563,15088.0,2798.0,3086.0,-37.0,10.0,14.0
2861.0,2782.0,2847.0,3091.0,2995.0,0.766846,0.177856,-0.611816,0.077087,-2.0,0.0,0.0,7573.0,1384.0,1527.0,-338.0,-77.0,-13.0,-43.0,-32.0,-342.0,0.965759,0.17845,0.188043,15218.0,2738.0,3132.0,-45.0,7.0,7.0
2859.0,2782.0,2851.0,3101.0,2995.0,0.766968,0.177551,-0.611816,0.077026,-3.0,0.0,0.0,7584.0,1384.0,1526.0,-328.0,-74.0,-16.0,-39.0,-30.0,-332.0,0.965839,0.1781,0.188329,15236.0,2768.0,3010.0,-51.0,7.0,14.0
2863.0,2783.0,2847.0,3091.0,3005.0,0.767029,0.177063,-0.611877,0.076904,-2.0,0.0,0.0,7607.0,1336.0,1494.0,-305.0,-118.0,-50.0,12.0,-60.0,-324.0,0.965889,0.177513,0.188502,15250.0,2566.0,2884.0,-28.0,5.0,11.0
2864.0,2782.0,2846.0,3095.0,3007.0,0.767029,0.176941,-0.611877,0.076965,-1.0,-1.0,0.0,7607.0,1331.0,1476.0,-305.0,-121.0,-68.0,29.0,-57.0,-328.0,0.965892,0.177251,0.188555,15230.0,2658.0,2838.0,-16.0,0.0,16.0
2862.0,2783.0,2849.0,3095.0,3003.0,0.767029,0.176697,-0.611938,0.077026,-1.0,0.0,0.0,7605.0,1354.0,1466.0,-308.0,-94.0,-78.0,28.0,-28.0,-328.0,0.96597,0.176792,0.188576,15218.0,2830.0,2942.0,-14.0,7.0,10.0
2860.0,2795.0,2848.0,3095.0,2991.0,0.76709,0.176575,-0.611938,0.076965,-2.0,0.0,0.0,7603.0,1364.0,1480.0,-310.0,-83.0,-65.0,12.0,-22.0,-326.0,0.966004,0.176701,0.188703,15192.0,2736.0,3048.0,-30.0,9.0,13.0
2863.0,2783.0,2845.0,3095.0,3007.0,0.767212,0.176086,-0.611938,0.076904,-2.0,0.0,0.0,7598.0,1352.0,1481.0,-315.0,-90.0,-67.0,15.0,-28.0,-332.0,0.966057,0.17607,0.189053,15216.0,2634.0,2894.0,-38.0,6.0,18.0
2859.0,2779.0,2847.0,3091.0,3003.0,0.767212,0.175903,-0.611938,0.076904,-2.0,0.0,0.0,7599.0,1341.0,1466.0,-314.0,-99.0,-83.0,33.0,-30.0,-336.0,0.966028,0.175789,0.189118,15250.0,2622.0,2880.0,-33.0,2.0,15.0
2865.0,2783.0,2850.0,3095.0,3006.0,0.767273,0.175537,-0.612,0.076904,-2.0,0.0,0.0,7607.0,1346.0,1461.0,-307.0,-89.0,-89.0,37.0,-20.0,-329.0,0.96614,0.175239,0.189265,15252.0,2750.0,2914.0,-24.0,3.0,14.0
2859.0,2787.0,2847.0,3089.0,2995.0,0.767273,0.175415,-0.612061,0.076843,-2.0,0.0,0.0,7618.0,1350.0,1461.0,-297.0,-84.0,-89.0,38.0,-16.0,-318.0,0.966194,0.175117,0.189224,15294.0,2694.0,2950.0,-28.0,3.0,17.0
2863.0,2787.0,2847.0,3095.0,3007.0,0.767334,0.174988,-0.612122,0.076904,-1.0,0.0,0.0,7614.0,1345.0,1464.0,-302.0,-83.0,-87.0,34.0,-16.0,-322.0,0.966318,0.174399,0.189402,15210.0,2680.0,2934.0,-21.0,6.0,20.0
2858.0,2779.0,2847.0,3094.0,2995.0,0.767334,0.174927,-0.612122,0.076904,-1.0,0.0,0.0,7604.0,1351.0,1462.0,-312.0,-76.0,-89.0,31.0,-8.0,-331.0,0.966309,0.174305,0.189424,15152.0,2754.0,2932.0,-15.0,6.0,10.0
2862.0,2777.0,2835.0,3091.0,3003.0,0.767456,0.174622,-0.612061,0.076782,-2.0,0.0,0.0,7601.0,1354.0,1501.0,-314.0,-71.0,-53.0,-3.0,-16.0,-325.0,0.966275,0.174038,0.189773,15192.0,2676.0,3102.0,-39.0,6.0,5.0
2863.0,2783.0,2835.0,3099.0,2999.0,0.767517,0.174377,-0.612061,0.07666,-2.0,0.0,0.0,7594.0,1340.0,1499.0,-321.0,-84.0,-56.0,2.0,-26.0,-335.0,0.966269,0.173834,0.189934,15156.0,2584.0,2996.0,-45.0,7.0,8.0
2864.0,2775.0,2846.0,3094.0,3003.0,0.767517,0.174194,-0.612122,0.076599,-2.0,0.0,0.0,7595.0,1324.0,1481.0,-321.0,-98.0,-74.0,23.0,-33.0,-341.0,0.966314,0.173618,0.189913,15206.0,2542.0,2858.0,-35.0,1.0,11.0
2865.0,2779.0,2846.0,3095.0,3003.0,0.767456,0.173889,-0.612244,0.076782,0.0,-1.0,1.0,7630.0,1294.0,1462.0,-287.0,-122.0,-92.0,55.0,-52.0,-315.0,0.966443,0.172886,0.189805,15352.0,2552.0,2920.0,5.0,-1.0,25.0
2838.0,2781.0,2844.0,3094.0,3003.0,0.767456,0.173828,-0.612244,0.076965,0.0,0.0,1.0,7634.0,1313.0,1473.0,-283.0,-100.0,-82.0,40.0,-36.0,-306.0,0.966498,0.172568,0.189854,15274.0,2788.0,3012.0,16.0,1.0,26.0
2861.0,2789.0,2847.0,3091.0,2999.0,0.767456,0.173706,-0.612305,0.077026,-2.0,-1.0,1.0,7626.0,1375.0,1483.0,-292.0,-36.0,-72.0,8.0,20.0,-302.0,0.966594,0.172296,0.189831,15212.0,2830.0,2948.0,-28.0,-3.0,26.0
2861.0,2782.0,2807.0,3095.0,3007.0,0.767456,0.173462,-0.612366,0.077026,-2.0,0.0,1.0,7626.0,1368.0,1476.0,-292.0,-40.0,-79.0,15.0,18.0,-304.0,0.96665,0.171912,0.189841,15250.0,2648.0,2926.0,-40.0,4.0,27.0
2858.0,2783.0,2854.0,3099.0,2999.0,0.767517,0.173218,-0.612366,0.077026,-2.0,0.0,1.0,7621.0,1356.0,1466.0,-298.0,-49.0,-90.0,27.0,14.0,-313.0,0.966687,0.171559,0.190019,15208.0,2642.0,2868.0,-26.0,14.0,23.0
2863.0,2789.0,2847.0,3099.0,2999.0,0.767639,0.172913,-0.612305,0.077026,-2.0,0.0,0.0,7607.0,1367.0,1484.0,-312.0,-34.0,-75.0,5.0,24.0,-321.0,0.966696,0.171142,0.190387,15184.0,2796.0,3068.0,-30.0,13.0,13.0
2862.0,2781.0,2855.0,3093.0,2998.0,0.7677,0.172729,-0.612244,0.076965,-2.0,0.0,0.0,7604.0,1373.0,1507.0,-314.0,-27.0,-54.0,-16.0,23.0,-318.0,0.966627,0.170966,0.190609,15204.0,2786.0,3158.0,-43.0,10.0,9.0
2859.0,2775.0,2839.0,3099.0,2995.0,0.767883,0.17218,-0.612244,0.076599,-4.0,0.0,0.0,7594.0,1364.0,1533.0,-324.0,-33.0,-31.0,-38.0,10.0,-324.0,0.966641,0.170634,0.191024,15194.0,2662.0,3130.0,-73.0,3.0,9.0
2861.0,2791.0,2847.0,3093.0,2999.0,0.768005,0.171814,-0.612244,0.076416,-4.0,0.0,0.0,7592.0,1347.0,1527.0,-326.0,-48.0,-40.0,-25.0,0.0,-330.0,0.966672,0.170338,0.191309,15176.0,2600.0,3004.0,-76.0,4.0,10.0
2863.0,2783.0,2850.0,3091.0,3007.0,-1.21228,-1.882874,-0.369629,0.330383,15305.0,2050.0,11442.0,17166.0,29797.0,-16977.0,-30837.0,-5599.0,251.0,-28357.0,-7961.0,-24256.0,-2.140327,4.320902,-2.103062,15186.0,2590.0,2992.0,-68.0,4.0,6.0
2863.0,2771.0,2847.0,3089.0,3007.0,0.768188,0.170898,-0.612305,0.075867,-3.0,0.0,0.0,7584.0,1314.0,1516.0,-334.0,-75.0,-54.0,-5.0,-19.0,-345.0,0.966662,0.169657,0.191746,15142.0,2616.0,3024.0,-62.0,4.0,4.0
2859.0,2781.0,2850.0,3093.0,2995.0,0.768372,0.170349,-0.612305,0.075439,-4.0,0.0,-1.0,7564.0,1325.0,1525.0,-354.0,-62.0,-49.0,-19.0,-7.0,-362.0,0.966657,0.169399,0.19215,15052.0,2728.0,3112.0,-69.0,6.0,-3.0
2862.0,2787.0,2842.0,3091.0,2999.0,0.768433,0.170044,-0.612305,0.075195,-4.0,0.0,-1.0,7559.0,1336.0,1522.0,-359.0,-50.0,-53.0,-21.0,5.0,-365.0,0.966603,0.16925,0.192311,15110.0,2752.0,2984.0,-78.0,4.0,-1.0
2863.0,2787.0,2849.0,3091.0,2991.0,0.768555,0.169434,-0.612366,0.074768,-3.0,-1.0,0.0,7560.0,1301.0,1506.0,-358.0,-82.0,-71.0,5.0,-18.0,-373.0,0.96661,0.168867,0.192567,15144.0,2482.0,3072.0,-61.0,-1.0,4.0
2861.0,2783.0,2853.0,3091.0,2995.0,0.768616,0.169189,-0.612366,0.074646,-2.0,-1.0,0.0,7558.0,1294.0,1512.0,-360.0,-87.0,-66.0,2.0,-24.0,-375.0,0.966606,0.168662,0.192725,15070.0,2574.0,3046.0,-40.0,-4.0,3.0
2863.0,2783.0,2847.0,3059.0,2993.0,0.768677,0.168823,-0.612488,0.074402,-2.0,-1.0,0.0,7559.0,1300.0,1555.0,-360.0,-79.0,-24.0,-38.0,-31.0,-365.0,0.966732,0.168401,0.192757,15110.0,2614.0,3306.0,-45.0,-8.0,7.0
2863.0,2781.0,2846.0,3093.0,2999.0,0.768738,0.168579,-0.612488,0.07428,-3.0,-1.0,-1.0,7549.0,1300.0,1580.0,-370.0,-77.0,0.0,-63.0,-37.0,-370.0,0.966729,0.168195,0.192915,15018.0,2624.0,3282.0,-54.0,-9.0,-4.0
2864.0,2797.0,2850.0,3089.0,3005.0,0.768799,0.168091,-0.612549,0.073669,-4.0,-1.0,-1.0,7536.0,1306.0,1584.0,-382.0,-71.0,2.0,-70.0,-31.0,-380.0,0.96662,0.168204,0.193008,15140.0,2648.0,3232.0,-80.0,-22.0,-16.0
2864.0,2778.0,2847.0,3091.0,2999.0,0.768799,0.167786,-0.612671,0.073242,-5.0,-2.0,-1.0,7542.0,1321.0,1567.0,-376.0,-57.0,-13.0,-59.0,-13.0,-375.0,0.966619,0.16824,0.192898,15146.0,2714.0,3006.0,-102.0,-33.0,-11.0
2864.0,2777.0,2847.0,3093.0,3007.0,0.768799,0.167053,-0.612976,0.07251,-5.0,-1.0,0.0,7594.0,1339.0,1533.0,-325.0,-36.0,-45.0,-24.0,12.0,-328.0,0.966737,0.167967,0.192663,15286.0,2814.0,2986.0,-94.0,-16.0,0.0
2863.0,2783.0,2847.0,3089.0,2990.0,0.76886,0.166687,-0.613098,0.072144,-5.0,-1.0,-1.0,7598.0,1373.0,1533.0,-322.0,-2.0,-45.0,-34.0,43.0,-320.0,0.966824,0.167856,0.192676,15196.0,2968.0,3070.0,-99.0,-14.0,-5.0
2862.0,2783.0,2847.0,3087.0,3003.0,0.769043,0.165833,-0.61322,0.071106,-7.0,-1.0,0.0,7584.0,1457.0,1569.0,-335.0,81.0,-11.0,-94.0,110.0,-312.0,0.966769,0.167857,0.192944,15166.0,3038.0,3274.0,-157.0,-19.0,1.0
2863.0,2780.0,2853.0,3095.0,2995.0,0.769165,0.165161,-0.613342,0.070496,-8.0,-1.0,0.0,7580.0,1436.0,1555.0,-340.0,63.0,-27.0,-75.0,100.0,-323.0,0.966809,0.167596,0.193118,15116.0,2680.0,3018.0,-173.0,-18.0,2.0
2862.0,2783.0,2847.0,3091.0,2999.0,0.769348,0.16394,-0.613525,0.069458,-6.0,-1.0,-1.0,7584.0,1352.0,1553.0,-336.0,-16.0,-31.0,-46.0,27.0,-333.0,0.966803,0.167026,0.193431,15154.0,2566.0,3086.0,-132.0,-5.0,-10.0
2864.0,2786.0,2855.0,3095.0,2995.0,0.769409,0.163452,-0.613586,0.069031,-6.0,-1.0,-1.0,7577.0,1343.0,1534.0,-342.0,-23.0,-51.0,-27.0,27.0,-344.0,0.966765,0.16681,0.193551,15082.0,2644.0,2924.0,-126.0,-14.0,-11.0
2864.0,2787.0,2847.0,3103.0,3007.0,0.769409,0.162354,-0.614014,0.067932,-7.0,-2.0,-1.0,7613.0,1317.0,1489.0,-307.0,-46.0,-93.0,27.0,16.0,-322.0,0.966914,0.16641,0.193234,15428.0,2492.0,2842.0,-148.0,-37.0,-5.0
2863.0,2775.0,2845.0,3095.0,3007.0,0.769409,0.161804,-0.614197,0.067505,-6.0,-2.0,0.0,7641.0,1284.0,1455.0,-280.0,-76.0,-127.0,74.0,-2.0,-307.0,0.966982,0.166065,0.193129,15454.0,2358.0,2680.0,-134.0,-30.0,0.0
2859.0,2781.0,2849.0,3091.0,2995.0,0.769165,0.160828,-0.614807,0.066956,-4.0,-2.0,1.0,7729.0,1198.0,1370.0,-195.0,-154.0,-204.0,189.0,-58.0,-253.0,0.967313,0.165076,0.192245,15838.0,2130.0,2564.0,-81.0,-34.0,29.0
2863.0,2788.0,2863.0,3095.0,2997.0,0.769043,0.160339,-0.615051,0.067078,-2.0,-1.0,2.0,7802.0,1158.0,1364.0,-123.0,-186.0,-208.0,219.0,-94.0,-189.0,0.967512,0.164103,0.19193,16044.0,2096.0,2744.0,-41.0,-14.0,58.0
2863.0,2789.0,2849.0,3091.0,2995.0,0.768982,0.159851,-0.615234,0.06781,0.0,0.0,2.0,7844.0,1178.0,1401.0,-84.0,-152.0,-170.0,183.0,-79.0,-138.0,0.967887,0.162407,0.191866,15668.0,2546.0,2998.0,20.0,18.0,65.0
2864.0,2782.0,2842.0,3093.0,3007.0,0.768982,0.159668,-0.615234,0.068115,0.0,0.0,2.0,7820.0,1221.0,1457.0,-109.0,-104.0,-115.0,112.0,-49.0,-144.0,0.96796,0.16175,0.191966,15470.0,2714.0,3290.0,1.0,17.0,58.0
2859.0,2781.0,2851.0,3091.0,2999.0,0.769226,0.159058,-0.615051,0.068237,-3.0,0.0,1.0,7737.0,1248.0,1565.0,-192.0,-68.0,-14.0,-11.0,-41.0,-199.0,0.967934,0.160764,0.192778,15224.0,2390.0,3364.0,-55.0,15.0,39.0
2863.0,2775.0,2851.0,3095.0,2995.0,0.769348,0.15863,-0.61499,0.068237,-3.0,0.0,1.0,7698.0,1214.0,1596.0,-231.0,-97.0,13.0,-37.0,-74.0,-236.0,0.967932,0.160153,0.193176,15166.0,2200.0,3332.0,-58.0,21.0,34.0
2859.0,2787.0,2851.0,3095.0,2999.0,0.769653,0.158081,-0.614746,0.068481,0.0,1.0,1.0,7628.0,1119.0,1602.0,-301.0,-184.0,11.0,-25.0,-149.0,-318.0,0.967934,0.159138,0.194154,15030.0,1936.0,3180.0,1.0,37.0,36.0
2859.0,2779.0,2842.0,3093.0,3007.0,0.769775,0.157959,-0.614624,0.068909,1.0,1.0,1.0,7585.0,1083.0,1588.0,-344.0,-215.0,-6.0,-10.0,-169.0,-368.0,0.968014,0.15848,0.194589,14878.0,1950.0,3050.0,43.0,44.0,38.0
2835.0,2775.0,2847.0,3099.0,2999.0,0.769836,0.158203,-0.614319,0.069824,4.0,0.0,1.0,7475.0,1047.0,1573.0,-454.0,-245.0,-25.0,-9.0,-182.0,-482.0,0.967943,0.157792,0.195108,14692.0,2042.0,3126.0,93.0,21.0,25.0
2865.0,2787.0,2848.0,3103.0,3002.0,0.769836,0.158508,-0.614258,0.070312,4.0,0.0,1.0,7449.0,1056.0,1577.0,-481.0,-235.0,-21.0,-22.0,-172.0,-506.0,0.968046,0.157671,0.195154,14758.0,2218.0,3202.0,103.0,15.0,26.0
2861.0,2787.0,2853.0,3099.0,2995.0,0.769836,0.15918,-0.613953,0.071167,4.0,0.0,0.0,7395.0,1139.0,1637.0,-534.0,-152.0,35.0,-111.0,-108.0,-534.0,0.967943,0.157698,0.195437,14588.0,2638.0,3532.0,95.0,15.0,7.0
2911.0,2781.0,2846.0,3093.0,3003.0,0.769897,0.159424,-0.613708,0.07135,2.0,0.0,-1.0,7351.0,1207.0,1691.0,-576.0,-86.0,87.0,-190.0,-60.0,-553.0,0.967735,0.157904,0.195779,14438.0,2840.0,3706.0,51.0,14.0,-6.0
2861.0,2775.0,2847.0,3095.0,2999.0,0.770325,0.159546,-0.61322,0.070801,-3.0,0.0,-3.0,7246.0,1286.0,1800.0,-678.0,-16.0,186.0,-327.0,-18.0,-621.0,0.967349,0.158971,0.196919,14124.0,2702.0,3880.0,-60.0,12.0,-57.0
2864.0,2783.0,2838.0,3099.0,2999.0,0.77063,0.159485,-0.612976,0.07019,-5.0,0.0,-4.0,7182.0,1297.0,1848.0,-740.0,-11.0,229.0,-384.0,-21.0,-672.0,0.967144,0.159757,0.197622,13968.0,2640.0,3958.0,-100.0,7.0,-84.0
2855.0,2786.0,2854.0,3099.0,3007.0,0.771301,0.159058,-0.612427,0.067993,-9.0,-1.0,-8.0,6976.0,1366.0,1985.0,-940.0,38.0,353.0,-563.0,4.0,-831.0,0.966361,0.162081,0.199163,13164.0,3124.0,4540.0,-201.0,-20.0,-163.0
2861.0,2782.0,2854.0,3091.0,2995.0,0.77179,0.158752,-0.612122,0.06604,-14.0,-2.0,-11.0,6797.0,1450.0,2113.0,-1115.0,104.0,473.0,-737.0,46.0,-965.0,0.965826,0.164198,0.200125,12408.0,3446.0,5092.0,-307.0,-44.0,-232.0
2861.0,2779.0,2846.0,3091.0,3003.0,0.773438,0.157166,-0.611267,0.05896,-31.0,-5.0,-21.0,6098.0,1664.0,2619.0,-1799.0,262.0,953.0,-1399.0,128.0,-1495.0,0.964087,0.171035,0.203333,9444.0,4060.0,7318.0,-697.0,-109.0,-478.0
2866.0,2783.0,2850.0,3095.0,2994.0,0.774841,0.155579,-0.610413,0.052734,-46.0,-6.0,-32.0,5543.0,1783.0,3106.0,-2340.0,335.0,1415.0,-1989.0,137.0,-1900.0,0.962354,0.176718,0.206352,7572.0,4294.0,9384.0,-1045.0,-134.0,-732.0
2859.0,2786.0,2843.0,3095.0,3002.0,0.779785,0.149841,-0.607056,0.03009,-99.0,-12.0,-70.0,3973.0,2060.0,4226.0,-3856.0,444.0,2440.0,-3396.0,284.0,-3065.0,0.955764,0.197155,0.218001,2724.0,4578.0,11652.0,-2260.0,-260.0,-1593.0
2853.0,2794.0,2851.0,3095.0,3003.0,-1.21228,-1.450256,-0.051819,-0.400757,8689.0,23185.0,-5667.0,14381.0,-5007.0,3493.0,5887.0,31384.0,7389.0,3811.0,21625.0,-16827.0,1.036762,3.557768,-0.475699,-542.0,3976.0,13242.0,-3611.0,-483.0,-2904.0
2863.0,2779.0,2851.0,3095.0,3003.0,0.788086,0.133545,-0.599487,-0.04071,-191.0,-31.0,-165.0,1483.0,1976.0,5587.0,-6168.0,-148.0,3575.0,-5116.0,663.0,-4921.0,0.934022,0.259301,0.245518,-1938.0,3740.0,12148.0,-4353.0,-695.0,-3771.0
2864.0,2783.0,2849.0,3099.0,3003.0,0.787231,0.119324,-0.593079,-0.11969,-266.0,-58.0,-248.0,257.0,1973.0,5078.0,-7158.0,-729.0,2881.0,-4724.0,1542.0,-5947.0,0.905217,0.329842,0.268079,-2090.0,3998.0,7184.0,-6091.0,-1327.0,-5663.0
2861.0,2787.0,2846.0,3095.0,3003.0,0.772705,0.100769,-0.584534,-0.225891,-342.0,-89.0,-338.0,199.0,1913.0,3093.0,-6828.0,-1526.0,665.0,-2448.0,1920.0,-6300.0,0.857819,0.419811,0.296266,1806.0,3020.0,-1788.0,-7814.0,-2021.0,-7734.0
2863.0,2787.0,2851.0,3099.0,3003.0,0.757263,0.091003,-0.579163,-0.287781,-366.0,-108.0,-390.0,720.0,1651.0,1466.0,-6036.0,-2208.0,-1094.0,-699.0,1247.0,-6360.0,0.824779,0.471171,0.312554,5128.0,1564.0,-7228.0,-8362.0,-2456.0,-8922.0
2863.0,2775.0,2849.0,3099.0,3003.0,0.704346,0.077454,-0.56543,-0.42218,-369.0,-136.0,-501.0,2413.0,1921.0,-1866.0,-3576.0,-2883.0,-4721.0,2592.0,-1119.0,-5951.0,0.731117,0.586535,0.348629,10116.0,8458.0,-12324.0,-8431.0,-3104.0,-11461.0
2861.0,2786.0,2855.0,3099.0,2999.0,0.622803,0.081421,-0.535461,-0.564636,-383.0,-95.0,-606.0,4526.0,5845.0,-2975.0,-184.0,60.0,-6361.0,4903.0,-3034.0,-2692.0,0.575027,0.7061,0.413349,15946.0,27024.0,-5424.0,-8753.0,-2165.0,-13868.0
2855.0,2783.0,2875.0,3091.0,2998.0,0.57489,0.090271,-0.50647,-0.636292,-411.0,-35.0,-649.0,5750.0,8590.0,-2135.0,1920.0,2459.0,-5991.0,5131.0,-4391.0,-82.0,0.467452,0.748317,0.470705,19100.0,32767.0,2460.0,-9405.0,-788.0,-14849.0
2855.0,2782.0,2850.0,3095.0,2999.0,0.477356,0.122803,-0.405884,-0.769653,-488.0,165.0,-695.0,8724.0,12142.0,1009.0,7098.0,6063.0,-4237.0,2643.0,-9376.0,3194.0,0.198471,0.742021,0.640413,26674.0,32304.0,9844.0,-11162.0,3786.0,-15918.0
2855.0,2783.0,2847.0,3095.0,2999.0,0.388245,0.170959,-0.254761,-0.869019,-565.0,343.0,-629.0,10887.0,12039.0,2026.0,11700.0,7324.0,-4624.0,-896.0,-14513.0,-700.0,-0.099315,0.575532,0.811797,23976.0,19646.0,2562.0,-12938.0,7872.0,-14395.0
2854.0,2782.0,2846.0,3095.0,2995.0,0.351074,0.195923,-0.168274,-0.900024,-579.0,369.0,-542.0,9808.0,10023.0,452.0,11729.0,6414.0,-6647.0,-1177.0,-13754.0,-5685.0,-0.234517,0.440468,0.866595,9878.0,4676.0,-11290.0,-13255.0,8455.0,-12408.0
2851.0,2783.0,2843.0,3101.0,2999.0,0.29364,0.243469,-0.000244,-0.924438,-453.0,316.0,-320.0,2055.0,27.0,-1832.0,5741.0,-1148.0,-9053.0,-617.0,-877.0,-10728.0,-0.450001,0.143436,0.881534,-24254.0,-31284.0,-3056.0,-10357.0,7261.0,-7320.0
2864.0,2783.0,2811.0,3093.0,3003.0,0.253296,0.285339,0.114197,-0.917297,-190.0,236.0,-182.0,-5628.0,-6778.0,2139.0,-865.0,-6245.0,-4505.0,-598.0,7221.0,-2745.0,-0.581333,-0.064954,0.811134,-30454.0,-27830.0,19200.0,-4336.0,5419.0,-4161.0
2855.0,2779.0,2847.0,3095.0,3003.0,0.234741,0.303955,0.141357,-0.912415,-56.0,187.0,-139.0,-8362.0,-8222.0,4311.0,-3274.0,-7277.0,-2039.0,-438.0,8122.0,1291.0,-0.621031,-0.115252,0.775233,-32316.0,-23054.0,20728.0,-1266.0,4294.0,-3163.0
2857.0,2783.0,2843.0,3103.0,3007.0,0.207214,0.331848,0.148438,-0.908264,80.0,62.0,-46.0,-12053.0,-6443.0,7247.0,-6610.0,-5360.0,1219.0,1381.0,6004.0,5996.0,-0.664328,-0.132114,0.735725,-32768.0,-2382.0,22016.0,1852.0,1435.0,-1042.0
2855.0,2779.0,2843.0,3093.0,3003.0,0.198669,0.342529,0.125183,-0.909668,96.0,-24.0,17.0,-13555.0,-2570.0,8970.0,-8042.0,-1819.0,2957.0,3010.0,2759.0,7748.0,-0.672916,-0.09165,0.733968,-28922.0,6036.0,21470.0,2213.0,-538.0,394.0
2855.0,2779.0,2847.0,3099.0,3007.0,0.200134,0.341492,0.112549,-0.911377,70.0,-54.0,32.0,-13431.0,-1076.0,9350.0,-7962.0,-515.0,3276.0,3347.0,1633.0,7778.0,-0.667505,-0.06846,0.741378,-25342.0,6102.0,20604.0,1613.0,-1227.0,754.0
2855.0,2785.0,2851.0,3095.0,3003.0,0.208618,0.331299,0.095154,-0.915283,18.0,-71.0,39.0,-11805.0,469.0,9607.0,-6511.0,763.0,3360.0,2950.0,343.0,6741.0,-0.646166,-0.035955,0.762452,-17030.0,3668.0,19488.0,432.0,-1613.0,901.0
2855.0,2775.0,2847.0,3091.0,3003.0,0.213623,0.324768,0.090576,-0.91687,0.0,-62.0,36.0,-10508.0,662.0,9561.0,-5312.0,885.0,3231.0,2306.0,-6.0,5841.0,-0.634239,-0.027337,0.772607,-12928.0,1934.0,18616.0,9.0,-1404.0,830.0
2863.0,2783.0,2851.0,3094.0,3006.0,0.22229,0.315002,0.087158,-0.918579,-8.0,-26.0,27.0,-7814.0,209.0,9035.0,-2755.0,373.0,2592.0,709.0,-134.0,3731.0,-0.617458,-0.02008,0.786377,-8032.0,-1828.0,16028.0,-179.0,-587.0,632.0
2855.0,2781.0,2849.0,3095.0,3003.0,0.227051,0.312927,0.084595,-0.918335,14.0,4.0,21.0,-5949.0,-520.0,8204.0,-926.0,-411.0,1733.0,-473.0,184.0,1941.0,-0.613159,-0.013272,0.789811,-7594.0,-2866.0,13884.0,327.0,107.0,490.0
2859.0,2779.0,2859.0,3099.0,3003.0,0.228271,0.314209,0.08197,-0.917847,25.0,10.0,20.0,-5436.0,-655.0,7819.0,-404.0,-597.0,1354.0,-729.0,277.0,1320.0,-0.614214,-0.007022,0.789104,-8144.0,-1760.0,13418.0,573.0,251.0,471.0
2855.0,2782.0,2851.0,3102.0,3005.0,0.230957,0.317627,0.074768,-0.916626,26.0,6.0,24.0,-4994.0,-411.0,7274.0,59.0,-490.0,826.0,-723.0,175.0,608.0,-0.616827,0.009648,0.787067,-9286.0,378.0,13188.0,608.0,141.0,560.0
2854.0,2783.0,2855.0,3095.0,2999.0,0.232971,0.31842,0.071045,-0.916138,22.0,-2.0,26.0,-4959.0,-194.0,7079.0,91.0,-343.0,630.0,-571.0,92.0,433.0,-0.616537,0.018192,0.787145,-9824.0,938.0,13042.0,506.0,-27.0,607.0
2855.0,2782.0,2845.0,3095.0,2999.0,0.238098,0.3172,0.064758,-0.91571,10.0,-17.0,26.0,-4981.0,117.0,6808.0,30.0,-148.0,332.0,-273.0,28.0,239.0,-0.611764,0.03245,0.790407,-10044.0,812.0,12958.0,232.0,-384.0,599.0
2855.0,2782.0,2858.0,3091.0,2999.0,0.240784,0.315308,0.062439,-0.915833,5.0,-22.0,23.0,-4981.0,173.0,6716.0,-3.0,-133.0,216.0,-180.0,60.0,168.0,-0.607607,0.037475,0.793408,-9922.0,602.0,12886.0,116.0,-486.0,549.0
2863.0,2783.0,2842.0,3099.0,3003.0,0.245178,0.310608,0.059631,-0.916443,-2.0,-22.0,14.0,-4894.0,135.0,6568.0,9.0,-217.0,14.0,-119.0,181.0,-3.0,-0.598549,0.043011,0.799947,-9450.0,30.0,12770.0,-27.0,-501.0,343.0
2851.0,2783.0,2842.0,3103.0,2992.0,0.246643,0.30835,0.059082,-0.91687,-3.0,-19.0,9.0,-4821.0,66.0,6516.0,49.0,-292.0,-61.0,-143.0,249.0,-90.0,-0.594577,0.043763,0.802913,-9160.0,-300.0,12752.0,-63.0,-435.0,222.0
2855.0,2786.0,2851.0,3089.0,3003.0,0.247925,0.30481,0.059143,-0.917664,-4.0,-10.0,1.0,-4608.0,-65.0,6464.0,215.0,-413.0,-148.0,-272.0,307.0,-263.0,-0.588751,0.042593,0.807166,-8590.0,-576.0,12824.0,-88.0,-228.0,44.0
2854.0,2782.0,2851.0,3101.0,3005.0,0.248108,0.303833,0.05957,-0.917908,-4.0,-6.0,0.0,-4538.0,-152.0,6448.0,273.0,-491.0,-173.0,-339.0,357.0,-320.0,-0.587341,0.041407,0.808249,-8702.0,-846.0,12796.0,-73.0,-119.0,20.0
2857.0,2787.0,2851.0,3095.0,2999.0,0.248291,0.303406,0.060181,-0.917969,2.0,1.0,2.0,-4554.0,-306.0,6416.0,254.0,-635.0,-208.0,-378.0,499.0,-342.0,-0.586919,0.040178,0.808638,-9422.0,-976.0,12698.0,47.0,38.0,46.0
2855.0,2775.0,2853.0,3095.0,3007.0,0.24823,0.303833,0.059937,-0.917847,5.0,2.0,2.0,-4635.0,-314.0,6382.0,177.0,-648.0,-238.0,-315.0,551.0,-322.0,-0.5875,0.040816,0.808154,-9806.0,-542.0,12552.0,135.0,63.0,62.0
2861.0,2783.0,2850.0,3102.0,3003.0,0.248108,0.304993,0.058228,-0.917603,9.0,0.0,3.0,-4869.0,-122.0,6327.0,-47.0,-486.0,-285.0,-54.0,516.0,-223.0,-0.588618,0.044483,0.807141,-10516.0,648.0,12512.0,227.0,7.0,78.0
2855.0,2775.0,2851.0,3099.0,2997.0,0.248108,0.305359,0.057129,-0.917603,8.0,-3.0,2.0,-4992.0,47.0,6317.0,-169.0,-335.0,-294.0,108.0,438.0,-153.0,-0.588744,0.046681,0.807044,-10714.0,1124.0,12568.0,200.0,-54.0,62.0
2861.0,2782.0,2863.0,3103.0,3007.0,0.247986,0.305115,0.055481,-0.917786,2.0,-8.0,-1.0,-5162.0,336.0,6298.0,-348.0,-69.0,-318.0,376.0,287.0,-55.0,-0.587577,0.049489,0.807654,-10626.0,1370.0,12598.0,56.0,-162.0,-10.0
2855.0,2781.0,2851.0,3099.0,2995.0,0.247864,0.304504,0.055298,-0.91803,-1.0,-8.0,-2.0,-5165.0,411.0,6305.0,-360.0,6.0,-317.0,420.0,226.0,-44.0,-0.586501,0.049421,0.808434,-10234.0,1186.0,12660.0,-22.0,-183.0,-44.0
2855.0,2781.0,2858.0,3099.0,2999.0,0.247681,0.302979,0.055908,-0.918579,-5.0,-6.0,-3.0,-5033.0,367.0,6303.0,-246.0,-21.0,-334.0,337.0,206.0,-127.0,-0.584314,0.047372,0.810212,-9594.0,372.0,12630.0,-102.0,-126.0,-57.0
2859.0,2782.0,2852.0,3095.0,3003.0,0.24762,0.302551,0.056458,-0.918701,-4.0,-3.0,-2.0,-4961.0,285.0,6308.0,-177.0,-92.0,-332.0,253.0,238.0,-170.0,-0.583868,0.0461,0.810603,-9506.0,40.0,12648.0,-82.0,-63.0,-33.0
2855.0,2778.0,2855.0,3102.0,3003.0,0.247498,0.302795,0.057007,-0.918579,1.0,2.0,0.0,-4937.0,156.0,6318.0,-148.0,-213.0,-318.0,166.0,328.0,-180.0,-0.584501,0.045152,0.810108,-9994.0,72.0,12670.0,34.0,65.0,16.0
2851.0,2782.0,2846.0,3089.0,2999.0,0.247437,0.303467,0.056824,-0.918396,4.0,4.0,1.0,-4982.0,156.0,6328.0,-185.0,-219.0,-302.0,181.0,345.0,-146.0,-0.585526,0.045804,0.809355,-10266.0,398.0,12718.0,92.0,97.0,29.0
2855.0,2783.0,2847.0,3095.0,2999.0,0.247192,0.304993,0.055908,-0.91803,5.0,2.0,0.0,-5127.0,290.0,6369.0,-313.0,-104.0,-247.0,297.0,284.0,-20.0,-0.587625,0.048133,0.807737,-10658.0,1064.0,12926.0,123.0,49.0,22.0
2855.0,2779.0,2854.0,3103.0,2999.0,0.247131,0.30542,0.055359,-0.917969,4.0,-1.0,0.0,-5169.0,361.0,6401.0,-351.0,-43.0,-213.0,335.0,238.0,32.0,-0.588094,0.049322,0.807395,-10550.0,1132.0,12976.0,98.0,-11.0,21.0
2858.0,2783.0,2850.0,3095.0,3003.0,0.247314,0.305176,0.054443,-0.91803,1.0,-5.0,2.0,-5180.0,402.0,6487.0,-369.0,-15.0,-130.0,317.0,200.0,110.0,-0.58725,0.050988,0.807847,-10292.0,734.0,13222.0,40.0,-113.0,50.0
2851.0,2779.0,2855.0,3088.0,2999.0,0.247559,0.304688,0.054138,-0.918152,1.0,-6.0,2.0,-5151.0,348.0,6522.0,-348.0,-73.0,-101.0,258.0,235.0,118.0,-0.586304,0.051442,0.808523,-10086.0,312.0,13214.0,33.0,-125.0,66.0
2855.0,2779.0,2853.0,3103.0,3003.0,0.248108,0.303955,0.053406,-0.918274,3.0,-4.0,3.0,-5036.0,214.0,6600.0,-245.0,-218.0,-31.0,79.0,301.0,106.0,-0.584729,0.052745,0.809544,-9682.0,28.0,13436.0,71.0,-69.0,77.0
2853.0,2782.0,2851.0,3095.0,2995.0,0.248291,0.303894,0.052979,-0.918274,4.0,-1.0,3.0,-4979.0,165.0,6634.0,-191.0,-274.0,0.0,-1.0,319.0,96.0,-0.584424,0.053611,0.809717,-9664.0,58.0,13446.0,93.0,-18.0,73.0
2855.0,2779.0,2818.0,3095.0,3005.0,0.24823,0.304504,0.052185,-0.918091,5.0,3.0,1.0,-4933.0,156.0,6670.0,-140.0,-297.0,42.0,-70.0,307.0,99.0,-0.585033,0.055353,0.809063,-9814.0,436.0,13476.0,115.0,70.0,25.0
2855.0,2783.0,2851.0,3094.0,3007.0,0.247986,0.305115,0.05188,-0.91803,4.0,3.0,-1.0,-4947.0,194.0,6680.0,-146.0,-265.0,56.0,-58.0,279.0,115.0,-0.58594,0.056074,0.808489,-10010.0,652.0,13416.0,110.0,87.0,-17.0
2858.0,2779.0,2844.0,3099.0,3007.0,0.246948,0.306091,0.051575,-0.917969,2.0,2.0,-5.0,-5001.0,310.0,6689.0,-188.0,-152.0,75.0,15.0,193.0,162.0,-0.587437,0.056489,0.807298,-10174.0,972.0,13426.0,64.0,56.0,-94.0
2853.0,2782.0,2854.0,3099.0,2997.0,0.246338,0.306335,0.051575,-0.91803,1.0,0.0,-6.0,-5018.0,355.0,6690.0,-202.0,-105.0,79.0,46.0,157.0,176.0,-0.58786,0.05623,0.80696,-10102.0,942.0,13356.0,31.0,18.0,-118.0
2859.0,2783.0,2845.0,3095.0,2999.0,0.245178,0.306091,0.051941,-0.918457,-1.0,-2.0,-5.0,-4987.0,372.0,6704.0,-172.0,-75.0,90.0,34.0,115.0,169.0,-0.587733,0.054683,0.807286,-9774.0,674.0,13412.0,-6.0,-44.0,-109.0
2857.0,2779.0,2851.0,3095.0,3011.0,0.244751,0.305847,0.052063,-0.91864,0.0,-3.0,-4.0,-4947.0,342.0,6703.0,-134.0,-100.0,87.0,-1.0,122.0,143.0,-0.587412,0.054058,0.80755,-9636.0,456.0,13414.0,6.0,-46.0,-79.0
2855.0,2783.0,2857.0,3095.0,3003.0,0.244202,0.305664,0.051819,-0.918823,3.0,0.0,-1.0,-4888.0,307.0,6692.0,-79.0,-135.0,74.0,-49.0,133.0,98.0,-0.587011,0.054063,0.807755,-9682.0,582.0,13370.0,69.0,7.0,-7.0
2847.0,2783.0,2847.0,3095.0,2995.0,0.244141,0.305969,0.051514,-0.918762,4.0,2.0,0.0,-4896.0,320.0,6694.0,-84.0,-128.0,79.0,-45.0,127.0,106.0,-0.587379,0.054741,0.807458,-9878.0,760.0,13430.0,98.0,47.0,18.0
2854.0,2783.0,2850.0,3095.0,2997.0,0.243958,0.30719,0.050537,-0.918457,4.0,4.0,1.0,-4948.0,403.0,6715.0,-123.0,-64.0,110.0,-4.0,80.0,157.0,-0.588939,0.05705,0.806159,-10082.0,1120.0,13470.0,108.0,111.0,36.0
2855.0,2780.0,2847.0,3099.0,3003.0,0.244019,0.307983,0.050171,-0.918213,3.0,5.0,1.0,-4999.0,446.0,6721.0,-165.0,-30.0,124.0,32.0,65.0,195.0,-0.590074,0.058172,0.805289,-10340.0,1116.0,13484.0,88.0,116.0,38.0
2858.0,2781.0,2849.0,3095.0,2993.0,0.243958,0.309265,0.049805,-0.917786,1.0,3.0,0.0,-5133.0,502.0,6720.0,-283.0,14.0,135.0,128.0,73.0,276.0,-0.591979,0.059475,0.80372,-10666.0,1134.0,13498.0,38.0,70.0,6.0
2855.0,2783.0,2854.0,3099.0,3003.0,0.243835,0.309631,0.049805,-0.917725,0.0,1.0,-1.0,-5185.0,520.0,6726.0,-330.0,31.0,145.0,163.0,75.0,313.0,-0.592601,0.059584,0.803322,-10636.0,1132.0,13486.0,14.0,29.0,-18.0
2855.0,2782.0,2850.0,3095.0,3006.0,0.243591,0.30957,0.049927,-0.917786,-1.0,-3.0,-2.0,-5237.0,520.0,6731.0,-382.0,35.0,150.0,198.0,91.0,348.0,-0.592562,0.059173,0.803341,-10562.0,998.0,13504.0,-16.0,-52.0,-33.0
2862.0,2789.0,2851.0,3095.0,3003.0,0.243469,0.309326,0.049988,-0.917908,-1.0,-4.0,-2.0,-5228.0,509.0,6729.0,-376.0,26.0,145.0,193.0,98.0,340.0,-0.592207,0.058854,0.80365,-10344.0,952.0,13426.0,-22.0,-80.0,-28.0
2854.0,2779.0,2851.0,3099.0,2998.0,0.243408,0.308411,0.05011,-0.918213,-1.0,-5.0,0.0,-5164.0,445.0,6703.0,-324.0,-31.0,110.0,149.0,135.0,278.0,-0.590768,0.058116,0.804734,-10110.0,682.0,13324.0,-13.0,-97.0,2.0
2855.0,2779.0,2847.0,3101.0,3003.0,0.24353,0.308044,0.050049,-0.918335,0.0,-4.0,0.0,-5118.0,401.0,6697.0,-283.0,-75.0,100.0,105.0,159.0,243.0,-0.590153,0.058113,0.80525,-9942.0,532.0,13350.0,2.0,-87.0,22.0
2855.0,2781.0,2855.0,3095.0,3051.0,0.243713,0.307556,0.049744,-0.918457,1.0,-2.0,1.0,-5044.0,348.0,6674.0,-217.0,-131.0,72.0,48.0,187.0,178.0,-0.589201,0.058536,0.805894,-9954.0,568.0,13236.0,38.0,-43.0,34.0
2855.0,2783.0,2849.0,3093.0,2995.0,0.243774,0.307495,0.0495,-0.918457,1.0,-2.0,1.0,-5028.0,350.0,6655.0,-203.0,-133.0,52.0,48.0,188.0,153.0,-0.588976,0.058993,0.805986,-9952.0,778.0,13232.0,45.0,-26.0,25.0
2855.0,2781.0,2847.0,3095.0,3007.0,0.243652,0.307495,0.049194,-0.918518,1.0,-1.0,-1.0,-5018.0,388.0,6662.0,-194.0,-99.0,58.0,55.0,153.0,155.0,-0.588852,0.059472,0.806069,-10044.0,864.0,13316.0,29.0,-15.0,-10.0
2851.0,2787.0,2847.0,3091.0,3003.0,0.24353,0.307495,0.049133,-0.918579,0.0,-1.0,-1.0,-5018.0,402.0,6669.0,-194.0,-85.0,65.0,58.0,139.0,161.0,-0.588848,0.059503,0.806127,-10018.0,890.0,13408.0,14.0,-21.0,-18.0
2855.0,2783.0,2849.0,3102.0,3007.0,0.243347,0.30719,0.049133,-0.918701,0.0,-3.0,-1.0,-5031.0,401.0,6671.0,-211.0,-84.0,64.0,71.0,146.0,170.0,-0.588344,0.05923,0.80645,-10132.0,804.0,13364.0,8.0,-51.0,-17.0
2859.0,2783.0,2843.0,3095.0,3006.0,0.243225,0.306946,0.049072,-0.918823,0.0,-3.0,-1.0,-5040.0,411.0,6670.0,-223.0,-73.0,60.0,87.0,142.0,175.0,-0.587929,0.059136,0.806771,-10136.0,902.0,13336.0,12.0,-66.0,-16.0
2858.0,2783.0,2849.0,3103.0,2999.0,0.243103,0.306335,0.048889,-0.919067,0.0,-4.0,0.0,-5011.0,415.0,6693.0,-203.0,-68.0,77.0,66.0,125.0,177.0,-0.586856,0.059077,0.807552,-9828.0,736.0,13468.0,4.0,-79.0,0.0
2854.0,2783.0,2851.0,3091.0,3003.0,0.243164,0.305969,0.048767,-0.919189,0.0,-4.0,0.0,-4982.0,389.0,6692.0,-179.0,-95.0,72.0,40.0,140.0,157.0,-0.586204,0.059149,0.808043,-9788.0,596.0,13370.0,9.0,-70.0,8.0
2859.0,2786.0,2854.0,3099.0,3003.0,0.243103,0.305603,0.048584,-0.919312,1.0,-2.0,0.0,-4936.0,327.0,6694.0,-139.0,-158.0,70.0,-16.0,179.0,128.0,-0.585511,0.059258,0.808479,-9758.0,508.0,13420.0,41.0,-26.0,11.0
2855.0,2781.0,2853.0,3093.0,3003.0,0.243042,0.305603,0.048401,-0.919373,2.0,-1.0,0.0,-4919.0,315.0,6692.0,-122.0,-172.0,68.0,-33.0,185.0,116.0,-0.585453,0.059552,0.808579,-9716.0,602.0,13352.0,57.0,-5.0,14.0
2854.0,2771.0,2849.0,3091.0,3003.0,0.24292,0.305847,0.047791,-0.919312,3.0,0.0,0.0,-4910.0,358.0,6679.0,-113.0,-139.0,57.0,-18.0,155.0,103.0,-0.585556,0.060724,0.808317,-9864.0,940.0,13326.0,71.0,8.0,14.0
2855.0,2786.0,2846.0,3099.0,3003.0,0.242859,0.30603,0.047485,-0.919312,2.0,-1.0,0.0,-4929.0,401.0,6666.0,-130.0,-101.0,45.0,18.0,132.0,106.0,-0.585739,0.061337,0.808205,-9978.0,1072.0,13250.0,66.0,-1.0,9.0
2854.0,2783.0,2851.0,3099.0,2995.0,0.242737,0.30603,0.046936,-0.919373,1.0,-2.0,-1.0,-4954.0,484.0,6647.0,-157.0,-26.0,25.0,83.0,82.0,110.0,-0.585498,0.062266,0.80831,-9940.0,1202.0,13224.0,32.0,-34.0,-4.0
2853.0,2781.0,2845.0,3095.0,2999.0,0.242676,0.305908,0.046814,-0.919434,0.0,-3.0,-1.0,-4941.0,506.0,6641.0,-146.0,-5.0,17.0,89.0,61.0,98.0,-0.585246,0.062388,0.808478,-9774.0,1114.0,13298.0,12.0,-48.0,-10.0
2855.0,2783.0,2847.0,3093.0,2999.0,0.242676,0.305481,0.046814,-0.919556,-1.0,-2.0,-1.0,-4893.0,458.0,6649.0,-104.0,-51.0,21.0,36.0,83.0,74.0,-0.584535,0.06217,0.808964,-9630.0,608.0,13270.0,-4.0,-37.0,-4.0
2854.0,2783.0,2853.0,3095.0,3006.0,0.242615,0.305359,0.046814,-0.919617,0.0,-1.0,0.0,-4854.0,398.0,6650.0,-67.0,-110.0,21.0,-16.0,119.0,49.0,-0.584342,0.062067,0.809121,-9446.0,418.0,13318.0,19.0,-14.0,4.0
22070.0,0.087219,-2.0,-1.0,-1.0,7659.0,1063.0,1373.0,-325.0,-109.0,-29.0,-5.0,-67.0,-337.0,0.974726,0.14308,0.171243,15274.0,2106.0,2818.0,-35.0,-7.0,-8.0,,,,,,,
2864.0,2779.0,2851.0,3093.0,3003.0,0.760254,0.165283,-0.622131,0.087097,-2.0,-1.0,-1.0,7650.0,1048.0,1377.0,-335.0,-122.0,-25.0,-6.0,-79.0,-348.0,0.974747,0.142943,0.171206,15258.0,1994.0,2784.0,-33.0,-11.0,-8.0
2861.0,2783.0,2847.0,3091.0,3005.0,0.760254,0.1651,-0.622253,0.086975,-1.0,-1.0,0.0,7636.0,996.0,1365.0,-350.0,-173.0,-36.0,17.0,-122.0,-372.0,0.97486,0.142795,0.171093,15268.0,1814.0,2704.0,-6.0,-12.0,0.0
2865.0,2783.0,2837.0,3095.0,2995.0,0.760193,0.165039,-0.622314,0.087097,0.0,-1.0,0.0,7647.0,991.0,1375.0,-339.0,-176.0,-25.0,11.0,-130.0,-359.0,0.974907,0.142519,0.170966,15364.0,2008.0,2800.0,17.0,-6.0,7.0
2859.0,2789.0,2849.0,3094.0,2999.0,0.760254,0.165161,-0.622192,0.08728,0.0,-1.0,-1.0,7618.0,1058.0,1420.0,-368.0,-109.0,17.0,-56.0,-80.0,-371.0,0.974879,0.142519,0.171202,15130.0,2370.0,3014.0,11.0,0.0,-5.0
2861.0,2779.0,2847.0,3094.0,2998.0,0.760254,0.165161,-0.622131,0.087219,-1.0,-1.0,-1.0,7610.0,1090.0,1428.0,-375.0,-78.0,24.0,-74.0,-53.0,-372.0,0.974766,0.142605,0.171268,15202.0,2334.0,2892.0,-15.0,-10.0,-6.0
2861.0,2777.0,2847.0,3091.0,3003.0,0.760254,0.165039,-0.622253,0.086914,-2.0,-1.0,-1.0,7615.0,1102.0,1415.0,-370.0,-67.0,13.0,-67.0,-39.0,-368.0,0.97483,0.142778,0.171103,15300.0,2152.0,2766.0,-31.0,-20.0,-8.0
2863.0,2787.0,2854.0,3119.0,3006.0,0.760193,0.164917,-0.622314,0.086792,-1.0,-1.0,0.0,7639.0,1088.0,1405.0,-346.0,-81.0,4.0,-49.0,-51.0,-348.0,0.974785,0.142714,0.170953,15408.0,2086.0,2768.0,-22.0,-17.0,2.0
2861.0,2791.0,2847.0,3093.0,3006.0,0.760132,0.164795,-0.622437,0.086792,-1.0,-1.0,0.0,7658.0,1090.0,1380.0,-328.0,-77.0,-18.0,-26.0,-41.0,-333.0,0.974873,0.142487,0.170749,15386.0,2258.0,2704.0,-7.0,-13.0,2.0
2865.0,2775.0,2849.0,3095.0,2995.0,0.760132,0.164734,-0.622559,0.086731,-1.0,-1.0,-1.0,7667.0,1095.0,1375.0,-320.0,-71.0,-22.0,-23.0,-34.0,-325.0,0.975028,0.142449,0.170606,15428.0,2214.0,2772.0,-16.0,-17.0,-3.0
2859.0,2782.0,2855.0,3095.0,3007.0,0.760132,0.16449,-0.62262,0.086487,-2.0,-1.0,-1.0,7692.0,1074.0,1371.0,-295.0,-92.0,-26.0,-7.0,-54.0,-305.0,0.974998,0.142371,0.170568,15464.0,2006.0,2694.0,-32.0,-11.0,-8.0
2863.0,2786.0,2855.0,3094.0,2998.0,0.760071,0.164368,-0.622681,0.086426,-2.0,-1.0,-1.0,7697.0,1048.0,1356.0,-289.0,-117.0,-40.0,15.0,-73.0,-305.0,0.974974,0.142231,0.170429,15422.0,1946.0,2606.0,-24.0,-13.0,-6.0
2859.0,2787.0,2849.0,3095.0,2999.0,0.76001,0.164246,-0.622864,0.086487,0.0,-1.0,0.0,7708.0,996.0,1348.0,-280.0,-166.0,-45.0,38.0,-118.0,-304.0,0.975175,0.141918,0.170159,15382.0,1902.0,2702.0,8.0,-9.0,5.0
2859.0,2779.0,2851.0,3091.0,2995.0,0.759949,0.164246,-0.622864,0.086609,0.0,-1.0,0.0,7699.0,993.0,1351.0,-289.0,-168.0,-42.0,34.0,-120.0,-312.0,0.975139,0.141745,0.170087,15304.0,1992.0,2722.0,18.0,-6.0,5.0
2862.0,2783.0,2843.0,3091.0,2999.0,0.759888,0.164185,-0.622986,0.086792,0.0,-1.0,0.0,7694.0,1017.0,1371.0,-295.0,-141.0,-20.0,4.0,-102.0,-311.0,0.975298,0.141383,0.169894,15396.0,2112.0,2828.0,6.0,-11.0,13.0
2858.0,2790.0,2847.0,3099.0,3005.0,0.759827,0.164124,-0.622986,0.086914,0.0,-1.0,0.0,7688.0,1023.0,1369.0,-301.0,-133.0,-22.0,2.0,-94.0,-316.0,0.975252,0.141118,0.169843,15312.0,2068.0,2718.0,2.0,-7.0,17.0
2863.0,2783.0,2850.0,3091.0,3003.0,0.759766,0.164062,-0.623047,0.087158,1.0,-1.0,0.0,7675.0,1018.0,1364.0,-314.0,-134.0,-26.0,3.0,-92.0,-329.0,0.975338,0.140691,0.169736,15300.0,2044.0,2654.0,28.0,-6.0,15.0
2862.0,2780.0,2847.0,3091.0,3005.0,0.759705,0.164124,-0.623047,0.087402,1.0,-1.0,0.0,7673.0,1037.0,1372.0,-317.0,-113.0,-17.0,-12.0,-76.0,-327.0,0.975353,0.140459,0.169666,15332.0,2230.0,2816.0,36.0,-6.0,14.0
2859.0,2783.0,2847.0,3090.0,2995.0,0.759644,0.164368,-0.623047,0.087585,0.0,-1.0,0.0,7665.0,1111.0,1365.0,-325.0,-40.0,-23.0,-33.0,-5.0,-326.0,0.97538,0.140582,0.169525,15340.0,2480.0,2700.0,17.0,-9.0,4.0
2862.0,2789.0,2845.0,3095.0,2999.0,0.759644,0.164429,-0.623108,0.087585,-1.0,-1.0,0.0,7671.0,1140.0,1355.0,-320.0,-12.0,-32.0,-33.0,23.0,-319.0,0.975483,0.140664,0.169429,15354.0,2426.0,2636.0,-2.0,-12.0,5.0
2859.0,2783.0,2851.0,3095.0,2999.0,0.759521,0.164368,-0.62323,0.087402,-1.0,-1.0,0.0,7682.0,1165.0,1344.0,-308.0,12.0,-41.0,-30.0,48.0,-305.0,0.975445,0.140738,0.16908,15396.0,2374.0,2714.0,-17.0,-18.0,3.0
2864.0,2775.0,2849.0,3101.0,3003.0,0.759521,0.164307,-0.623291,0.08728,-2.0,-1.0,-1.0,7687.0,1174.0,1357.0,-304.0,20.0,-27.0,-45.0,50.0,-298.0,0.975487,0.140787,0.169002,15354.0,2410.0,2754.0,-24.0,-14.0,-6.0
2861.0,2775.0,2846.0,3095.0,2999.0,0.75946,0.164124,-0.623413,0.087036,-2.0,-1.0,0.0,7686.0,1126.0,1352.0,-305.0,-27.0,-30.0,-26.0,7.0,-306.0,0.975484,0.140772,0.168775,15442.0,1972.0,2714.0,-28.0,-12.0,3.0
2864.0,2782.0,2846.0,3095.0,2997.0,0.75946,0.164001,-0.623474,0.087097,-1.0,-1.0,0.0,7682.0,1081.0,1342.0,-309.0,-69.0,-40.0,-4.0,-27.0,-317.0,0.975576,0.1405,0.16875,15316.0,1912.0,2598.0,-3.0,-1.0,12.0
2863.0,2789.0,2861.0,3095.0,2997.0,0.759399,0.164062,-0.623474,0.087402,1.0,-1.0,0.0,7670.0,1056.0,1353.0,-322.0,-92.0,-28.0,-9.0,-52.0,-331.0,0.975611,0.140192,0.16869,15308.0,2176.0,2790.0,30.0,-6.0,10.0
2859.0,2779.0,2851.0,3091.0,2999.0,0.759399,0.164062,-0.623474,0.087463,0.0,-1.0,0.0,7668.0,1074.0,1367.0,-324.0,-73.0,-14.0,-29.0,-39.0,-328.0,0.975631,0.140116,0.168701,15342.0,2252.0,2776.0,14.0,-9.0,13.0
2863.0,2775.0,2847.0,3095.0,3005.0,0.759399,0.163879,-0.623535,0.087463,-2.0,-1.0,0.0,7651.0,1044.0,1394.0,-341.0,-101.0,12.0,-47.0,-73.0,-344.0,0.975691,0.139827,0.168685,15230.0,1846.0,2906.0,-26.0,-6.0,2.0
2859.0,2789.0,2847.0,3095.0,3005.0,0.759399,0.163757,-0.623535,0.087463,-1.0,-1.0,-1.0,7625.0,1000.0,1398.0,-367.0,-143.0,15.0,-41.0,-112.0,-375.0,0.97567,0.139641,0.168725,15076.0,1740.0,2758.0,-15.0,-7.0,-1.0
2863.0,2787.0,2846.0,3099.0,3007.0,0.759277,0.163818,-0.623657,0.087769,2.0,-1.0,0.0,7629.0,948.0,1363.0,-364.0,-193.0,-16.0,4.0,-148.0,-384.0,0.975814,0.139292,0.168421,15316.0,1914.0,2700.0,58.0,-14.0,6.0
2858.0,2774.0,2843.0,3095.0,2998.0,0.759155,0.164062,-0.623657,0.088074,3.0,-1.0,-1.0,7634.0,975.0,1360.0,-359.0,-165.0,-17.0,-2.0,-121.0,-376.0,0.975805,0.139242,0.168209,15308.0,2158.0,2708.0,78.0,-7.0,-1.0
2859.0,2783.0,2843.0,3093.0,3002.0,0.759033,0.164612,-0.623657,0.088318,1.0,-1.0,-1.0,7659.0,1081.0,1366.0,-334.0,-63.0,-9.0,-39.0,-31.0,-336.0,0.975829,0.139732,0.167886,15442.0,2422.0,2760.0,35.0,-10.0,-11.0
2861.0,2783.0,2847.0,3099.0,2995.0,0.759033,0.164795,-0.623596,0.088318,0.0,-1.0,-1.0,7662.0,1111.0,1351.0,-331.0,-36.0,-24.0,-34.0,-1.0,-332.0,0.975769,0.14002,0.167902,15302.0,2376.0,2584.0,12.0,-9.0,-11.0
2861.0,2787.0,2847.0,3095.0,3007.0,0.758911,0.164978,-0.623718,0.088196,0.0,-1.0,-1.0,7668.0,1108.0,1329.0,-325.0,-42.0,-43.0,-13.0,0.0,-330.0,0.975794,0.140389,0.167482,15300.0,2170.0,2626.0,7.0,-12.0,-15.0
2865.0,2779.0,2853.0,3095.0,2998.0,0.758911,0.165039,-0.623779,0.088135,0.0,-1.0,-1.0,7662.0,1102.0,1328.0,-332.0,-49.0,-43.0,-12.0,-6.0,-338.0,0.975877,0.140547,0.167375,15292.0,2176.0,2678.0,9.0,-14.0,-14.0
2865.0,2775.0,2847.0,3091.0,3003.0,0.75885,0.165161,-0.623779,0.088135,0.0,-1.0,-1.0,7676.0,1085.0,1345.0,-317.0,-67.0,-25.0,-19.0,-30.0,-322.0,0.975823,0.140712,0.167242,15370.0,2112.0,2714.0,12.0,-3.0,-5.0
2859.0,2786.0,2851.0,3095.0,2998.0,0.75885,0.165222,-0.623779,0.088196,0.0,-1.0,-1.0,7675.0,1078.0,1334.0,-319.0,-74.0,-35.0,-8.0,-33.0,-327.0,0.975854,0.140728,0.167233,15342.0,2138.0,2594.0,20.0,-4.0,-10.0
2860.0,2787.0,2851.0,3089.0,3003.0,0.758728,0.165466,-0.62384,0.088379,1.0,-1.0,0.0,7713.0,1089.0,1338.0,-281.0,-64.0,-29.0,-9.0,-28.0,-288.0,0.975898,0.140819,0.166923,15526.0,2272.0,2752.0,32.0,-8.0,3.0
2861.0,2775.0,2853.0,3095.0,3003.0,0.758667,0.165588,-0.62384,0.088501,1.0,-1.0,0.0,7710.0,1109.0,1336.0,-284.0,-44.0,-30.0,-15.0,-9.0,-288.0,0.975884,0.140832,0.166812,15372.0,2352.0,2654.0,27.0,-8.0,6.0
2861.0,2782.0,2847.0,3091.0,3003.0,0.758545,0.165649,-0.623962,0.088623,0.0,-1.0,0.0,7714.0,1125.0,1337.0,-281.0,-27.0,-26.0,-24.0,4.0,-282.0,0.975968,0.14071,0.166476,15464.0,2234.0,2694.0,8.0,-16.0,14.0
2863.0,2787.0,2855.0,3095.0,3002.0,0.758484,0.165649,-0.623962,0.088684,0.0,-1.0,0.0,7720.0,1114.0,1332.0,-274.0,-37.0,-31.0,-15.0,-3.0,-277.0,0.975912,0.140614,0.166394,15478.0,2126.0,2646.0,11.0,-8.0,12.0
2863.0,2785.0,2843.0,3091.0,3006.0,0.758484,0.16571,-0.623962,0.088928,1.0,0.0,0.0,7706.0,1088.0,1334.0,-289.0,-62.0,-29.0,-11.0,-26.0,-295.0,0.976004,0.140402,0.166417,15334.0,2098.0,2728.0,23.0,6.0,6.0
2863.0,2778.0,2844.0,3095.0,2999.0,0.758423,0.165771,-0.623962,0.08905,1.0,-1.0,0.0,7693.0,1074.0,1325.0,-302.0,-75.0,-37.0,-2.0,-34.0,-311.0,0.975979,0.140322,0.166326,15328.0,2050.0,2592.0,28.0,-3.0,10.0
2863.0,2782.0,2835.0,3095.0,2999.0,0.758362,0.165894,-0.623962,0.089233,1.0,-1.0,0.0,7701.0,1058.0,1327.0,-294.0,-90.0,-34.0,1.0,-50.0,-305.0,0.975985,0.140258,0.166226,15452.0,2018.0,2694.0,37.0,-11.0,13.0
2863.0,2785.0,2845.0,3103.0,3005.0,0.75824,0.166016,-0.624023,0.089722,2.0,-1.0,1.0,7706.0,1051.0,1345.0,-290.0,-94.0,-14.0,-14.0,-61.0,-298.0,0.976109,0.139782,0.166011,15374.0,2128.0,2754.0,48.0,-10.0,24.0
2864.0,2783.0,2845.0,3093.0,3007.0,0.758179,0.166138,-0.624084,0.089966,1.0,-1.0,0.0,7699.0,1054.0,1352.0,-298.0,-89.0,-6.0,-24.0,-59.0,-304.0,0.976229,0.139632,0.165846,15352.0,2120.0,2742.0,45.0,-18.0,16.0
2863.0,2779.0,2843.0,3095.0,2999.0,0.758057,0.16626,-0.624146,0.090271,0.0,-1.0,0.0,7685.0,1063.0,1385.0,-312.0,-78.0,28.0,-62.0,-60.0,-310.0,0.976292,0.139384,0.165599,15354.0,2058.0,2822.0,12.0,-16.0,17.0
2863.0,2783.0,2850.0,3095.0,3005.0,0.757996,0.166199,-0.624146,0.090332,0.0,-1.0,0.0,7678.0,1044.0,1376.0,-319.0,-96.0,19.0,-49.0,-73.0,-321.0,0.976225,0.139195,0.165538,15296.0,1952.0,2630.0,7.0,-10.0,9.0
2859.0,2782.0,2847.0,3095.0,3003.0,0.757935,0.16626,-0.624207,0.090515,1.0,-1.0,-1.0,7681.0,1026.0,1356.0,-316.0,-112.0,1.0,-26.0,-82.0,-323.0,0.976313,0.139028,0.165382,15434.0,2054.0,2712.0,24.0,-4.0,-1.0
2859.0,2781.0,2843.0,3091.0,2994.0,0.757935,0.166382,-0.624207,0.090637,1.0,0.0,0.0,7687.0,1024.0,1361.0,-311.0,-115.0,6.0,-29.0,-87.0,-318.0,0.976376,0.13906,0.165363,15394.0,2022.0,2728.0,28.0,4.0,2.0
2861.0,2779.0,2843.0,3095.0,2998.0,0.757935,0.166504,-0.624146,0.090881,1.0,-1.0,0.0,7655.0,1034.0,1345.0,-343.0,-104.0,-10.0,-24.0,-68.0,-351.0,0.976387,0.138952,0.165443,15210.0,2092.0,2540.0,31.0,-4.0,8.0
2862.0,2783.0,2849.0,3090.0,3005.0,0.757812,0.166626,-0.624207,0.091064,1.0,-1.0,0.0,7666.0,1042.0,1325.0,-332.0,-95.0,-28.0,-9.0,-54.0,-341.0,0.97641,0.138856,0.165175,15432.0,2148.0,2564.0,40.0,-13.0,10.0
2862.0,2782.0,2850.0,3091.0,2993.0,0.75769,0.16687,-0.624268,0.091431,1.0,-1.0,0.0,7694.0,1084.0,1316.0,-305.0,-52.0,-34.0,-13.0,-14.0,-310.0,0.976517,0.138717,0.164899,15450.0,2264.0,2632.0,36.0,-11.0,20.0
2855.0,2778.0,2845.0,3089.0,2999.0,0.757629,0.166931,-0.624268,0.091553,1.0,-1.0,0.0,7700.0,1104.0,1321.0,-299.0,-31.0,-29.0,-23.0,2.0,-301.0,0.976493,0.138637,0.164808,15422.0,2328.0,2650.0,23.0,-11.0,15.0
2863.0,2773.0,2831.0,3103.0,2995.0,0.757568,0.166931,-0.624329,0.091614,-1.0,-1.0,0.0,7703.0,1118.0,1322.0,-296.0,-16.0,-26.0,-30.0,15.0,-295.0,0.97653,0.138529,0.164651,15374.0,2268.0,2582.0,-13.0,-3.0,5.0
2863.0,2782.0,2847.0,3095.0,3005.0,0.757568,0.16687,-0.624329,0.091553,-1.0,0.0,-1.0,7693.0,1104.0,1312.0,-306.0,-30.0,-36.0,-18.0,6.0,-308.0,0.976498,0.138513,0.16466,15344.0,2118.0,2582.0,-15.0,2.0,-5.0
2863.0,2783.0,2850.0,3103.0,3003.0,0.757629,0.166748,-0.624329,0.091553,0.0,0.0,0.0,7677.0,1046.0,1309.0,-322.0,-87.0,-40.0,1.0,-43.0,-333.0,0.976552,0.138348,0.164793,15306.0,1892.0,2636.0,6.0,6.0,8.0
2861.0,2803.0,2845.0,3103.0,2999.0,0.757629,0.166748,-0.624268,0.091736,1.0,0.0,0.0,7665.0,1032.0,1320.0,-334.0,-99.0,-30.0,-6.0,-57.0,-344.0,0.97652,0.138131,0.164903,15230.0,2004.0,2732.0,29.0,5.0,16.0
2862.0,2783.0,2851.0,3094.0,2995.0,0.757629,0.16687,-0.624268,0.091919,1.0,0.0,0.0,7645.0,1049.0,1328.0,-355.0,-82.0,-22.0,-23.0,-43.0,-361.0,0.976604,0.138087,0.164896,15168.0,2240.0,2700.0,38.0,1.0,14.0
2863.0,2783.0,2851.0,3089.0,3007.0,0.757507,0.166992,-0.624268,0.092163,0.0,-1.0,0.0,7657.0,1082.0,1312.0,-342.0,-47.0,-37.0,-19.0,-6.0,-346.0,0.976556,0.137927,0.164715,15476.0,2220.0,2570.0,16.0,-11.0,13.0
2863.0,2775.0,2847.0,3095.0,2999.0,0.757507,0.167053,-0.624329,0.092224,0.0,-1.0,0.0,7673.0,1087.0,1294.0,-327.0,-42.0,-54.0,-2.0,3.0,-334.0,0.97668,0.137932,0.16463,15422.0,2228.0,2454.0,19.0,-1.0,4.0
2863.0,2779.0,2842.0,3091.0,3003.0,0.757385,0.167236,-0.62439,0.092346,0.0,-1.0,0.0,7707.0,1106.0,1259.0,-294.0,-24.0,-87.0,28.0,30.0,-304.0,0.976694,0.138005,0.16433,15526.0,2298.0,2520.0,18.0,-1.0,2.0
2864.0,2785.0,2846.0,3103.0,3003.0,0.757385,0.167297,-0.624329,0.092407,0.0,0.0,0.0,7717.0,1125.0,1255.0,-283.0,-5.0,-91.0,27.0,48.0,-292.0,0.976634,0.138032,0.164397,15458.0,2348.0,2462.0,16.0,6.0,3.0
2864.0,2783.0,2854.0,3095.0,2997.0,0.757385,0.16748,-0.624329,0.092346,0.0,0.0,-1.0,7682.0,1146.0,1269.0,-318.0,12.0,-77.0,1.0,61.0,-321.0,0.976647,0.138386,0.164324,15236.0,2340.0,2616.0,1.0,1.0,-8.0
2861.0,2775.0,2850.0,3099.0,2999.0,0.757385,0.167542,-0.624268,0.092285,-1.0,-1.0,-1.0,7654.0,1143.0,1273.0,-345.0,7.0,-73.0,-5.0,57.0,-347.0,0.976545,0.138566,0.164369,15124.0,2258.0,2588.0,-5.0,-1.0,-12.0
2859.0,2779.0,2847.0,3093.0,3003.0,0.757385,0.167542,-0.624329,0.092102,-1.0,-1.0,-1.0,7599.0,1132.0,1267.0,-401.0,-4.0,-78.0,-8.0,53.0,-404.0,0.976576,0.138783,0.164259,15048.0,2200.0,2540.0,-6.0,-5.0,-13.0
2859.0,2789.0,2847.0,3091.0,3007.0,0.757385,0.167603,-0.624329,0.09198,-1.0,-1.0,-1.0,7581.0,1138.0,1257.0,-418.0,0.0,-88.0,-4.0,61.0,-422.0,0.976547,0.139028,0.164216,15094.0,2344.0,2474.0,-5.0,-1.0,-18.0
2863.0,2791.0,2847.0,3095.0,2999.0,0.757446,0.167786,-0.624268,0.091614,-1.0,-1.0,-2.0,7568.0,1158.0,1259.0,-431.0,12.0,-86.0,-13.0,73.0,-433.0,0.976441,0.139794,0.164256,15146.0,2342.0,2626.0,-17.0,-3.0,-35.0
2863.0,2779.0,2847.0,3094.0,3003.0,0.757446,0.167847,-0.624268,0.09137,-1.0,-1.0,-2.0,7587.0,1149.0,1275.0,-411.0,0.0,-70.0,-19.0,55.0,-412.0,0.976371,0.140191,0.164191,15298.0,2214.0,2654.0,-22.0,-8.0,-42.0
2863.0,2752.0,2849.0,3093.0,2999.0,0.757446,0.167969,-0.624329,0.091003,-1.0,-2.0,-2.0,7650.0,1115.0,1294.0,-348.0,-38.0,-49.0,-12.0,7.0,-353.0,0.976362,0.140823,0.164007,15474.0,2140.0,2604.0,-13.0,-25.0,-28.0
2862.0,2787.0,2847.0,3091.0,3005.0,0.757324,0.16803,-0.624451,0.09082,-1.0,-2.0,-2.0,7677.0,1100.0,1287.0,-321.0,-55.0,-53.0,2.0,-8.0,-329.0,0.976344,0.14108,0.163616,15494.0,2120.0,2580.0,-6.0,-30.0,-23.0
2861.0,2787.0,2850.0,3095.0,3003.0,0.757202,0.168091,-0.624634,0.090637,-1.0,-1.0,-1.0,7709.0,1102.0,1282.0,-289.0,-55.0,-54.0,9.0,-10.0,-298.0,0.976419,0.141327,0.163148,15472.0,2238.0,2588.0,-5.0,-18.0,-21.0
2863.0,2787.0,2845.0,3095.0,2999.0,0.757202,0.168152,-0.624634,0.090515,-1.0,-1.0,-1.0,7720.0,1117.0,1294.0,-278.0,-42.0,-42.0,-3.0,-3.0,-284.0,0.976389,0.141572,0.163106,15512.0,2336.0,2674.0,-10.0,-14.0,-18.0
2859.0,2777.0,2847.0,3090.0,2999.0,0.757202,0.168091,-0.624695,0.090149,-2.0,-1.0,-1.0,7736.0,1119.0,1330.0,-262.0,-43.0,-5.0,-33.0,-18.0,-262.0,0.976347,0.141926,0.162984,15510.0,2184.0,2766.0,-36.0,-10.0,-18.0
2859.0,2789.0,2839.0,3095.0,2999.0,0.757263,0.167969,-0.624695,0.089966,-2.0,-1.0,-1.0,7739.0,1094.0,1350.0,-259.0,-69.0,14.0,-41.0,-50.0,-260.0,0.97634,0.141991,0.163084,15516.0,2030.0,2828.0,-39.0,-12.0,-12.0
2863.0,2786.0,2851.0,3095.0,2999.0,0.757263,0.167664,-0.624756,0.089844,-1.0,-1.0,-1.0,7731.0,1029.0,1363.0,-267.0,-131.0,26.0,-32.0,-111.0,-275.0,0.976336,0.14167,0.163088,15414.0,1924.0,2736.0,-7.0,-14.0,-6.0
2863.0,2775.0,2847.0,3095.0,2995.0,0.757202,0.167664,-0.624817,0.089844,0.0,-1.0,-1.0,7731.0,1028.0,1350.0,-267.0,-132.0,15.0,-22.0,-108.0,-276.0,0.976352,0.141639,0.16292,15502.0,2088.0,2612.0,7.0,-20.0,-4.0
2862.0,2783.0,2847.0,3095.0,2999.0,0.757141,0.167603,-0.624939,0.089905,-1.0,-1.0,0.0,7756.0,1057.0,1327.0,-243.0,-101.0,-5.0,-9.0,-74.0,-252.0,0.976471,0.141428,0.162706,15560.0,2176.0,2572.0,-10.0,-4.0,5.0
2863.0,2781.0,2851.0,3095.0,2999.0,0.757141,0.167542,-0.624939,0.089905,-1.0,-1.0,0.0,7757.0,1062.0,1304.0,-242.0,-95.0,-29.0,10.0,-59.0,-254.0,0.97646,0.141335,0.162727,15522.0,2138.0,2468.0,-8.0,-1.0,7.0
2863.0,2787.0,2847.0,3099.0,3007.0,0.75708,0.167419,-0.625061,0.090027,0.0,-1.0,1.0,7768.0,1070.0,1284.0,-232.0,-84.0,-47.0,25.0,-43.0,-246.0,0.976587,0.140955,0.162545,15538.0,2190.0,2550.0,3.0,-4.0,23.0
2858.0,2778.0,2847.0,3093.0,2998.0,0.757019,0.167358,-0.625061,0.090149,-1.0,-1.0,1.0,7750.0,1088.0,1284.0,-249.0,-64.0,-47.0,14.0,-24.0,-259.0,0.976541,0.14069,0.162495,15374.0,2270.0,2606.0,-1.0,-1.0,23.0
2866.0,2779.0,2847.0,3093.0,3005.0,0.75708,0.167114,-0.625122,0.090149,-2.0,-1.0,0.0,7722.0,1109.0,1328.0,-278.0,-40.0,-3.0,-39.0,-15.0,-277.0,0.976665,0.14033,0.162592,15392.0,2248.0,2890.0,-33.0,0.0,14.0
2863.0,2786.0,2855.0,3095.0,3003.0,0.757202,0.166809,-0.625061,0.090027,-3.0,0.0,0.0,7706.0,1094.0,1351.0,-294.0,-53.0,16.0,-55.0,-33.0,-291.0,0.97663,0.140072,0.162933,15334.0,2062.0,2826.0,-54.0,12.0,11.0
2863.0,2785.0,2847.0,3099.0,3003.0,0.757507,0.16626,-0.624878,0.089966,-1.0,1.0,0.0,7675.0,996.0,1357.0,-325.0,-146.0,15.0,-29.0,-117.0,-335.0,0.976615,0.139451,0.163796,15292.0,1684.0,2670.0,-21.0,27.0,6.0
2863.0,2775.0,2847.0,3102.0,3003.0,0.757568,0.166199,-0.624756,0.090149,0.0,1.0,0.0,7669.0,973.0,1357.0,-330.0,-167.0,12.0,-20.0,-135.0,-343.0,0.976556,0.139172,0.164095,15308.0,1894.0,2702.0,19.0,23.0,8.0
2865.0,2775.0,2847.0,3095.0,2995.0,0.757568,0.166321,-0.624695,0.090454,0.0,-1.0,0.0,7665.0,1061.0,1337.0,-335.0,-77.0,-8.0,-34.0,-44.0,-339.0,0.976587,0.138986,0.164186,15402.0,2426.0,2602.0,18.0,-5.0,20.0
2864.0,2783.0,2847.0,3095.0,3002.0,0.757507,0.16626,-0.624695,0.090515,-1.0,-1.0,0.0,7682.0,1099.0,1323.0,-317.0,-38.0,-21.0,-32.0,-5.0,-318.0,0.97652,0.138797,0.164124,15466.0,2390.0,2586.0,-1.0,-8.0,21.0
2864.0,2789.0,2847.0,3094.0,2997.0,0.757446,0.166138,-0.624817,0.090698,0.0,0.0,1.0,7719.0,1097.0,1244.0,-281.0,-36.0,-99.0,46.0,22.0,-295.0,0.976667,0.138341,0.163953,15510.0,2168.0,2268.0,7.0,8.0,28.0
2859.0,2779.0,2855.0,3089.0,2999.0,0.757446,0.166138,-0.624817,0.090881,1.0,0.0,1.0,7718.0,1106.0,1231.0,-283.0,-25.0,-112.0,53.0,37.0,-298.0,0.976728,0.138112,0.163986,15408.0,2310.0,2442.0,30.0,16.0,23.0
2863.0,2783.0,2847.0,3101.0,3003.0,0.757446,0.166199,-0.624817,0.091064,1.0,0.0,1.0,7707.0,1143.0,1249.0,-294.0,12.0,-94.0,22.0,66.0,-300.0,0.9768,0.137976,0.163999,15346.0,2542.0,2638.0,25.0,9.0,26.0
2864.0,2791.0,2850.0,3095.0,3005.0,0.757507,0.165955,-0.624756,0.091125,-2.0,0.0,1.0,7694.0,1162.0,1305.0,-307.0,35.0,-40.0,-37.0,68.0,-301.0,0.97676,0.137561,0.16426,15318.0,2252.0,2728.0,-34.0,7.0,32.0
2855.0,2779.0,2846.0,3091.0,2999.0,0.757568,0.16571,-0.624756,0.091125,-2.0,0.0,1.0,7675.0,1133.0,1314.0,-326.0,8.0,-33.0,-38.0,41.0,-322.0,0.976791,0.137212,0.164434,15230.0,2092.0,2658.0,-37.0,12.0,30.0
2861.0,2779.0,2851.0,3095.0,2999.0,0.75769,0.165283,-0.624695,0.091248,-1.0,0.0,1.0,7653.0,1099.0,1345.0,-349.0,-18.0,-5.0,-60.0,8.0,-344.0,0.976814,0.136463,0.164859,15264.0,2144.0,2824.0,-12.0,5.0,33.0
2863.0,2785.0,2846.0,3094.0,3007.0,0.75769,0.1651,-0.624695,0.09137,-1.0,0.0,1.0,7652.0,1096.0,1365.0,-350.0,-18.0,13.0,-76.0,2.0,-342.0,0.976821,0.136033,0.164942,15340.0,2202.0,2864.0,-13.0,1.0,31.0
2865.0,2787.0,2851.0,3100.0,2999.0,0.757812,0.164734,-0.624695,0.091248,-3.0,-1.0,0.0,7639.0,1140.0,1368.0,-363.0,28.0,14.0,-96.0,45.0,-348.0,0.976866,0.135671,0.165225,15278.0,2456.0,2718.0,-52.0,-4.0,18.0
2861.0,2779.0,2850.0,3089.0,2999.0,0.757874,0.16449,-0.624695,0.091064,-4.0,-1.0,0.0,7642.0,1145.0,1345.0,-360.0,34.0,-9.0,-76.0,59.0,-348.0,0.976838,0.13555,0.165365,15294.0,2308.0,2460.0,-71.0,0.0,16.0
2861.0,2775.0,2851.0,3091.0,2991.0,0.757874,0.163818,-0.624878,0.090881,-2.0,-1.0,1.0,7664.0,1067.0,1270.0,-339.0,-36.0,-84.0,20.0,19.0,-349.0,0.976933,0.134728,0.165323,15418.0,1844.0,2374.0,-41.0,-1.0,30.0
2863.0,2782.0,2851.0,3091.0,3005.0,0.757874,0.163635,-0.625,0.091003,-1.0,0.0,1.0,7676.0,1041.0,1251.0,-328.0,-58.0,-102.0,47.0,4.0,-345.0,0.977125,0.134275,0.165252,15428.0,1990.0,2458.0,-8.0,3.0,33.0
2864.0,2775.0,2853.0,3093.0,2997.0,0.757812,0.163513,-0.625,0.091125,0.0,0.0,1.0,7683.0,1041.0,1275.0,-321.0,-56.0,-78.0,25.0,-2.0,-334.0,0.977066,0.133918,0.165222,15382.0,2110.0,2726.0,6.0,3.0,30.0
2859.0,2775.0,2847.0,3095.0,2999.0,0.757874,0.16333,-0.625,0.091309,-1.0,-1.0,0.0,7651.0,1042.0,1306.0,-353.0,-51.0,-49.0,-8.0,-6.0,-359.0,0.977169,0.133431,0.165408,15162.0,2078.0,2636.0,-16.0,-1.0,21.0
2864.0,2783.0,2850.0,3101.0,2999.0,0.757874,0.163147,-0.625061,0.091309,-2.0,-1.0,1.0,7636.0,1038.0,1303.0,-369.0,-52.0,-51.0,-9.0,-5.0,-375.0,0.977228,0.133143,0.165391,15186.0,2016.0,2582.0,-26.0,-12.0,27.0
2859.0,2785.0,2847.0,3091.0,3003.0,0.757751,0.16272,-0.625244,0.091492,-1.0,-1.0,1.0,7628.0,1004.0,1303.0,-378.0,-78.0,-49.0,-4.0,-30.0,-387.0,0.977334,0.132193,0.16515,15226.0,2006.0,2672.0,-5.0,-8.0,35.0
2863.0,2774.0,2847.0,3099.0,2998.0,0.757751,0.162598,-0.625244,0.091614,-1.0,-1.0,1.0,7618.0,1020.0,1333.0,-388.0,-60.0,-20.0,-39.0,-23.0,-390.0,0.977352,0.131855,0.165212,15158.0,2176.0,2880.0,-4.0,-6.0,28.0
2861.0,2773.0,2847.0,3093.0,3003.0,0.757874,0.162292,-0.625244,0.091614,-2.0,-1.0,0.0,7607.0,1041.0,1400.0,-400.0,-35.0,44.0,-108.0,-22.0,-388.0,0.977448,0.131432,0.165496,15168.0,2044.0,3002.0,-37.0,-1.0,10.0
2863.0,2785.0,2847.0,3101.0,2995.0,0.757935,0.162048,-0.625183,0.091492,-3.0,-1.0,0.0,7594.0,1017.0,1421.0,-412.0,-58.0,63.0,-121.0,-50.0,-399.0,0.977348,0.131246,0.165722,15076.0,1860.0,2932.0,-51.0,-2.0,4.0
2863.0,2785.0,2850.0,3099.0,2999.0,0.758179,0.161499,-0.625061,0.091064,-4.0,0.0,-1.0,7532.0,1054.0,1513.0,-473.0,-19.0,150.0,-226.0,-41.0,-439.0,0.97723,0.131049,0.166344,14860.0,2496.0,3466.0,-85.0,3.0,-4.0
2859.0,2774.0,2849.0,3093.0,2995.0,0.758484,0.161072,-0.624939,0.090454,-7.0,0.0,-1.0,7481.0,1158.0,1598.0,-523.0,82.0,230.0,-345.0,27.0,-461.0,0.977151,0.131284,0.166987,14606.0,2998.0,3768.0,-150.0,7.0,-21.0
2861.0,2779.0,2851.0,3093.0,2999.0,0.759644,0.159668,-0.624268,0.087708,-17.0,0.0,-5.0,7244.0,1488.0,1872.0,-755.0,397.0,483.0,-731.0,250.0,-602.0,0.97645,0.133076,0.169547,13502.0,4218.0,4840.0,-367.0,21.0,-109.0
2861.0,2779.0,2851.0,3095.0,2994.0,0.760681,0.158508,-0.623657,0.085083,-25.0,1.0,-9.0,7004.0,1699.0,2105.0,-989.0,592.0,697.0,-1041.0,379.0,-765.0,0.975781,0.135023,0.171802,12408.0,4654.0,5724.0,-550.0,23.0,-191.0
2858.0,2786.0,2847.0,3095.0,2998.0,0.763916,0.154358,-0.622009,0.075378,-51.0,-2.0,-22.0,6263.0,2088.0,2877.0,-1712.0,924.0,1414.0,-1962.0,534.0,-1283.0,0.973596,0.142061,0.178528,9884.0,5364.0,8674.0,-1146.0,-29.0,-485.0
2861.0,2774.0,2846.0,3098.0,2997.0,0.766357,0.150879,-0.620789,0.067139,-71.0,-3.0,-33.0,5718.0,2164.0,3450.0,-2242.0,952.0,1945.0,-2581.0,477.0,-1680.0,0.971751,0.147896,0.183668,7866.0,4476.0,10406.0,-1619.0,-60.0,-743.0
2863.0,2779.0,2846.0,3094.0,2995.0,0.772644,0.140015,-0.617798,0.041504,-119.0,-11.0,-67.0,4062.0,1729.0,4666.0,-3853.0,376.0,3048.0,-3862.0,-36.0,-3059.0,0.966298,0.165081,0.197423,2254.0,1654.0,12998.0,-2717.0,-237.0,-1521.0
2862.0,2779.0,2847.0,3095.0,3003.0,0.778687,0.125244,-0.614807,-0.001526,-177.0,-31.0,-122.0,1886.0,1193.0,5552.0,-5954.0,-420.0,3809.0,-5037.0,-211.0,-4971.0,0.957102,0.196928,0.212681,-2680.0,1098.0,13054.0,-4053.0,-699.0,-2788.0
2865.0,2785.0,2853.0,3099.0,3003.0,0.780334,0.117249,-0.613403,-0.031555,-208.0,-42.0,-159.0,895.0,1123.0,5670.0,-6886.0,-693.0,3868.0,-5355.0,99.0,-5844.0,0.94992,0.221698,0.219907,-3992.0,2250.0,11506.0,-4756.0,-960.0,-3633.0
2864.0,2790.0,2850.0,3099.0,2997.0,0.777771,0.099915,-0.610107,-0.113464,-291.0,-65.0,-248.0,-296.0,1670.0,4891.0,-7884.0,-737.0,2961.0,-4729.0,1599.0,-6822.0,0.926374,0.293872,0.235588,-2618.0,6106.0,5866.0,-6664.0,-1476.0,-5658.0
2862.0,2791.0,2871.0,3095.0,2995.0,0.762085,0.07959,-0.600159,-0.229675,-396.0,-68.0,-367.0,542.0,2883.0,2777.0,-6652.0,-369.0,589.0,-1812.0,2729.0,-5830.0,0.878184,0.396992,0.266999,7068.0,9092.0,-1842.0,-9068.0,-1553.0,-8406.0
2863.0,2779.0,2847.0,3099.0,2995.0,0.747314,0.070068,-0.58844,-0.300537,-438.0,-48.0,-443.0,2040.0,3287.0,1367.0,-4819.0,-468.0,-1071.0,204.0,1916.0,-4568.0,0.837383,0.458422,0.29763,14036.0,8708.0,-6120.0,-10012.0,-1098.0,-10135.0
2859.0,2779.0,2846.0,3091.0,2998.0,0.70105,0.063904,-0.543213,-0.457581,-467.0,40.0,-599.0,6333.0,4373.0,-1732.0,572.0,-433.0,-5022.0,3865.0,-2701.0,-1869.0,0.703156,0.586727,0.401687,26462.0,13128.0,-12262.0,-10687.0,921.0,-13715.0
2859.0,2778.0,2851.0,3095.0,2999.0,0.631409,0.083496,-0.459656,-0.618958,-485.0,177.0,-719.0,10289.0,6559.0,-3588.0,6380.0,1033.0,-8204.0,5134.0,-9052.0,-882.0,0.4771,0.674455,0.56353,30596.0,19968.0,-10732.0,-11109.0,4057.0,-16466.0
2860.0,2783.0,2854.0,3099.0,2999.0,0.588562,0.103333,-0.400452,-0.694641,-494.0,258.0,-757.0,11439.0,7082.0,-4089.0,8753.0,1528.0,-9478.0,4449.0,-11980.0,-2330.0,0.327823,0.677976,0.657892,28604.0,15716.0,-11160.0,-11306.0,5920.0,-17339.0
2862.0,2783.0,2851.0,3100.0,2999.0,0.490967,0.157898,-0.25061,-0.819275,-490.0,388.0,-750.0,10858.0,5031.0,-4338.0,10961.0,396.0,-11092.0,756.0,-12675.0,-9060.0,-0.012641,0.565683,0.824522,15144.0,572.0,-6098.0,-11208.0,8892.0,-17165.0
2861.0,2782.0,2849.0,3103.0,3003.0,0.390625,0.217285,-0.078003,-0.891113,-466.0,403.0,-603.0,6289.0,1582.0,-2844.0,8962.0,-947.0,-10162.0,-1453.0,-5584.0,-12295.0,-0.326312,0.308773,0.893373,-5276.0,-9914.0,-2050.0,-10655.0,9253.0,-13794.0
2855.0,2777.0,2849.0,3102.0,2999.0,0.346741,0.241516,0.004761,-0.906311,-424.0,357.0,-490.0,2628.0,-1783.0,-2034.0,6241.0,-3084.0,-9269.0,-1930.0,66.0,-11429.0,-0.441079,0.158858,0.883276,-17932.0,-26132.0,1832.0,-9697.0,8194.0,-11214.0
2861.0,2779.0,2847.0,3095.0,3007.0,0.284424,0.278809,0.129028,-0.908142,-200.0,232.0,-226.0,-5566.0,-8501.0,1920.0,-816.0,-7880.0,-4725.0,-2034.0,8562.0,-2763.0,-0.579793,-0.075752,0.811236,-32768.0,-32768.0,17950.0,-4578.0,5336.0,-5175.0
2855.0,2779.0,2845.0,3091.0,2995.0,0.255249,0.309021,0.165894,-0.901001,57.0,109.0,-29.0,-10543.0,-10586.0,6290.0,-5287.0,-9429.0,113.0,-1768.0,9519.0,4808.0,-0.641545,-0.141186,0.75394,-32768.0,-18222.0,23856.0,1316.0,2505.0,-657.0
2859.0,2763.0,2857.0,3099.0,2999.0,0.250549,0.322144,0.157288,-0.899292,131.0,59.0,31.0,-12092.0,-8735.0,7728.0,-6699.0,-7739.0,1641.0,-625.0,7995.0,6568.0,-0.658219,-0.121469,0.742985,-32768.0,-4022.0,23210.0,3006.0,1372.0,727.0
2859.0,2778.0,2853.0,3121.0,2999.0,0.253357,0.340698,0.118958,-0.897522,144.0,-6.0,66.0,-14067.0,-2643.0,9547.0,-8563.0,-2307.0,3488.0,2316.0,3798.0,8426.0,-0.671846,-0.040897,0.739509,-32768.0,11588.0,23796.0,3314.0,-122.0,1520.0
2859.0,2783.0,2853.0,3095.0,2999.0,0.257141,0.350464,0.081726,-0.896912,95.0,-24.0,43.0,-13994.0,1822.0,10392.0,-8499.0,1546.0,4321.0,3554.0,700.0,8954.0,-0.6707,0.033635,0.741068,-25072.0,14046.0,22402.0,2185.0,-532.0,995.0
2861.0,2779.0,2854.0,3095.0,3003.0,0.259338,0.351013,0.069885,-0.897034,52.0,-30.0,31.0,-13166.0,3012.0,10482.0,-7710.0,2547.0,4388.0,3478.0,-319.0,8543.0,-0.665989,0.056684,0.743832,-20722.0,12034.0,21200.0,1211.0,-683.0,725.0
2858.0,2783.0,2847.0,3094.0,3003.0,0.265503,0.345398,0.059814,-0.898132,-9.0,-38.0,22.0,-10702.0,3360.0,10046.0,-5359.0,2737.0,3867.0,2466.0,-1121.0,6619.0,-0.652188,0.075966,0.754256,-13430.0,5238.0,17964.0,-202.0,-865.0,516.0
2857.0,2779.0,2855.0,3093.0,3005.0,0.273254,0.3349,0.058838,-0.899841,-20.0,-41.0,25.0,-8226.0,1993.0,9105.0,-3025.0,1361.0,2807.0,1016.0,-590.0,4183.0,-0.634869,0.077136,0.768762,-9662.0,-1106.0,15172.0,-458.0,-930.0,584.0
2855.0,2783.0,2847.0,3091.0,3003.0,0.276855,0.32959,0.058289,-0.900757,-10.0,-40.0,27.0,-7238.0,1126.0,8621.0,-2109.0,491.0,2264.0,320.0,-92.0,3115.0,-0.626036,0.07749,0.775985,-8864.0,-2920.0,14364.0,-225.0,-904.0,631.0
2863.0,2783.0,2850.0,3103.0,3003.0,0.282288,0.321472,0.053162,-0.902283,21.0,-33.0,28.0,-5856.0,-99.0,7789.0,-857.0,-799.0,1336.0,-626.0,703.0,1506.0,-0.610131,0.085562,0.78763,-8354.0,-2864.0,13358.0,490.0,-751.0,649.0
2858.0,2783.0,2853.0,3099.0,3003.0,0.285583,0.317078,0.042908,-0.903381,37.0,-25.0,26.0,-5078.0,-301.0,7241.0,-184.0,-1149.0,726.0,-905.0,859.0,568.0,-0.597391,0.10358,0.795276,-8332.0,-112.0,13142.0,867.0,-569.0,604.0
2855.0,2782.0,2855.0,3095.0,3005.0,0.286987,0.315613,0.037354,-0.903687,35.0,-23.0,24.0,-4845.0,-76.0,7063.0,3.0,-1006.0,525.0,-835.0,705.0,302.0,-0.59187,0.113642,0.798004,-8352.0,1436.0,13152.0,810.0,-505.0,555.0
2861.0,2782.0,2846.0,3095.0,2999.0,0.289978,0.312988,0.028503,-0.903992,18.0,-18.0,19.0,-4560.0,527.0,6815.0,211.0,-537.0,240.0,-557.0,283.0,0.0,-0.582408,0.129986,0.802514,-8468.0,2782.0,12942.0,429.0,-405.0,445.0
2859.0,2783.0,2851.0,3094.0,2999.0,0.291565,0.311462,0.025818,-0.904053,8.0,-17.0,16.0,-4486.0,735.0,6696.0,250.0,-370.0,104.0,-416.0,155.0,-110.0,-0.578212,0.134942,0.804646,-8576.0,2540.0,12688.0,205.0,-373.0,384.0
2857.0,2783.0,2853.0,3095.0,3003.0,0.294434,0.308289,0.023621,-0.904297,-3.0,-14.0,9.0,-4423.0,802.0,6459.0,258.0,-335.0,-167.0,-256.0,180.0,-329.0,-0.571478,0.138821,0.808844,-8718.0,1322.0,12254.0,-57.0,-309.0,224.0
2858.0,2782.0,2849.0,3102.0,3007.0,0.295227,0.306824,0.023438,-0.904541,-4.0,-12.0,5.0,-4392.0,727.0,6363.0,268.0,-409.0,-277.0,-245.0,259.0,-433.0,-0.568908,0.138765,0.810663,-8552.0,994.0,12180.0,-71.0,-272.0,133.0
2854.0,2783.0,2853.0,3091.0,2999.0,0.295654,0.304443,0.023621,-0.905212,-2.0,-8.0,-1.0,-4256.0,616.0,6266.0,373.0,-508.0,-398.0,-304.0,313.0,-604.0,-0.565139,0.137257,0.813577,-8126.0,996.0,12380.0,-36.0,-169.0,-20.0
2859.0,2779.0,2850.0,3099.0,2999.0,0.29541,0.30365,0.023865,-0.905518,-1.0,-5.0,-3.0,-4199.0,586.0,6264.0,421.0,-529.0,-408.0,-341.0,307.0,-641.0,-0.56402,0.136183,0.814456,-8098.0,1036.0,12556.0,-15.0,-100.0,-66.0
2862.0,2779.0,2851.0,3123.0,3005.0,0.294373,0.303284,0.024475,-0.905945,0.0,2.0,-5.0,-4205.0,559.0,6266.0,414.0,-540.0,-408.0,-343.0,322.0,-638.0,-0.563926,0.134211,0.814811,-8706.0,1036.0,12598.0,20.0,51.0,-100.0
2855.0,2779.0,2849.0,3095.0,2963.0,0.293762,0.303833,0.024841,-0.906006,1.0,5.0,-5.0,-4285.0,558.0,6287.0,344.0,-535.0,-383.0,-308.0,349.0,-577.0,-0.565144,0.133497,0.814211,-9100.0,1134.0,12718.0,41.0,122.0,-102.0
2859.0,2781.0,2847.0,3147.0,3007.0,0.292236,0.305847,0.025574,-0.905762,3.0,8.0,-6.0,-4571.0,598.0,6307.0,90.0,-486.0,-341.0,-138.0,432.0,-392.0,-0.568996,0.132432,0.81161,-10162.0,1394.0,12642.0,83.0,197.0,-128.0
2861.0,2783.0,2849.0,3097.0,3005.0,0.29126,0.307068,0.025879,-0.90564,3.0,8.0,-7.0,-4732.0,648.0,6318.0,-52.0,-433.0,-317.0,-30.0,457.0,-284.0,-0.571261,0.131999,0.810055,-10386.0,1628.0,12688.0,89.0,191.0,-146.0
2859.0,2783.0,2851.0,3095.0,2995.0,0.289368,0.309204,0.026489,-0.905518,1.0,5.0,-7.0,-4984.0,802.0,6345.0,-271.0,-270.0,-269.0,174.0,423.0,-96.0,-0.57531,0.130974,0.807387,-10680.0,2072.0,12694.0,45.0,123.0,-153.0
2855.0,2782.0,2847.0,3095.0,3003.0,0.288574,0.309875,0.026855,-0.905518,0.0,2.0,-7.0,-5100.0,866.0,6343.0,-375.0,-200.0,-263.0,276.0,415.0,-21.0,-0.576695,0.130208,0.806493,-10864.0,2100.0,12668.0,17.0,64.0,-156.0
2863.0,2777.0,2851.0,3098.0,2999.0,0.286743,0.310364,0.02771,-0.905945,-1.0,-3.0,-9.0,-5235.0,960.0,6339.0,-498.0,-86.0,-262.0,417.0,381.0,65.0,-0.578236,0.127782,0.805864,-10744.0,2124.0,12684.0,-21.0,-53.0,-196.0
2861.0,2783.0,2851.0,3095.0,3003.0,0.285767,0.31012,0.028198,-0.906311,-2.0,-4.0,-10.0,-5260.0,986.0,6342.0,-523.0,-47.0,-261.0,454.0,360.0,86.0,-0.578246,0.126131,0.806093,-10632.0,2124.0,12722.0,-41.0,-90.0,-217.0
2854.0,2783.0,2850.0,3095.0,2995.0,0.283752,0.309265,0.029419,-0.907166,-5.0,-5.0,-10.0,-5163.0,993.0,6383.0,-429.0,-7.0,-227.0,397.0,270.0,63.0,-0.577805,0.122134,0.806954,-9852.0,1866.0,12894.0,-93.0,-97.0,-221.0
2855.0,2779.0,2849.0,3093.0,3001.0,0.282959,0.308777,0.030212,-0.907593,-5.0,-4.0,-9.0,-5083.0,961.0,6405.0,-351.0,-21.0,-210.0,330.0,239.0,30.0,-0.577585,0.119901,0.807535,-9706.0,1670.0,12938.0,-103.0,-70.0,-194.0
2858.0,2783.0,2847.0,3095.0,2999.0,0.281677,0.308411,0.031616,-0.90802,-3.0,0.0,-6.0,-4982.0,835.0,6427.0,-247.0,-117.0,-189.0,201.0,263.0,-23.0,-0.577897,0.116328,0.807726,-9784.0,1252.0,12876.0,-58.0,8.0,-132.0
2847.0,2787.0,2851.0,3099.0,3006.0,0.281067,0.308594,0.032166,-0.908142,-1.0,1.0,-6.0,-4964.0,782.0,6433.0,-224.0,-160.0,-181.0,159.0,286.0,-34.0,-0.578575,0.115049,0.807456,-9836.0,1276.0,12928.0,-13.0,42.0,-123.0
2859.0,2783.0,2851.0,3094.0,2999.0,0.279663,0.309448,0.032837,-0.908264,1.0,3.0,-6.0,-5011.0,772.0,6484.0,-255.0,-157.0,-121.0,149.0,284.0,32.0,-0.580488,0.113433,0.806319,-10234.0,1632.0,13232.0,29.0,83.0,-124.0
2857.0,2782.0,2846.0,3099.0,2999.0,0.278931,0.310059,0.033203,-0.908264,1.0,4.0,-7.0,-5061.0,786.0,6513.0,-295.0,-136.0,-85.0,166.0,277.0,87.0,-0.581753,0.112655,0.805507,-10440.0,1608.0,13170.0,23.0,99.0,-140.0
2859.0,2775.0,2845.0,3095.0,3003.0,0.276733,0.311523,0.034241,-0.908386,1.0,6.0,-11.0,-5110.0,748.0,6528.0,-318.0,-154.0,-54.0,156.0,295.0,125.0,-0.584918,0.11021,0.803528,-10142.0,1272.0,13086.0,32.0,141.0,-248.0
2862.0,2783.0,2854.0,3099.0,2999.0,0.275208,0.312378,0.034912,-0.908569,2.0,7.0,-14.0,-5074.0,706.0,6539.0,-266.0,-182.0,-34.0,97.0,289.0,109.0,-0.58685,0.108497,0.802439,-9892.0,1178.0,13152.0,47.0,172.0,-299.0
2857.0,2783.0,2851.0,3097.0,3005.0,0.27179,0.314392,0.036316,-0.908813,2.0,9.0,-14.0,-4936.0,645.0,6552.0,-92.0,-214.0,1.0,-50.0,224.0,32.0,-0.591188,0.104888,0.79965,-9380.0,1136.0,13078.0,53.0,226.0,-319.0
2855.0,2779.0,2847.0,3101.0,3005.0,0.270142,0.315491,0.037048,-0.908936,2.0,10.0,-14.0,-4885.0,633.0,6540.0,-22.0,-211.0,0.0,-94.0,189.0,-8.0,-0.593538,0.103105,0.798233,-9528.0,1216.0,12998.0,56.0,232.0,-303.0
2855.0,2782.0,2850.0,3095.0,2999.0,0.26709,0.317505,0.038147,-0.909058,2.0,8.0,-12.0,-4907.0,680.0,6520.0,-11.0,-141.0,3.0,-66.0,124.0,-5.0,-0.597638,0.100249,0.795458,-10048.0,1564.0,12984.0,56.0,185.0,-270.0
2855.0,2783.0,2855.0,3099.0,2999.0,0.265747,0.318298,0.038574,-0.90918,1.0,6.0,-12.0,-4972.0,721.0,6519.0,-62.0,-90.0,11.0,-11.0,102.0,36.0,-0.599283,0.099032,0.794427,-10350.0,1718.0,13058.0,45.0,144.0,-252.0
2859.0,2782.0,2846.0,3095.0,3003.0,0.263306,0.319336,0.039429,-0.909485,-1.0,2.0,-11.0,-5084.0,822.0,6563.0,-155.0,31.0,67.0,80.0,27.0,149.0,-0.601626,0.096446,0.792963,-10412.0,1914.0,13352.0,-7.0,61.0,-230.0
2858.0,2781.0,2846.0,3094.0,2999.0,0.262329,0.319458,0.039978,-0.909668,-2.0,1.0,-9.0,-5110.0,852.0,6590.0,-176.0,74.0,96.0,99.0,-7.0,189.0,-0.602176,0.094873,0.792661,-10362.0,1892.0,13358.0,-42.0,29.0,-204.0
2861.0,2781.0,2847.0,3095.0,2999.0,0.26123,0.319397,0.041138,-0.909973,-4.0,0.0,-5.0,-5120.0,813.0,6626.0,-182.0,59.0,133.0,75.0,-1.0,220.0,-0.602778,0.092004,0.792586,-10220.0,1328.0,13342.0,-82.0,3.0,-100.0
2859.0,2783.0,2853.0,3099.0,3005.0,0.261047,0.319275,0.041687,-0.910034,-3.0,0.0,-2.0,-5122.0,759.0,6623.0,-183.0,15.0,129.0,56.0,37.0,213.0,-0.602867,0.090819,0.792634,-10258.0,1206.0,13194.0,-67.0,6.0,-29.0
2858.0,2785.0,2850.0,3095.0,3002.0,0.261536,0.319397,0.041931,-0.909851,0.0,0.0,3.0,-5131.0,673.0,6596.0,-190.0,-70.0,104.0,31.0,120.0,190.0,-0.60314,0.090765,0.792457,-10304.0,1216.0,13108.0,8.0,15.0,90.0
2855.0,2779.0,2854.0,3094.0,2999.0,0.262024,0.31958,0.041687,-0.909668,1.0,0.0,5.0,-5149.0,670.0,6580.0,-207.0,-80.0,89.0,46.0,140.0,188.0,-0.60327,0.091633,0.792283,-10432.0,1330.0,13064.0,33.0,13.0,125.0
2858.0,2781.0,2846.0,3099.0,3002.0,0.262939,0.320129,0.040833,-0.909241,2.0,0.0,4.0,-5233.0,715.0,6555.0,-288.0,-55.0,69.0,122.0,160.0,223.0,-0.603622,0.094096,0.791706,-10740.0,1626.0,13094.0,65.0,1.0,99.0
2853.0,2783.0,2847.0,3095.0,3007.0,0.263184,0.320251,0.040466,-0.909119,2.0,-1.0,2.0,-5260.0,754.0,6569.0,-315.0,-24.0,84.0,147.0,142.0,254.0,-0.603593,0.094993,0.791564,-10638.0,1756.0,13248.0,49.0,-14.0,66.0
2859.0,2783.0,2851.0,3095.0,2999.0,0.263611,0.32019,0.040283,-0.909058,-2.0,-2.0,1.0,-5290.0,783.0,6604.0,-347.0,0.0,118.0,161.0,128.0,302.0,-0.603381,0.095572,0.791732,-10664.0,1526.0,13314.0,-35.0,-36.0,34.0
2859.0,2775.0,2847.0,3095.0,2999.0,0.263855,0.320007,0.040466,-0.909058,-3.0,-2.0,1.0,-5284.0,752.0,6613.0,-342.0,-28.0,125.0,140.0,148.0,302.0,-0.603165,0.095299,0.791963,-10516.0,1290.0,13258.0,-58.0,-36.0,32.0
2859.0,2782.0,2843.0,3093.0,3001.0,0.264404,0.319763,0.040955,-0.908936,-2.0,-1.0,2.0,-5292.0,658.0,6610.0,-352.0,-117.0,120.0,104.0,230.0,296.0,-0.602945,0.094643,0.792148,-10656.0,1148.0,13216.0,-38.0,-21.0,63.0
2855.0,2782.0,2846.0,3099.0,3006.0,0.264832,0.319763,0.041077,-0.908813,-2.0,-1.0,3.0,-5316.0,654.0,6607.0,-376.0,-121.0,117.0,119.0,246.0,307.0,-0.602967,0.094705,0.792142,-10824.0,1322.0,13230.0,-25.0,-13.0,87.0
2855.0,2781.0,2914.0,3099.0,3007.0,0.265625,0.319885,0.041016,-0.908569,0.0,-2.0,3.0,-5424.0,660.0,6597.0,-483.0,-121.0,108.0,194.0,297.0,365.0,-0.603065,0.095408,0.792046,-11212.0,1358.0,13168.0,2.0,-24.0,80.0
2859.0,2779.0,2847.0,3091.0,2998.0,0.265869,0.319946,0.040955,-0.908447,0.0,-2.0,2.0,-5470.0,679.0,6601.0,-529.0,-105.0,113.0,229.0,303.0,398.0,-0.603086,0.095718,0.79192,-11172.0,1508.0,13266.0,8.0,-37.0,49.0
2861.0,2779.0,2851.0,3099.0,3005.0,0.266052,0.31958,0.041016,-0.908508,-2.0,-4.0,-1.0,-5450.0,747.0,6621.0,-514.0,-35.0,130.0,245.0,233.0,409.0,-0.602507,0.095524,0.792357,-10680.0,1656.0,13258.0,-41.0,-76.0,-7.0
2859.0,2780.0,2849.0,3095.0,3005.0,0.266052,0.319153,0.041199,-0.908691,-4.0,-5.0,-1.0,-5390.0,751.0,6616.0,-458.0,-26.0,120.0,219.0,202.0,368.0,-0.601945,0.094949,0.792948,-10372.0,1450.0,13178.0,-69.0,-98.0,-17.0
2859.0,2783.0,2850.0,3099.0,2999.0,0.266235,0.317871,0.041748,-0.909058,-3.0,-6.0,0.0,-5197.0,679.0,6578.0,-280.0,-85.0,69.0,101.0,183.0,214.0,-0.600156,0.093354,0.794482,-9730.0,1062.0,12996.0,-64.0,-120.0,1.0
2855.0,2777.0,2851.0,3101.0,3005.0,0.266418,0.3172,0.04187,-0.909241,-2.0,-6.0,1.0,-5087.0,629.0,6552.0,-178.0,-131.0,36.0,30.0,184.0,123.0,-0.599132,0.092876,0.795329,-9514.0,970.0,12944.0,-31.0,-119.0,26.0
2855.0,2779.0,2847.0,3095.0,3005.0,0.266968,0.316101,0.041382,-0.909485,2.0,-5.0,3.0,-4923.0,554.0,6509.0,-31.0,-211.0,-18.0,-77.0,198.0,-15.0,-0.597074,0.093505,0.796802,-9518.0,1016.0,12888.0,51.0,-94.0,91.0
2858.0,2751.0,2847.0,3099.0,3007.0,0.267273,0.315796,0.040833,-0.909485,3.0,-4.0,4.0,-4895.0,557.0,6495.0,-10.0,-217.0,-35.0,-85.0,198.0,-42.0,-0.59625,0.094534,0.797203,-9698.0,1178.0,12926.0,81.0,-80.0,99.0
16.0,-20.0,-11.0,-65.0,-351.0,0.97172,0.17289,0.160892,15196.0,2404.0,2578.0,-22.0,6.0,9.0,,,,,,,,,,,,,,,,
2862.0,2783.0,2847.0,3091.0,2995.0,0.756287,0.18988,-0.619141,0.092712,0.0,0.0,0.0,7603.0,1269.0,1305.0,-357.0,-143.0,-15.0,-9.0,-90.0,-373.0,0.971704,0.172404,0.161175,15188.0,2550.0,2670.0,4.0,14.0,6.0
2861.0,2775.0,2841.0,3089.0,2993.0,0.756348,0.18988,-0.61908,0.092773,0.0,0.0,0.0,7601.0,1288.0,1304.0,-359.0,-123.0,-17.0,-16.0,-71.0,-372.0,0.971711,0.172363,0.161355,15214.0,2698.0,2564.0,3.0,11.0,2.0
2863.0,2783.0,2809.0,3094.0,2999.0,0.75647,0.18988,-0.618958,0.092712,-1.0,0.0,-1.0,7627.0,1321.0,1303.0,-332.0,-92.0,-21.0,-18.0,-43.0,-341.0,0.971654,0.172507,0.161679,15342.0,2722.0,2596.0,-10.0,9.0,-13.0
2859.0,2783.0,2847.0,3095.0,3005.0,0.756531,0.18988,-0.618896,0.092651,-1.0,0.0,-1.0,7649.0,1337.0,1303.0,-310.0,-77.0,-22.0,-18.0,-31.0,-318.0,0.971614,0.172617,0.161836,15382.0,2792.0,2582.0,-12.0,14.0,-13.0
2864.0,2783.0,2847.0,3095.0,3003.0,0.756653,0.189697,-0.618774,0.092468,-2.0,0.0,0.0,7635.0,1341.0,1280.0,-323.0,-73.0,-48.0,0.0,-16.0,-334.0,0.971477,0.172636,0.162207,15232.0,2662.0,2524.0,-26.0,11.0,0.0
2863.0,2779.0,2847.0,3095.0,3006.0,0.756714,0.189575,-0.618774,0.092407,-2.0,0.0,0.0,7623.0,1349.0,1283.0,-335.0,-64.0,-46.0,-7.0,-8.0,-343.0,0.971507,0.17255,0.162334,15164.0,2748.0,2622.0,-25.0,5.0,6.0
2863.0,2779.0,2841.0,3091.0,2995.0,0.756836,0.18927,-0.618713,0.092285,-2.0,0.0,0.0,7616.0,1386.0,1317.0,-342.0,-25.0,-15.0,-51.0,15.0,-338.0,0.971463,0.172297,0.162688,15190.0,2916.0,2694.0,-38.0,9.0,7.0
2862.0,2783.0,2847.0,3097.0,3003.0,0.756958,0.189087,-0.618713,0.092102,-3.0,0.0,0.0,7629.0,1397.0,1324.0,-329.0,-14.0,-10.0,-57.0,22.0,-323.0,0.971511,0.172292,0.162908,15384.0,2836.0,2718.0,-57.0,5.0,4.0
2858.0,2783.0,2847.0,3099.0,3003.0,0.757202,0.188538,-0.618652,0.091736,-3.0,0.0,-1.0,7666.0,1339.0,1302.0,-292.0,-70.0,-37.0,-4.0,-21.0,-301.0,0.971481,0.172017,0.163493,15420.0,2414.0,2380.0,-59.0,18.0,-4.0
2863.0,2781.0,2847.0,3095.0,2999.0,0.757263,0.188293,-0.618652,0.091614,-2.0,0.0,-1.0,7683.0,1302.0,1288.0,-275.0,-105.0,-52.0,26.0,-49.0,-293.0,0.971466,0.171821,0.163655,15464.0,2424.0,2534.0,-40.0,18.0,-3.0
2859.0,2775.0,2843.0,3095.0,3002.0,0.757446,0.187866,-0.61853,0.091614,-2.0,0.0,1.0,7690.0,1308.0,1299.0,-267.0,-95.0,-46.0,18.0,-43.0,-283.0,0.971429,0.171265,0.164245,15348.0,2730.0,2646.0,-38.0,22.0,24.0
2863.0,2783.0,2848.0,3095.0,2999.0,0.757568,0.1875,-0.618469,0.091553,-3.0,1.0,1.0,7693.0,1313.0,1322.0,-264.0,-86.0,-26.0,-2.0,-43.0,-275.0,0.971398,0.170843,0.164631,15436.0,2656.0,2824.0,-59.0,24.0,27.0
2859.0,2779.0,2847.0,3098.0,3003.0,0.757996,0.186584,-0.618286,0.091309,-5.0,1.0,1.0,7686.0,1318.0,1376.0,-271.0,-74.0,17.0,-47.0,-49.0,-273.0,0.97139,0.169951,0.165803,15286.0,2610.0,2828.0,-101.0,34.0,26.0
2864.0,2783.0,2843.0,3091.0,2999.0,0.75824,0.186035,-0.618225,0.091064,-5.0,1.0,1.0,7674.0,1298.0,1381.0,-283.0,-90.0,17.0,-44.0,-62.0,-287.0,0.971408,0.169522,0.166409,15282.0,2448.0,2770.0,-113.0,28.0,23.0
2863.0,2782.0,2896.0,3091.0,2995.0,0.758545,0.184937,-0.618164,0.090759,-4.0,1.0,0.0,7679.0,1233.0,1362.0,-278.0,-146.0,-8.0,0.0,-105.0,-295.0,0.97138,0.168357,0.167299,15410.0,2354.0,2614.0,-87.0,24.0,21.0
2864.0,2783.0,2845.0,3091.0,2999.0,0.758667,0.184448,-0.618164,0.090637,-4.0,1.0,1.0,7684.0,1237.0,1347.0,-273.0,-137.0,-26.0,13.0,-90.0,-292.0,0.971397,0.167812,0.167643,15394.0,2532.0,2644.0,-76.0,24.0,29.0
2863.0,2783.0,2846.0,3095.0,3001.0,0.759033,0.183594,-0.618042,0.090454,-4.0,1.0,1.0,7666.0,1279.0,1332.0,-292.0,-88.0,-49.0,12.0,-35.0,-306.0,0.971442,0.166899,0.168631,15230.0,2718.0,2642.0,-85.0,30.0,31.0
2863.0,2782.0,2832.0,3091.0,2999.0,0.759155,0.183044,-0.618042,0.090271,-5.0,1.0,1.0,7645.0,1303.0,1342.0,-312.0,-59.0,-42.0,-9.0,-9.0,-319.0,0.971427,0.166336,0.168984,15152.0,2772.0,2788.0,-100.0,23.0,36.0
2862.0,2781.0,2845.0,3093.0,3003.0,0.759521,0.181946,-0.618042,0.089844,-5.0,0.0,1.0,7612.0,1308.0,1396.0,-346.0,-46.0,4.0,-63.0,-13.0,-343.0,0.971526,0.165329,0.169865,15182.0,2588.0,2966.0,-111.0,7.0,39.0
2861.0,2779.0,2847.0,3095.0,3003.0,0.759644,0.181335,-0.618042,0.089661,-5.0,0.0,1.0,7600.0,1304.0,1422.0,-358.0,-44.0,27.0,-87.0,-19.0,-350.0,0.971501,0.164673,0.170239,15122.0,2586.0,2980.0,-113.0,4.0,42.0
2864.0,2783.0,2847.0,3095.0,2998.0,0.759949,0.180176,-0.618103,0.089233,-6.0,0.0,1.0,7566.0,1323.0,1447.0,-393.0,-16.0,46.0,-122.0,1.0,-376.0,0.971609,0.163538,0.17097,15000.0,2810.0,2920.0,-121.0,3.0,30.0
2863.0,2781.0,2847.0,3089.0,2995.0,0.760132,0.179565,-0.618103,0.088806,-7.0,-1.0,1.0,7557.0,1345.0,1443.0,-402.0,8.0,38.0,-125.0,27.0,-382.0,0.971573,0.163204,0.171392,15066.0,2802.0,2840.0,-145.0,-3.0,27.0
2863.0,2759.0,2846.0,3071.0,2999.0,0.760315,0.178223,-0.618347,0.087952,-7.0,-1.0,1.0,7583.0,1356.0,1380.0,-376.0,26.0,-26.0,-68.0,66.0,-365.0,0.971627,0.162241,0.171698,15332.0,2634.0,2576.0,-153.0,-11.0,26.0
2833.0,2783.0,2847.0,3091.0,2997.0,0.760437,0.177612,-0.61853,0.087524,-6.0,-1.0,1.0,7610.0,1339.0,1346.0,-350.0,13.0,-61.0,-25.0,65.0,-348.0,0.971797,0.161853,0.171799,15416.0,2550.0,2476.0,-137.0,-7.0,26.0
2863.0,2783.0,2847.0,3095.0,3002.0,0.760498,0.176575,-0.618774,0.086914,-5.0,0.0,0.0,7664.0,1314.0,1267.0,-297.0,-4.0,-140.0,63.0,74.0,-313.0,0.971847,0.161009,0.171851,15450.0,2550.0,2270.0,-103.0,7.0,14.0
2859.0,2783.0,2847.0,3093.0,2999.0,0.760559,0.176147,-0.618835,0.08667,-4.0,0.0,0.0,7691.0,1298.0,1238.0,-270.0,-18.0,-170.0,101.0,70.0,-294.0,0.971855,0.160672,0.171977,15560.0,2536.0,2344.0,-91.0,13.0,14.0
