flex_1,flex_2,flex_3,flex_4,flex_5,Qw,Qx,Qy,Qz,GYRx,GYRy,GYRz,ACCx,ACCy,ACCz,ACCx_real,ACCy_real,ACCz_real,ACCx_world,ACCy_world,ACCz_world,GRAx,GRAy,GRAz,ACCx_raw,ACCy_raw,ACCz_raw,GYRx_raw,GYRy_raw,GYRz_raw
2893.0,2770.0,2903.0,3153.0,3051.0,1.0,0.0,0.0,0.0,0.0,0.0,0.0,0.0,0.0,0.0,0.0,0.0,0.0,0.0,0.0,0.0,0.0,0.0,0.0,0.0,0.0,0.0,0.0,0.0,0.0
2894.0,2775.0,2901.0,3151.0,3047.0,0.838562,-0.083862,-0.53833,-0.000854,1.0,1.0,2.0,7882.0,-1052.0,-134.0,484.0,92.0,-3462.0,3337.0,-356.0,-982.0,0.90299,-0.139727,0.406355,15520.0,-1944.0,-272.0,36.0,44.0,63.0
2893.0,2778.0,2896.0,3151.0,3039.0,0.836975,-0.084473,-0.540649,-0.000305,-1.0,0.0,2.0,7835.0,-1058.0,-140.0,420.0,97.0,-3425.0,3282.0,-351.0,-1007.0,0.905072,-0.141073,0.40109,15578.0,-2304.0,-362.0,-11.0,15.0,68.0
2896.0,2773.0,2895.0,3158.0,3047.0,0.836121,-0.0849,-0.541931,-6.1e-05,-1.0,0.0,2.0,7811.0,-1117.0,-158.0,387.0,45.0,-3420.0,3263.0,-405.0,-1017.0,0.90625,-0.141907,0.3982,15428.0,-2614.0,-476.0,-14.0,9.0,57.0
2868.0,2781.0,2906.0,3151.0,3039.0,0.834412,-0.085632,-0.544434,0.000366,0.0,-1.0,1.0,7746.0,-1220.0,-173.0,303.0,-46.0,-3388.0,3197.0,-499.0,-1047.0,0.908501,-0.143304,0.392502,15286.0,-2694.0,-374.0,10.0,-7.0,26.0
2891.0,2774.0,2911.0,3143.0,3023.0,0.833496,-0.085815,-0.545776,0.000488,0.0,-1.0,0.0,7724.0,-1243.0,-165.0,271.0,-66.0,-3355.0,3156.0,-517.0,-1050.0,0.909721,-0.143587,0.38948,15340.0,-2626.0,-248.0,17.0,-20.0,12.0
2896.0,2769.0,2901.0,3155.0,3045.0,0.831665,-0.08606,-0.548584,0.000793,2.0,-3.0,-1.0,7714.0,-1289.0,-132.0,240.0,-109.0,-3272.0,3071.0,-549.0,-1019.0,0.91234,-0.144016,0.383317,15502.0,-2648.0,-94.0,46.0,-58.0,-11.0
2896.0,2783.0,2903.0,3155.0,3047.0,0.830688,-0.085938,-0.550049,0.000916,2.0,-3.0,-2.0,7736.0,-1266.0,-109.0,251.0,-88.0,-3222.0,3035.0,-519.0,-982.0,0.913681,-0.143782,0.380105,15618.0,-2322.0,-96.0,62.0,-65.0,-23.0
2894.0,2775.0,2910.0,3155.0,3043.0,0.828674,-0.085693,-0.553101,0.000916,0.0,-4.0,-1.0,7769.0,-1177.0,-123.0,260.0,-5.0,-3182.0,3017.0,-428.0,-949.0,0.916524,-0.143037,0.373438,15606.0,-2244.0,-446.0,20.0,-70.0,-22.0
2893.0,2774.0,2901.0,3147.0,3046.0,0.827637,-0.085754,-0.554688,0.000854,0.0,-4.0,-1.0,7770.0,-1201.0,-175.0,249.0,-30.0,-3205.0,3036.0,-457.0,-952.0,0.918013,-0.142895,0.369951,15524.0,-2646.0,-698.0,12.0,-70.0,-22.0
2895.0,2779.0,2897.0,3154.0,3043.0,0.825562,-0.085693,-0.5578,0.001099,3.0,-3.0,-2.0,7721.0,-1342.0,-309.0,177.0,-172.0,-3283.0,3074.0,-612.0,-1004.0,0.920809,-0.142716,0.363069,15244.0,-3130.0,-1032.0,80.0,-63.0,-39.0
2891.0,2777.0,2907.0,3152.0,3053.0,0.824524,-0.085388,-0.559326,0.001343,5.0,-3.0,-3.0,7690.0,-1424.0,-377.0,135.0,-258.0,-3323.0,3092.0,-703.0,-1034.0,0.922126,-0.142311,0.359705,15218.0,-3382.0,-1132.0,121.0,-62.0,-58.0
2896.0,2775.0,2907.0,3153.0,3047.0,0.822571,-0.084045,-0.562378,0.002075,11.0,-2.0,-6.0,7618.0,-1683.0,-497.0,41.0,-531.0,-3391.0,3105.0,-980.0,-1085.0,0.924842,-0.140601,0.353294,14926.0,-4060.0,-1312.0,253.0,-43.0,-125.0
2895.0,2771.0,2906.0,3152.0,3039.0,0.821655,-0.082825,-0.563904,0.002502,12.0,-2.0,-7.0,7568.0,-1688.0,-548.0,-19.0,-549.0,-3417.0,3111.0,-998.0,-1138.0,0.926255,-0.138929,0.350276,14862.0,-3274.0,-1370.0,288.0,-40.0,-158.0
2896.0,2771.0,2896.0,3143.0,3043.0,0.820007,-0.080383,-0.566711,0.002258,7.0,0.0,-10.0,7630.0,-1590.0,-589.0,19.0,-489.0,-3413.0,3137.0,-922.0,-1093.0,0.929052,-0.134389,0.344794,15720.0,-2840.0,-1316.0,163.0,19.0,-225.0
2896.0,2773.0,2899.0,3147.0,3045.0,0.81897,-0.078613,-0.56842,0.000427,1.0,8.0,-13.0,7761.0,-1446.0,-617.0,134.0,-387.0,-3413.0,3190.0,-807.0,-990.0,0.930971,-0.12925,0.34143,15780.0,-2474.0,-1276.0,30.0,190.0,-293.0
2949.0,2775.0,2902.0,3151.0,3039.0,0.818787,-0.077942,-0.568787,-0.001038,-1.0,11.0,-14.0,7782.0,-1409.0,-631.0,150.0,-373.0,-3422.0,3206.0,-796.0,-979.0,0.931592,-0.126455,0.340819,15692.0,-2694.0,-1342.0,-8.0,259.0,-318.0
2895.0,2775.0,2901.0,3151.0,3051.0,0.818848,-0.076294,-0.568909,-0.003906,2.0,13.0,-16.0,7792.0,-1404.0,-641.0,154.0,-416.0,-3434.0,3212.0,-843.0,-977.0,0.932295,-0.120502,0.341049,15532.0,-2794.0,-1226.0,62.0,319.0,-351.0
2891.0,2774.0,2895.0,3151.0,3039.0,0.818909,-0.074951,-0.56897,-0.005127,6.0,12.0,-16.0,7787.0,-1368.0,-594.0,146.0,-410.0,-3389.0,3168.0,-829.0,-972.0,0.932637,-0.116922,0.341294,15574.0,-2430.0,-840.0,142.0,297.0,-361.0
2891.0,2775.0,2901.0,3153.0,3043.0,0.818909,-0.071106,-0.569458,-0.007019,11.0,8.0,-16.0,7822.0,-1126.0,-398.0,173.0,-237.0,-3194.0,3014.0,-620.0,-902.0,0.933666,-0.108464,0.341322,15940.0,-1044.0,14.0,270.0,205.0,-360.0
2896.0,2774.0,2902.0,3152.0,3045.0,0.818787,-0.068848,-0.569824,-0.007996,11.0,7.0,-16.0,7883.0,-863.0,-225.0,229.0,-14.0,-3018.0,2891.0,-366.0,-813.0,0.93423,-0.103631,0.341036,16174.0,-88.0,638.0,254.0,170.0,-345.0
2895.0,2779.0,2907.0,3154.0,3037.0,0.818481,-0.065063,-0.570679,-0.010254,3.0,6.0,-11.0,8089.0,-294.0,116.0,425.0,482.0,-2670.0,2682.0,186.0,-556.0,0.935514,-0.094803,0.34011,16832.0,1156.0,1278.0,84.0,153.0,-250.0
2893.0,2775.0,2902.0,3150.0,3047.0,0.818359,-0.063965,-0.570984,-0.011536,-2.0,7.0,-9.0,8165.0,-71.0,255.0,497.0,678.0,-2528.0,2593.0,401.0,-455.0,0.936016,-0.091519,0.339731,16716.0,1028.0,1272.0,-27.0,167.0,-190.0
2895.0,2768.0,2903.0,3151.0,3043.0,0.817993,-0.063538,-0.571594,-0.013733,-6.0,5.0,-2.0,8183.0,66.0,380.0,508.0,788.0,-2393.0,2484.0,520.0,-403.0,0.936865,-0.088247,0.338544,16346.0,182.0,1070.0,-118.0,127.0,-45.0
2895.0,2775.0,2911.0,3151.0,3046.0,0.817627,-0.063782,-0.572021,-0.014282,-4.0,3.0,0.0,8138.0,20.0,395.0,460.0,740.0,-2369.0,2441.0,470.0,-433.0,0.937222,-0.08796,0.337441,15920.0,-318.0,800.0,-88.0,90.0,13.0
2897.0,2774.0,2902.0,3153.0,3050.0,0.816406,-0.06427,-0.57373,-0.014099,0.0,-2.0,3.0,8011.0,-140.0,368.0,321.0,587.0,-2363.0,2375.0,312.0,-538.0,0.938607,-0.088763,0.333421,15686.0,-852.0,600.0,6.0,-39.0,90.0
2895.0,2775.0,2903.0,3153.0,3055.0,0.815552,-0.064392,-0.574951,-0.01355,2.0,-4.0,5.0,7981.0,-226.0,352.0,284.0,506.0,-2356.0,2350.0,232.0,-557.0,0.93955,-0.089449,0.330593,15844.0,-920.0,656.0,48.0,-89.0,115.0
2896.0,2774.0,2899.0,3187.0,3043.0,0.813599,-0.064636,-0.577698,-0.012207,2.0,-6.0,5.0,7972.0,-379.0,311.0,258.0,367.0,-2344.0,2320.0,98.0,-550.0,0.941606,-0.091072,0.324179,15900.0,-1310.0,460.0,58.0,-119.0,126.0
2894.0,2775.0,2909.0,3155.0,3045.0,0.812561,-0.06488,-0.579102,-0.011475,2.0,-6.0,5.0,7965.0,-489.0,265.0,243.0,265.0,-2363.0,2325.0,-4.0,-553.0,0.9426,-0.092149,0.320819,15910.0,-1676.0,206.0,48.0,-121.0,121.0
2897.0,2779.0,2899.0,3151.0,3047.0,0.810608,-0.065491,-0.581787,-0.010193,1.0,-4.0,4.0,7983.0,-667.0,147.0,245.0,105.0,-2428.0,2375.0,-167.0,-541.0,0.944538,-0.094314,0.314424,15980.0,-1780.0,-60.0,35.0,-76.0,93.0
2896.0,2830.0,2897.0,3143.0,3039.0,0.809753,-0.065796,-0.583008,-0.009705,0.0,-2.0,3.0,7969.0,-720.0,86.0,223.0,60.0,-2466.0,2402.0,-217.0,-563.0,0.945462,-0.095241,0.311568,15834.0,-1704.0,-190.0,16.0,-43.0,78.0
2895.0,2775.0,2897.0,3143.0,3046.0,0.808228,-0.066589,-0.584961,-0.009216,-2.0,-1.0,2.0,7900.0,-791.0,9.0,143.0,2.0,-2503.0,2408.0,-285.0,-632.0,0.946791,-0.096856,0.306703,15512.0,-1818.0,-184.0,-36.0,-2.0,61.0
2896.0,2774.0,2903.0,3146.0,3047.0,0.807556,-0.067139,-0.585938,-0.009033,-3.0,-1.0,2.0,7854.0,-810.0,-11.0,91.0,-8.0,-2504.0,2394.0,-300.0,-675.0,0.947568,-0.097851,0.304398,15446.0,-1684.0,-82.0,-55.0,-5.0,63.0
2896.0,2775.0,2899.0,3153.0,3047.0,0.80603,-0.068481,-0.58783,-0.008972,-5.0,-2.0,2.0,7801.0,-816.0,-7.0,28.0,1.0,-2460.0,2336.0,-294.0,-710.0,0.948846,-0.099848,0.299532,15604.0,-1666.0,50.0,-96.0,-33.0,68.0
2893.0,2775.0,2899.0,3150.0,3042.0,0.805237,-0.069275,-0.588867,-0.008972,-5.0,-2.0,2.0,7812.0,-832.0,10.0,32.0,-4.0,-2422.0,2303.0,-297.0,-688.0,0.949598,-0.100999,0.296923,15692.0,-1784.0,124.0,-97.0,-35.0,67.0
2896.0,2769.0,2899.0,3151.0,3039.0,0.803711,-0.070496,-0.59082,-0.00885,-3.0,-2.0,2.0,7854.0,-851.0,35.0,63.0,-8.0,-2356.0,2252.0,-295.0,-627.0,0.950945,-0.102859,0.291991,15852.0,-1734.0,118.0,-62.0,-25.0,55.0
2895.0,2768.0,2903.0,3152.0,3051.0,0.802979,-0.070984,-0.591736,-0.008789,-2.0,-1.0,2.0,7868.0,-851.0,30.0,72.0,-2.0,-2342.0,2244.0,-288.0,-609.0,0.95155,-0.103595,0.289662,15796.0,-1702.0,14.0,-44.0,-15.0,52.0
2893.0,2779.0,2905.0,3151.0,3039.0,0.801575,-0.071838,-0.593506,-0.008606,-2.0,-1.0,2.0,7849.0,-848.0,0.0,44.0,11.0,-2336.0,2233.0,-278.0,-625.0,0.952715,-0.104952,0.285186,15554.0,-1726.0,-180.0,-44.0,-15.0,51.0
2893.0,2771.0,2901.0,3151.0,3045.0,0.800781,-0.072327,-0.594482,-0.008484,-3.0,-2.0,2.0,7831.0,-872.0,-33.0,21.0,-5.0,-2348.0,2238.0,-299.0,-643.0,0.953328,-0.105749,0.282682,15584.0,-1906.0,-286.0,-49.0,-28.0,56.0
2895.0,2779.0,2897.0,3147.0,3045.0,0.799194,-0.073364,-0.596497,-0.00824,-3.0,-2.0,2.0,7820.0,-904.0,-87.0,0.0,-23.0,-2361.0,2245.0,-322.0,-652.0,0.954642,-0.107435,0.277589,15588.0,-1814.0,-224.0,-48.0,-28.0,49.0
2896.0,2771.0,2897.0,3151.0,3047.0,0.798462,-0.073914,-0.597473,-0.00824,-3.0,-2.0,2.0,7822.0,-887.0,-84.0,-4.0,0.0,-2338.0,2226.0,-299.0,-647.0,0.955337,-0.108188,0.275172,15708.0,-1588.0,-88.0,-58.0,-34.0,46.0
2896.0,2783.0,2903.0,3151.0,3047.0,0.796936,-0.075073,-0.599304,-0.008362,-5.0,-2.0,2.0,7863.0,-833.0,-64.0,27.0,65.0,-2278.0,2187.0,-229.0,-597.0,0.95647,-0.109635,0.270375,15838.0,-1564.0,-164.0,-109.0,-27.0,61.0
2895.0,2774.0,2899.0,3149.0,3037.0,0.796143,-0.075867,-0.60022,-0.008484,-6.0,-1.0,2.0,7892.0,-842.0,-74.0,52.0,64.0,-2268.0,2185.0,-229.0,-564.0,0.957008,-0.110617,0.267895,15972.0,-1808.0,-208.0,-120.0,-19.0,67.0
2893.0,2775.0,2903.0,3151.0,3043.0,0.7948,-0.077271,-0.601868,-0.008606,-4.0,0.0,2.0,7924.0,-916.0,-135.0,75.0,5.0,-2294.0,2212.0,-294.0,-533.0,0.958059,-0.11247,0.263565,15808.0,-2018.0,-452.0,-72.0,20.0,49.0
2896.0,2775.0,2905.0,3153.0,3043.0,0.794189,-0.07782,-0.6026,-0.008545,-3.0,1.0,1.0,7920.0,-921.0,-145.0,68.0,7.0,-2288.0,2206.0,-294.0,-534.0,0.958487,-0.113309,0.261627,15820.0,-1852.0,-342.0,-49.0,23.0,45.0
2895.0,2769.0,2901.0,3151.0,3043.0,0.793091,-0.078613,-0.603943,-0.008484,-3.0,1.0,2.0,7908.0,-882.0,-121.0,49.0,55.0,-2235.0,2157.0,-243.0,-536.0,0.959297,-0.114447,0.258138,15622.0,-1696.0,-214.0,-52.0,33.0,51.0
2896.0,2771.0,2899.0,3147.0,3039.0,0.792542,-0.079163,-0.604614,-0.008423,-3.0,0.0,2.0,7865.0,-885.0,-117.0,3.0,59.0,-2217.0,2128.0,-242.0,-572.0,0.959697,-0.115294,0.256368,15468.0,-1822.0,-200.0,-56.0,17.0,65.0
2895.0,2778.0,2903.0,3150.0,3039.0,0.791138,-0.080322,-0.606262,-0.008179,-4.0,-2.0,3.0,7852.0,-861.0,-70.0,-17.0,98.0,-2134.0,2050.0,-197.0,-565.0,0.960588,-0.117175,0.25196,15940.0,-1630.0,132.0,-73.0,-29.0,82.0
2895.0,2774.0,2906.0,3155.0,3051.0,0.790527,-0.080994,-0.606995,-0.008179,-4.0,-1.0,3.0,7882.0,-851.0,-45.0,9.0,116.0,-2092.0,2020.0,-173.0,-528.0,0.961017,-0.118127,0.249998,15916.0,-1638.0,8.0,-91.0,-16.0,86.0
2896.0,2774.0,2901.0,3155.0,3047.0,0.789185,-0.082642,-0.608521,-0.008118,-6.0,-1.0,4.0,7890.0,-873.0,-41.0,10.0,114.0,-2054.0,1985.0,-174.0,-508.0,0.961812,-0.120559,0.245751,15776.0,-1920.0,-104.0,-120.0,-11.0,95.0
2895.0,2769.0,2902.0,3151.0,3039.0,0.788513,-0.083557,-0.609253,-0.008118,-5.0,-1.0,3.0,7873.0,-925.0,-64.0,-9.0,73.0,-2059.0,1981.0,-220.0,-519.0,0.962165,-0.12188,0.243648,15620.0,-2232.0,-362.0,-109.0,-2.0,88.0
2896.0,2787.0,2899.0,3151.0,3043.0,0.787231,-0.085022,-0.610718,-0.007812,-3.0,0.0,3.0,7841.0,-1031.0,-155.0,-46.0,-12.0,-2117.0,2019.0,-319.0,-550.0,0.962881,-0.124321,0.239589,15638.0,-2260.0,-606.0,-60.0,14.0,75.0
2894.0,2777.0,2905.0,3151.0,3047.0,0.786682,-0.085632,-0.611328,-0.00769,-3.0,1.0,2.0,7828.0,-1077.0,-212.0,-62.0,-50.0,-2160.0,2053.0,-366.0,-567.0,0.963159,-0.125328,0.237873,15590.0,-2484.0,-786.0,-55.0,38.0,55.0
2895.0,2778.0,2907.0,3154.0,3039.0,0.785767,-0.086487,-0.612427,-0.007629,-1.0,3.0,0.0,7790.0,-1134.0,-308.0,-105.0,-97.0,-2232.0,2107.0,-429.0,-613.0,0.963769,-0.126572,0.234941,15510.0,-2238.0,-820.0,-19.0,80.0,5.0
2895.0,2771.0,2897.0,3151.0,3039.0,0.7854,-0.086609,-0.612854,-0.00769,0.0,4.0,-1.0,7788.0,-1116.0,-329.0,-109.0,-78.0,-2244.0,2120.0,-413.0,-619.0,0.964004,-0.126619,0.233822,15600.0,-2092.0,-728.0,5.0,93.0,-13.0
2895.0,2787.0,2898.0,3151.0,3045.0,0.78479,-0.086243,-0.613647,-0.00769,3.0,4.0,-1.0,7788.0,-996.0,-310.0,-113.0,35.0,-2210.0,2101.0,-296.0,-626.0,0.964495,-0.125926,0.231954,15610.0,-1508.0,-458.0,70.0,96.0,-18.0
2895.0,2775.0,2903.0,3152.0,3047.0,0.784546,-0.085876,-0.614075,-0.007568,3.0,3.0,-1.0,7806.0,-895.0,-264.0,-97.0,132.0,-2157.0,2067.0,-189.0,-608.0,0.964839,-0.125453,0.231107,15760.0,-1170.0,-210.0,85.0,81.0,-1.0
2896.0,2779.0,2896.0,3151.0,3047.0,0.783997,-0.085144,-0.614868,-0.007141,3.0,3.0,1.0,7867.0,-755.0,-131.0,-40.0,266.0,-2010.0,1956.0,-27.0,-532.0,0.965325,-0.124724,0.229389,15768.0,-1274.0,134.0,87.0,74.0,36.0
2894.0,2774.0,2899.0,3151.0,3051.0,0.783691,-0.0849,-0.615234,-0.006775,3.0,2.0,2.0,7858.0,-738.0,-61.0,-51.0,283.0,-1932.0,1881.0,0.0,-525.0,0.965458,-0.124734,0.228497,15662.0,-1424.0,320.0,85.0,55.0,63.0
2895.0,2771.0,2901.0,3151.0,3043.0,0.783081,-0.084961,-0.616089,-0.005676,2.0,0.0,4.0,7823.0,-805.0,125.0,-89.0,227.0,-1730.0,1671.0,-27.0,-506.0,0.96586,-0.126068,0.226464,15514.0,-2008.0,774.0,56.0,7.0,106.0
2896.0,2778.0,2903.0,3149.0,3051.0,0.782654,-0.085266,-0.616577,-0.005066,1.0,-1.0,5.0,7829.0,-872.0,208.0,-84.0,170.0,-1636.0,1576.0,-69.0,-471.0,0.965997,-0.127221,0.225135,15764.0,-2156.0,930.0,28.0,-17.0,117.0
2899.0,2774.0,2901.0,3153.0,3047.0,0.781677,-0.086243,-0.617676,-0.004211,-2.0,-2.0,4.0,7852.0,-1030.0,328.0,-64.0,31.0,-1491.0,1427.0,-184.0,-396.0,0.966373,-0.129625,0.222076,15654.0,-2560.0,872.0,-37.0,-23.0,95.0
2895.0,2773.0,2897.0,3151.0,3031.0,0.781128,-0.086975,-0.618225,-0.003967,-4.0,-2.0,3.0,7856.0,-1094.0,343.0,-61.0,-21.0,-1462.0,1394.0,-232.0,-378.0,0.966516,-0.130972,0.22041,15764.0,-2488.0,778.0,-73.0,-36.0,88.0
2893.0,2773.0,2898.0,3151.0,3039.0,0.779968,-0.088806,-0.619507,-0.004028,-8.0,-2.0,2.0,7849.0,-1178.0,304.0,-73.0,-84.0,-1471.0,1393.0,-301.0,-378.0,0.967107,-0.133541,0.216691,15658.0,-2622.0,296.0,-163.0,-38.0,66.0
2895.0,2779.0,2903.0,3154.0,3035.0,0.779297,-0.089966,-0.620178,-0.004272,-9.0,-2.0,2.0,7849.0,-1229.0,250.0,-75.0,-123.0,-1508.0,1424.0,-348.0,-379.0,0.967375,-0.134921,0.214607,15722.0,-2740.0,226.0,-187.0,-36.0,55.0
2895.0,2773.0,2902.0,3155.0,3053.0,0.777954,-0.092163,-0.62146,-0.005066,-9.0,-1.0,1.0,7824.0,-1282.0,131.0,-104.0,-158.0,-1593.0,1495.0,-404.0,-414.0,0.967868,-0.137101,0.210532,15456.0,-2606.0,-98.0,-193.0,-7.0,23.0
2891.0,2773.0,2901.0,3151.0,3043.0,0.777344,-0.09314,-0.62207,-0.005676,-9.0,-1.0,0.0,7793.0,-1261.0,80.0,-138.0,-132.0,-1629.0,1526.0,-391.0,-455.0,0.968182,-0.137741,0.208649,15484.0,-2388.0,-142.0,-204.0,-8.0,8.0
2864.0,2773.0,2901.0,3151.0,3053.0,0.776184,-0.095215,-0.62323,-0.007141,-11.0,1.0,-1.0,7823.0,-1211.0,12.0,-113.0,-73.0,-1667.0,1575.0,-345.0,-441.0,0.968842,-0.138907,0.205031,15696.0,-2370.0,-204.0,-233.0,26.0,-9.0
2895.0,2771.0,2902.0,3151.0,3047.0,0.775635,-0.096252,-0.623718,-0.007935,-10.0,1.0,-1.0,7802.0,-1202.0,-35.0,-136.0,-59.0,-1701.0,1605.0,-343.0,-469.0,0.969083,-0.139416,0.203383,15460.0,-2334.0,-342.0,-223.0,36.0,-9.0
2896.0,2774.0,2897.0,3154.0,3047.0,0.774658,-0.098083,-0.624695,-0.00946,-9.0,1.0,-1.0,7777.0,-1142.0,-85.0,-166.0,6.0,-1726.0,1631.0,-294.0,-507.0,0.969706,-0.140143,0.200321,15460.0,-2062.0,-308.0,-199.0,38.0,-12.0
2895.0,2769.0,2899.0,3147.0,3043.0,0.774109,-0.098877,-0.625183,-0.010193,-9.0,1.0,-1.0,7760.0,-1102.0,-122.0,-185.0,47.0,-1749.0,1655.0,-263.0,-533.0,0.969935,-0.140338,0.198718,15454.0,-1992.0,-468.0,-188.0,33.0,-12.0
2895.0,2773.0,2901.0,3151.0,3043.0,0.77301,-0.100342,-0.626282,-0.011353,-7.0,0.0,-1.0,7742.0,-1086.0,-206.0,-208.0,68.0,-1806.0,1709.0,-261.0,-564.0,0.970523,-0.140911,0.195376,15456.0,-2158.0,-746.0,-143.0,17.0,-5.0
2898.0,2773.0,2899.0,3151.0,3043.0,0.7724,-0.100891,-0.626953,-0.01178,-5.0,0.0,-1.0,7763.0,-1088.0,-258.0,-190.0,67.0,-1843.0,1749.0,-269.0,-550.0,0.970894,-0.141086,0.193491,15700.0,-2190.0,-794.0,-110.0,13.0,-5.0
2895.0,2778.0,2906.0,3151.0,3047.0,0.771423,-0.101624,-0.628052,-0.012756,-5.0,2.0,-2.0,7828.0,-908.0,-320.0,-131.0,245.0,-1880.0,1825.0,-99.0,-519.0,0.97158,-0.140766,0.19048,15758.0,-940.0,-724.0,-108.0,66.0,-28.0
2891.0,2775.0,2899.0,3152.0,3043.0,0.770996,-0.10199,-0.628418,-0.013672,-8.0,3.0,-2.0,7846.0,-793.0,-371.0,-115.0,354.0,-1921.0,1884.0,0.0,-525.0,0.971804,-0.140084,0.189311,15862.0,-1010.0,-1074.0,-166.0,89.0,-36.0
2895.0,2769.0,2901.0,3151.0,3039.0,0.770325,-0.103271,-0.629028,-0.015259,-6.0,5.0,0.0,7880.0,-910.0,-495.0,-84.0,236.0,-2029.0,1978.0,-139.0,-494.0,0.972264,-0.139909,0.187291,15702.0,-2640.0,-1356.0,-135.0,131.0,1.0
2895.0,2775.0,2902.0,3151.0,3047.0,0.770081,-0.10376,-0.629272,-0.01532,-2.0,5.0,1.0,7828.0,-1034.0,-521.0,-137.0,117.0,-2048.0,1967.0,-267.0,-531.0,0.97236,-0.140526,0.186509,15296.0,-2756.0,-1088.0,-29.0,124.0,30.0
2894.0,2771.0,2903.0,3154.0,3007.0,0.769714,-0.103516,-0.629822,-0.014343,7.0,2.0,0.0,7750.0,-1281.0,-365.0,-217.0,-123.0,-1882.0,1755.0,-477.0,-542.0,0.972535,-0.141288,0.185275,15316.0,-3370.0,-10.0,180.0,59.0,7.0
2893.0,2773.0,2897.0,3149.0,3039.0,0.76947,-0.102783,-0.630188,-0.013367,12.0,0.0,-1.0,7748.0,-1376.0,-209.0,-219.0,-218.0,-1720.0,1585.0,-538.0,-499.0,0.97257,-0.14133,0.184562,15562.0,-3200.0,620.0,279.0,18.0,-8.0
2895.0,2775.0,2906.0,3151.0,3047.0,0.769165,-0.100281,-0.631042,-0.01123,13.0,-2.0,-2.0,7814.0,-1333.0,149.0,-156.0,-185.0,-1353.0,1252.0,-426.0,-374.0,0.973004,-0.140091,0.18347,15920.0,-2218.0,1340.0,313.0,-28.0,-38.0
2896.0,2775.0,2902.0,3153.0,3047.0,0.768921,-0.09906,-0.631531,-0.010559,10.0,-2.0,-2.0,7865.0,-1208.0,304.0,-108.0,-69.0,-1192.0,1123.0,-276.0,-313.0,0.973286,-0.139002,0.182707,16016.0,-1584.0,1446.0,239.0,-32.0,-40.0
2894.0,2775.0,2903.0,3151.0,3045.0,0.768311,-0.098145,-0.632446,-0.010437,-2.0,-2.0,-1.0,7915.0,-1005.0,453.0,-63.0,122.0,-1028.0,1001.0,-55.0,-263.0,0.973879,-0.137609,0.180789,15894.0,-1814.0,1026.0,-30.0,-37.0,-7.0
2894.0,2771.0,2899.0,3151.0,3043.0,0.767822,-0.098572,-0.632996,-0.010742,-5.0,-2.0,0.0,7917.0,-1043.0,420.0,-63.0,85.0,-1048.0,1016.0,-96.0,-260.0,0.974174,-0.137772,0.179267,15840.0,-2438.0,562.0,-114.0,-44.0,9.0
2894.0,2769.0,2897.0,3149.0,3039.0,0.766663,-0.099915,-0.634094,-0.011353,-6.0,-2.0,0.0,7921.0,-1170.0,309.0,-62.0,-32.0,-1131.0,1080.0,-227.0,-254.0,0.974541,-0.138804,0.175842,15836.0,-2606.0,310.0,-117.0,-27.0,8.0
2895.0,2775.0,2903.0,3151.0,3047.0,0.766174,-0.100525,-0.634644,-0.011658,-5.0,-1.0,0.0,7909.0,-1194.0,257.0,-76.0,-53.0,-1170.0,1112.0,-257.0,-270.0,0.974839,-0.139242,0.174281,15684.0,-2458.0,230.0,-108.0,-13.0,7.0
2895.0,2771.0,2899.0,3149.0,3039.0,0.765198,-0.101624,-0.63562,-0.012329,-6.0,-1.0,0.0,7844.0,-1163.0,153.0,-145.0,-17.0,-1250.0,1182.0,-246.0,-353.0,0.975256,-0.139851,0.171339,15508.0,-2184.0,58.0,-116.0,-12.0,1.0
2896.0,2769.0,2899.0,3151.0,3044.0,0.764648,-0.102173,-0.636108,-0.012695,-6.0,-1.0,0.0,7830.0,-1129.0,106.0,-160.0,18.0,-1284.0,1217.0,-221.0,-376.0,0.975393,-0.140101,0.169775,15618.0,-2014.0,-52.0,-125.0,-11.0,4.0
2893.0,2773.0,2901.0,3153.0,3047.0,0.763794,-0.103333,-0.637024,-0.013794,-7.0,1.0,-1.0,7819.0,-1045.0,46.0,-176.0,104.0,-1322.0,1265.0,-149.0,-407.0,0.975961,-0.140275,0.167094,15490.0,-1882.0,-154.0,-154.0,27.0,-9.0
2894.0,2775.0,2903.0,3151.0,3047.0,0.763306,-0.104004,-0.63739,-0.014465,-8.0,0.0,-1.0,7788.0,-1018.0,13.0,-207.0,131.0,-1344.0,1285.0,-132.0,-443.0,0.976056,-0.140333,0.165762,15424.0,-1912.0,-138.0,-172.0,21.0,-2.0
2895.0,2771.0,2898.0,3151.0,3039.0,0.762329,-0.10553,-0.638367,-0.015625,-7.0,-1.0,0.0,7767.0,-1057.0,-38.0,-233.0,97.0,-1371.0,1302.0,-178.0,-464.0,0.976589,-0.140948,0.162741,15510.0,-2320.0,-224.0,-157.0,-6.0,0.0
2894.0,2771.0,2901.0,3150.0,3043.0,0.76178,-0.10614,-0.638916,-0.016113,-6.0,-1.0,-1.0,7761.0,-1084.0,-66.0,-241.0,72.0,-1385.0,1310.0,-208.0,-468.0,0.976847,-0.141121,0.161089,15490.0,-2334.0,-288.0,-124.0,-16.0,-8.0
2895.0,2775.0,2899.0,3151.0,3039.0,0.760681,-0.106873,-0.640076,-0.016724,-3.0,-2.0,-1.0,7720.0,-1122.0,-73.0,-286.0,34.0,-1365.0,1278.0,-249.0,-499.0,0.977362,-0.141183,0.157797,15214.0,-2352.0,-180.0,-54.0,-36.0,-22.0
2893.0,2770.0,2903.0,3147.0,3045.0,0.76001,-0.107056,-0.640808,-0.016846,-2.0,-3.0,-1.0,7655.0,-1138.0,-75.0,-353.0,18.0,-1351.0,1251.0,-270.0,-558.0,0.977648,-0.141137,0.155803,14924.0,-2392.0,-154.0,-39.0,-68.0,-14.0
2895.0,2775.0,2907.0,3154.0,3045.0,0.758423,-0.107666,-0.642578,-0.016907,-2.0,-7.0,-1.0,7507.0,-1274.0,-63.0,-507.0,-114.0,-1299.0,1154.0,-408.0,-676.0,0.978332,-0.141585,0.150992,14470.0,-3094.0,-98.0,-33.0,-155.0,-14.0
2891.0,2768.0,2899.0,3143.0,3043.0,0.757324,-0.108032,-0.643799,-0.016785,-2.0,-10.0,-1.0,7398.0,-1375.0,-59.0,-619.0,-211.0,-1268.0,1091.0,-511.0,-763.0,0.978755,-0.142019,0.147674,14120.0,-3374.0,-104.0,-44.0,-228.0,-19.0
2895.0,2771.0,2899.0,3151.0,3039.0,0.754089,-0.108887,-0.647461,-0.016357,-1.0,-20.0,-3.0,7093.0,-1701.0,-160.0,-935.0,-529.0,-1289.0,1015.0,-863.0,-1018.0,0.980049,-0.143039,0.137856,13108.0,-4536.0,-868.0,-18.0,-453.0,-55.0
2895.0,2773.0,2899.0,3151.0,3047.0,0.748474,-0.108826,-0.653992,-0.014893,7.0,-37.0,-8.0,6594.0,-2143.0,-510.0,-1452.0,-968.0,-1500.0,1094.0,-1392.0,-1468.0,0.982233,-0.143427,0.120887,11446.0,-5774.0,-2454.0,168.0,-839.0,-163.0
2895.0,2774.0,2906.0,3151.0,3047.0,0.744385,-0.107727,-0.658875,-0.013428,16.0,-49.0,-12.0,6198.0,-2488.0,-875.0,-1861.0,-1319.0,-1764.0,1267.0,-1829.0,-1834.0,0.983805,-0.142686,0.108568,9700.0,-7314.0,-4240.0,385.0,-1115.0,-269.0
2895.0,2774.0,2903.0,3151.0,3047.0,0.731567,-0.099915,-0.674377,-0.006042,62.0,-88.0,-28.0,5031.0,-3626.0,-2196.0,-3061.0,-2495.0,-2773.0,2097.0,-3258.0,-2874.0,0.987913,-0.138039,0.070459,6082.0,-11198.0,-9468.0,1433.0,-2007.0,-627.0
2895.0,2774.0,2906.0,3152.0,3039.0,0.710266,-0.076477,-0.699646,0.011475,147.0,-137.0,-57.0,3770.0,-4521.0,-4141.0,-4357.0,-3499.0,-4216.0,3789.0,-4384.0,-3925.0,0.992115,-0.124694,0.009256,4476.0,-10362.0,-14168.0,3390.0,-3137.0,-1284.0
2896.0,2773.0,2907.0,3149.0,3046.0,0.696289,-0.056274,-0.715149,0.02356,190.0,-156.0,-78.0,3387.0,-4417.0,-5128.0,-4749.0,-3498.0,-4888.0,4828.0,-4228.0,-4182.0,0.993249,-0.112064,-0.029231,4748.0,-7444.0,-16158.0,4365.0,-3563.0,-1772.0
2895.0,2771.0,2901.0,3149.0,3046.0,0.663025,-0.000244,-0.747131,0.04718,228.0,-172.0,-127.0,3540.0,-2664.0,-6561.0,-4575.0,-2083.0,-5607.0,6237.0,-1968.0,-3732.0,0.99071,-0.070823,-0.116377,9956.0,1858.0,-16042.0,5226.0,-3935.0,-2887.0
2895.0,2773.0,2907.0,3149.0,3039.0,0.631897,0.063599,-0.770264,0.058167,185.0,-119.0,-169.0,6086.0,-864.0,-7017.0,-1949.0,-788.0,-5422.0,5749.0,193.0,-848.0,0.980853,-0.009232,-0.194674,21590.0,1652.0,-14516.0,4252.0,-2707.0,-3863.0
2895.0,2775.0,2902.0,3153.0,3043.0,0.622559,0.094482,-0.774597,0.059265,165.0,-62.0,-184.0,7581.0,-651.0,-7085.0,-411.0,-862.0,-5300.0,5327.0,299.0,731.0,0.975663,0.025828,-0.217836,23812.0,-634.0,-14480.0,3787.0,-1420.0,-4213.0
2894.0,2779.0,2899.0,3153.0,3047.0,0.620178,0.153687,-0.767029,0.058472,137.0,56.0,-202.0,9153.0,-216.0,-7018.0,1211.0,-1042.0,-5183.0,4936.0,269.0,2229.0,0.969362,0.100927,-0.223913,20502.0,2438.0,-13670.0,3160.0,1283.0,-4612.0
2894.0,2779.0,2907.0,3153.0,3043.0,0.635071,0.204041,-0.743286,0.050964,68.0,127.0,-186.0,9074.0,943.0,-6354.0,1169.0,-559.0,-4812.0,4519.0,823.0,1931.0,0.964876,0.183398,-0.188195,16426.0,5496.0,-9726.0,1558.0,2922.0,-4247.0
2894.0,2771.0,2899.0,3147.0,3043.0,0.646912,0.221802,-0.72821,0.044312,26.0,147.0,-162.0,8591.0,1720.0,-5509.0,711.0,-102.0,-4206.0,3873.0,1197.0,1330.0,0.961832,0.222436,-0.159028,13874.0,8818.0,-5524.0,618.0,3370.0,-3689.0
2887.0,2775.0,2903.0,3151.0,3043.0,0.676208,0.240845,-0.695801,0.025208,-60.0,155.0,-107.0,7311.0,3850.0,-3658.0,-497.0,1469.0,-2967.0,2198.0,2516.0,203.0,0.953155,0.290644,-0.084252,11192.0,12760.0,-1864.0,-1365.0,3560.0,-2440.0
2896.0,2774.0,2903.0,3147.0,3043.0,0.706116,0.239075,-0.666504,0.003967,-100.0,139.0,-54.0,6870.0,4541.0,-1775.0,-856.0,1818.0,-1752.0,960.0,2478.0,-198.0,0.943155,0.33234,-0.002769,14212.0,10298.0,2550.0,-2285.0,3193.0,-1218.0
2895.0,2781.0,2907.0,3153.0,3047.0,0.720581,0.234863,-0.652405,-0.003967,-91.0,139.0,-40.0,7096.0,4748.0,-690.0,-591.0,1932.0,-1005.0,277.0,2238.0,70.0,0.938358,0.343653,0.03846,15578.0,10796.0,5146.0,-2066.0,3206.0,-896.0
2890.0,2775.0,2899.0,3151.0,3043.0,0.747009,0.23114,-0.623169,-0.012878,-34.0,134.0,-31.0,7028.0,5319.0,1282.0,-550.0,2358.0,328.0,-1063.0,2166.0,381.0,0.925073,0.361379,0.116423,12490.0,12742.0,8316.0,-777.0,3074.0,-708.0
2891.0,2774.0,2898.0,3151.0,3039.0,0.757141,0.233948,-0.609741,-0.013672,5.0,113.0,-27.0,6603.0,5767.0,2171.0,-908.0,2728.0,967.0,-1853.0,2379.0,321.0,0.916923,0.370936,0.146934,10544.0,14492.0,9642.0,115.0,2607.0,-617.0
2895.0,2777.0,2903.0,3150.0,3039.0,0.7677,0.248352,-0.590637,-0.009094,66.0,52.0,-10.0,6143.0,7486.0,3707.0,-1249.0,4274.0,2241.0,-3613.0,3299.0,949.0,0.902347,0.392063,0.178915,11982.0,21448.0,11416.0,1521.0,1201.0,-229.0
2893.0,2775.0,2901.0,3151.0,3039.0,0.768616,0.263428,-0.582947,-0.001953,54.0,0.0,20.0,6743.0,9370.0,4686.0,-589.0,6034.0,3198.0,-4892.0,4091.0,2510.0,0.895095,0.407227,0.181553,16604.0,22880.0,11348.0,1237.0,17.0,474.0
2896.0,2778.0,2903.0,3151.0,3043.0,0.767761,0.26593,-0.582947,0.001587,29.0,-12.0,39.0,7441.0,9565.0,4821.0,101.0,6235.0,3355.0,-4916.0,3945.0,3225.0,0.895972,0.406492,0.178914,19354.0,19240.0,10064.0,682.0,-269.0,914.0
2894.0,2774.0,2903.0,3151.0,3045.0,0.767029,0.260132,-0.586426,0.01062,-8.0,-8.0,66.0,8614.0,8335.0,4273.0,1199.0,5167.0,2823.0,-3810.0,2958.0,3582.0,0.905136,0.386601,0.176882,19718.0,11550.0,6198.0,-172.0,-171.0,1529.0
2894.0,2778.0,2903.0,3143.0,3041.0,0.767578,0.25415,-0.588196,0.015564,-17.0,0.0,67.0,8785.0,7332.0,3749.0,1323.0,4285.0,2283.0,-3020.0,2432.0,3206.0,0.910884,0.371851,0.178852,17942.0,8446.0,3862.0,-386.0,14.0,1552.0
2893.0,2773.0,2897.0,3151.0,3039.0,0.769104,0.23999,-0.591797,0.023926,-29.0,4.0,59.0,8448.0,4914.0,2509.0,896.0,2121.0,999.0,-1311.0,1255.0,1732.0,0.921791,0.340836,0.184275,15498.0,2214.0,1374.0,-660.0,92.0,1365.0
2863.0,2778.0,2901.0,3152.0,3047.0,0.769836,0.232849,-0.593567,0.027893,-27.0,5.0,54.0,8159.0,3697.0,1933.0,565.0,1031.0,402.0,-525.0,628.0,934.0,0.926889,0.325399,0.186886,14460.0,266.0,538.0,-608.0,124.0,1246.0
2894.0,2779.0,2907.0,3153.0,3047.0,0.770813,0.220642,-0.596558,0.035339,-20.0,6.0,41.0,7507.0,1859.0,1070.0,-154.0,-582.0,-493.0,586.0,-303.0,-411.0,0.935263,0.297984,0.190838,13306.0,-828.0,134.0,-453.0,139.0,959.0
2891.0,2773.0,2901.0,3151.0,3043.0,0.771301,0.215454,-0.597656,0.038269,-19.0,7.0,34.0,7264.0,1182.0,810.0,-423.0,-1165.0,-769.0,945.0,-678.0,-879.0,0.938437,0.286617,0.192757,13070.0,-1522.0,86.0,-432.0,176.0,780.0
2891.0,2773.0,2905.0,3151.0,3043.0,0.772583,0.207703,-0.59845,0.042847,-8.0,10.0,14.0,6754.0,-67.0,499.0,-966.0,-2275.0,-1118.0,1459.0,-1478.0,-1744.0,0.942503,0.269652,0.197438,12006.0,-3504.0,274.0,-182.0,248.0,338.0
2895.0,2781.0,2903.0,3155.0,3047.0,0.77301,0.205872,-0.598389,0.044556,-2.0,9.0,4.0,6612.0,-521.0,446.0,-1116.0,-2691.0,-1184.0,1609.0,-1814.0,-2001.0,0.943467,0.264958,0.199078,12572.0,-3488.0,702.0,-24.0,221.0,98.0
2894.0,2779.0,2903.0,3153.0,3051.0,0.773682,0.205872,-0.597351,0.046509,9.0,10.0,-12.0,6550.0,-750.0,447.0,-1178.0,-2904.0,-1203.0,1679.0,-1990.0,-2117.0,0.943469,0.262994,0.201535,13070.0,-980.0,1012.0,212.0,238.0,-274.0
2893.0,2771.0,2899.0,3147.0,3039.0,0.773987,0.207275,-0.596497,0.046753,10.0,10.0,-16.0,6517.0,-502.0,471.0,-1205.0,-2673.0,-1187.0,1585.0,-1773.0,-2084.0,0.942742,0.265081,0.20247,12818.0,798.0,1118.0,237.0,230.0,-346.0
2896.0,2772.0,2899.0,3151.0,3045.0,0.774353,0.209595,-0.595276,0.045532,-4.0,2.0,-9.0,6572.0,770.0,677.0,-1136.0,-1445.0,-989.0,1029.0,-734.0,-1660.0,0.940994,0.270392,0.203412,13870.0,6042.0,2136.0,-78.0,52.0,-201.0
2894.0,2778.0,2903.0,3151.0,3047.0,0.774597,0.209167,-0.595215,0.043823,-16.0,0.0,-5.0,6798.0,1376.0,766.0,-906.0,-851.0,-904.0,826.0,-269.0,-1267.0,0.940436,0.271873,0.20389,15132.0,6006.0,1986.0,-350.0,7.0,-99.0
2894.0,2778.0,2903.0,3155.0,3051.0,0.775391,0.205688,-0.595703,0.040466,-22.0,2.0,1.0,7282.0,1876.0,758.0,-422.0,-342.0,-927.0,825.0,105.0,-680.0,0.940452,0.270766,0.205698,15650.0,4384.0,1296.0,-492.0,50.0,43.0
2891.0,2773.0,2899.0,3151.0,3046.0,0.775635,0.203857,-0.596069,0.039551,-16.0,1.0,3.0,7425.0,1885.0,714.0,-281.0,-319.0,-976.0,903.0,114.0,-551.0,0.94079,0.269088,0.206317,15656.0,3664.0,1154.0,-366.0,38.0,80.0
2891.0,2775.0,2899.0,3152.0,3045.0,0.77533,0.202087,-0.597046,0.039612,-1.0,0.0,2.0,7715.0,1821.0,677.0,0.0,-358.0,-1005.0,1022.0,34.0,-301.0,0.941825,0.266069,0.205402,16298.0,3548.0,1282.0,-14.0,9.0,58.0
2895.0,2778.0,2907.0,3151.0,3043.0,0.774963,0.202271,-0.597412,0.0401,4.0,0.0,0.0,7839.0,1797.0,676.0,120.0,-378.0,-998.0,1056.0,-6.0,-191.0,0.942167,0.265592,0.204362,16364.0,3424.0,1318.0,99.0,21.0,9.0
2891.0,2781.0,2899.0,3151.0,3047.0,0.774231,0.203552,-0.597778,0.041382,8.0,2.0,-2.0,7902.0,1700.0,658.0,181.0,-476.0,-999.0,1105.0,-103.0,-158.0,0.942484,0.265719,0.202374,15738.0,3086.0,1300.0,188.0,53.0,-26.0
2894.0,2775.0,2900.0,3153.0,3045.0,0.773926,0.204285,-0.5979,0.042114,7.0,2.0,-1.0,7885.0,1683.0,686.0,162.0,-494.0,-964.0,1074.0,-126.0,-172.0,0.942668,0.265842,0.201518,15648.0,3378.0,1582.0,183.0,55.0,-16.0
2895.0,2773.0,2901.0,3151.0,3043.0,0.773743,0.204956,-0.5979,0.043152,0.0,3.0,1.0,7827.0,1834.0,793.0,102.0,-341.0,-853.0,909.0,-14.0,-165.0,0.942931,0.265565,0.201048,15342.0,4228.0,1908.0,18.0,87.0,24.0
2896.0,2779.0,2903.0,3151.0,3045.0,0.773865,0.204529,-0.597839,0.043152,-5.0,3.0,2.0,7746.0,1873.0,800.0,21.0,-297.0,-850.0,869.0,38.0,-230.0,0.942945,0.26496,0.201485,14998.0,3846.0,1574.0,-104.0,79.0,50.0
2895.0,2779.0,2907.0,3151.0,3039.0,0.773987,0.202698,-0.598328,0.042908,-8.0,1.0,2.0,7613.0,1778.0,751.0,-116.0,-371.0,-902.0,901.0,10.0,-388.0,0.94359,0.262425,0.201814,14846.0,3170.0,1276.0,-176.0,39.0,65.0
2865.0,2775.0,2901.0,3151.0,3047.0,0.773926,0.201843,-0.598633,0.042786,-6.0,1.0,1.0,7566.0,1715.0,703.0,-166.0,-424.0,-949.0,947.0,-13.0,-458.0,0.943867,0.261198,0.20169,14914.0,3072.0,1084.0,-136.0,23.0,41.0
2895.0,2768.0,2901.0,3149.0,3046.0,0.773682,0.201233,-0.599182,0.042786,-1.0,2.0,-1.0,7550.0,1691.0,655.0,-186.0,-439.0,-990.0,984.0,-10.0,-488.0,0.944372,0.260108,0.2009,15082.0,3574.0,1314.0,-13.0,53.0,-13.0
2895.0,2782.0,2891.0,3151.0,3045.0,0.773621,0.201355,-0.599243,0.042908,1.0,3.0,-2.0,7546.0,1738.0,682.0,-190.0,-392.0,-962.0,943.0,23.0,-474.0,0.944453,0.26012,0.200694,15050.0,3740.0,1564.0,23.0,75.0,-28.0
2895.0,2775.0,2907.0,3153.0,3047.0,0.773743,0.201965,-0.598877,0.043274,2.0,4.0,-2.0,7551.0,1848.0,787.0,-184.0,-287.0,-860.0,819.0,83.0,-421.0,0.944233,0.260707,0.201107,15150.0,4088.0,1940.0,59.0,109.0,-26.0
2893.0,2773.0,2899.0,3149.0,3039.0,0.773865,0.202271,-0.598572,0.043457,2.0,4.0,-1.0,7548.0,1907.0,840.0,-185.0,-231.0,-811.0,756.0,117.0,-398.0,0.944007,0.261036,0.201554,15052.0,4136.0,1996.0,46.0,111.0,-16.0
2893.0,2771.0,2902.0,3151.0,3046.0,0.774109,0.202393,-0.598267,0.043762,-1.0,3.0,0.0,7530.0,1936.0,936.0,-202.0,-201.0,-721.0,660.0,115.0,-388.0,0.943961,0.260985,0.202274,14878.0,3832.0,2094.0,-9.0,77.0,17.0
2895.0,2777.0,2901.0,3152.0,3041.0,0.774109,0.202209,-0.598328,0.043884,-2.0,1.0,1.0,7499.0,1910.0,966.0,-234.0,-224.0,-691.0,631.0,88.0,-419.0,0.944089,0.26055,0.202286,14840.0,3644.0,2134.0,-33.0,33.0,34.0
2895.0,2775.0,2901.0,3154.0,3045.0,0.773743,0.201477,-0.598938,0.044128,-3.0,-2.0,2.0,7531.0,1823.0,1025.0,-207.0,-298.0,-624.0,601.0,-9.0,-398.0,0.944629,0.258922,0.201305,15276.0,3314.0,2178.0,-47.0,-33.0,46.0
2893.0,2775.0,2898.0,3147.0,3045.0,0.773499,0.20105,-0.599365,0.04425,-2.0,-2.0,1.0,7570.0,1772.0,1044.0,-171.0,-341.0,-599.0,602.0,-64.0,-369.0,0.945009,0.257979,0.200598,15374.0,3266.0,2242.0,-37.0,-31.0,36.0
2883.0,2774.0,2899.0,3147.0,3039.0,0.773193,0.200562,-0.599976,0.044434,-2.0,0.0,0.0,7644.0,1749.0,1067.0,-102.0,-354.0,-568.0,598.0,-100.0,-300.0,0.945618,0.256828,0.199607,15528.0,3534.0,2148.0,-27.0,4.0,9.0
2895.0,2779.0,2906.0,3151.0,3043.0,0.773132,0.200378,-0.600098,0.044434,-2.0,1.0,0.0,7675.0,1766.0,1055.0,-72.0,-335.0,-578.0,609.0,-84.0,-269.0,0.945717,0.256509,0.199439,15520.0,3628.0,2070.0,-37.0,31.0,1.0
2897.0,2779.0,2899.0,3155.0,3045.0,0.773254,0.19989,-0.600098,0.044434,-3.0,3.0,0.0,7683.0,1800.0,1032.0,-65.0,-295.0,-604.0,622.0,-40.0,-257.0,0.94582,0.255803,0.199823,15210.0,3716.0,1952.0,-47.0,75.0,8.0
2890.0,2771.0,2898.0,3152.0,3043.0,0.773376,0.199646,-0.600037,0.044434,-3.0,3.0,0.0,7637.0,1820.0,1011.0,-111.0,-272.0,-628.0,624.0,-2.0,-300.0,0.94585,0.255479,0.200183,15002.0,3762.0,1910.0,-53.0,71.0,16.0
2890.0,2771.0,2897.0,3150.0,3039.0,0.773315,0.198975,-0.600281,0.044434,-3.0,0.0,1.0,7556.0,1782.0,985.0,-194.0,-302.0,-653.0,634.0,-8.0,-391.0,0.946095,0.254395,0.200063,14932.0,3312.0,1912.0,-57.0,13.0,31.0
2895.0,2778.0,2907.0,3153.0,3042.0,0.773132,0.198669,-0.600647,0.044556,-2.0,-1.0,1.0,7537.0,1752.0,967.0,-216.0,-326.0,-667.0,648.0,-21.0,-420.0,0.946463,0.253671,0.199473,14970.0,3378.0,1824.0,-37.0,-17.0,35.0
2895.0,2779.0,2907.0,3151.0,3047.0,0.772644,0.198242,-0.60144,0.044678,-1.0,-2.0,0.0,7577.0,1736.0,978.0,-181.0,-333.0,-643.0,639.0,-43.0,-382.0,0.947113,0.252599,0.197944,15278.0,3450.0,1924.0,-18.0,-24.0,13.0
2894.0,2778.0,2897.0,3151.0,3043.0,0.772461,0.19812,-0.601746,0.044678,-1.0,-1.0,0.0,7597.0,1751.0,973.0,-163.0,-315.0,-643.0,638.0,-30.0,-360.0,0.947353,0.252311,0.197343,15290.0,3656.0,1916.0,-21.0,-7.0,5.0
2895.0,2769.0,2899.0,3147.0,3043.0,0.772217,0.197815,-0.602112,0.044617,-2.0,1.0,0.0,7606.0,1781.0,942.0,-156.0,-281.0,-668.0,653.0,8.0,-349.0,0.947573,0.251784,0.19664,15226.0,3610.0,1756.0,-39.0,24.0,2.0
2891.0,2778.0,2906.0,3155.0,3047.0,0.772156,0.197693,-0.602234,0.044617,-2.0,1.0,0.0,7609.0,1789.0,924.0,-154.0,-271.0,-685.0,666.0,23.0,-348.0,0.947678,0.25156,0.196447,15228.0,3632.0,1756.0,-39.0,41.0,1.0
2891.0,2777.0,2901.0,3152.0,3045.0,0.772156,0.197388,-0.602356,0.044617,-2.0,2.0,-1.0,7576.0,1778.0,887.0,-188.0,-278.0,-722.0,693.0,35.0,-389.0,0.947839,0.251078,0.196421,14972.0,3478.0,1682.0,-25.0,59.0,-1.0
2895.0,2770.0,2899.0,3151.0,3043.0,0.772095,0.197327,-0.602417,0.044678,-1.0,1.0,0.0,7531.0,1773.0,878.0,-234.0,-282.0,-729.0,688.0,41.0,-435.0,0.947878,0.25088,0.196282,14814.0,3534.0,1764.0,-17.0,35.0,5.0
2894.0,2774.0,2899.0,3151.0,3046.0,0.771729,0.197083,-0.602905,0.044678,-1.0,-1.0,0.0,7543.0,1771.0,910.0,-224.0,-279.0,-689.0,654.0,28.0,-416.0,0.948169,0.250316,0.195225,15256.0,3496.0,2036.0,-21.0,-9.0,6.0
2895.0,2779.0,2875.0,3151.0,3039.0,0.771606,0.197021,-0.603149,0.044739,-1.0,-1.0,0.0,7563.0,1761.0,933.0,-206.0,-287.0,-662.0,637.0,8.0,-396.0,0.948417,0.250078,0.194771,15232.0,3498.0,2020.0,-6.0,0.0,0.0
2896.0,2778.0,2907.0,3153.0,3045.0,0.77124,0.197021,-0.603577,0.044861,0.0,0.0,-1.0,7604.0,1751.0,969.0,-167.0,-294.0,-617.0,609.0,-20.0,-351.0,0.948682,0.249748,0.193702,15494.0,3452.0,2060.0,11.0,1.0,-7.0
2895.0,2775.0,2899.0,3147.0,3039.0,0.771118,0.197021,-0.60376,0.044983,0.0,0.0,0.0,7646.0,1756.0,984.0,-127.0,-288.0,-599.0,601.0,-28.0,-308.0,0.948865,0.249536,0.193303,15540.0,3562.0,2052.0,13.0,19.0,1.0
2894.0,2769.0,2907.0,3150.0,3043.0,0.770996,0.19696,-0.603882,0.045166,-1.0,1.0,0.0,7632.0,1788.0,978.0,-141.0,-253.0,-603.0,590.0,7.0,-313.0,0.948973,0.249162,0.193008,15092.0,3638.0,1892.0,-16.0,36.0,4.0
2895.0,2777.0,2903.0,3151.0,3043.0,0.770935,0.196838,-0.604004,0.045166,-2.0,1.0,0.0,7615.0,1779.0,972.0,-159.0,-260.0,-607.0,592.0,5.0,-332.0,0.949076,0.248938,0.192815,15158.0,3448.0,1936.0,-31.0,24.0,10.0
2895.0,2779.0,2906.0,3155.0,3043.0,0.770752,0.196472,-0.60437,0.04541,-1.0,0.0,0.0,7580.0,1727.0,955.0,-198.0,-304.0,-619.0,606.0,-24.0,-382.0,0.949483,0.247974,0.192256,15018.0,3408.0,1886.0,-7.0,20.0,14.0
2893.0,2773.0,2898.0,3151.0,3043.0,0.77063,0.196411,-0.604492,0.045471,-1.0,0.0,0.0,7569.0,1738.0,961.0,-209.0,-291.0,-611.0,592.0,-13.0,-387.0,0.949542,0.247747,0.19195,15096.0,3584.0,1998.0,-7.0,17.0,1.0
2894.0,2773.0,2901.0,3149.0,3039.0,0.770508,0.19635,-0.604675,0.045471,-1.0,0.0,-1.0,7573.0,1792.0,1015.0,-206.0,-236.0,-554.0,524.0,15.0,-360.0,0.949671,0.247588,0.191564,15206.0,3802.0,2192.0,-17.0,22.0,-4.0
2895.0,2779.0,2907.0,3151.0,3047.0,0.770508,0.196289,-0.604736,0.04541,-2.0,1.0,0.0,7582.0,1822.0,1045.0,-198.0,-206.0,-523.0,489.0,30.0,-339.0,0.949735,0.247562,0.191509,15204.0,3774.0,2236.0,-29.0,24.0,6.0
2895.0,2775.0,2911.0,3153.0,3047.0,0.770447,0.195862,-0.60498,0.04541,-2.0,0.0,0.0,7593.0,1817.0,1054.0,-189.0,-205.0,-513.0,482.0,26.0,-328.0,0.949999,0.246858,0.191287,15180.0,3458.0,2098.0,-39.0,13.0,15.0
2891.0,2775.0,2901.0,3149.0,3039.0,0.770325,0.195679,-0.605164,0.04541,-2.0,0.0,0.0,7574.0,1779.0,1047.0,-209.0,-240.0,-517.0,491.0,-1.0,-356.0,0.950117,0.246511,0.190949,15018.0,3358.0,2052.0,-23.0,1.0,11.0
2893.0,2771.0,2897.0,3151.0,3043.0,0.769897,0.195557,-0.605774,0.045593,0.0,-2.0,0.0,7543.0,1712.0,1019.0,-244.0,-302.0,-534.0,517.0,-46.0,-407.0,0.9506,0.245879,0.189616,15064.0,3244.0,1982.0,14.0,-33.0,8.0
2892.0,2769.0,2903.0,3215.0,3051.0,0.769531,0.195557,-0.60614,0.045715,0.0,-3.0,0.0,7527.0,1716.0,1006.0,-261.0,-295.0,-539.0,515.0,-35.0,-422.0,0.950767,0.245554,0.18862,14954.0,3522.0,1946.0,10.0,-48.0,8.0
2895.0,2779.0,2905.0,3153.0,3043.0,0.768921,0.195312,-0.607056,0.045532,-3.0,-4.0,0.0,7537.0,1745.0,1029.0,-256.0,-262.0,-500.0,472.0,-20.0,-401.0,0.951342,0.245079,0.186649,15204.0,3598.0,2138.0,-49.0,-70.0,11.0
2895.0,2769.0,2901.0,3143.0,3047.0,0.768677,0.194946,-0.607483,0.045349,-4.0,-3.0,0.0,7568.0,1765.0,1045.0,-227.0,-238.0,-477.0,451.0,-11.0,-362.0,0.951597,0.244604,0.185881,15332.0,3610.0,2182.0,-84.0,-61.0,15.0
2893.0,2773.0,2898.0,3151.0,3039.0,0.768433,0.194031,-0.608093,0.044861,-5.0,-1.0,0.0,7638.0,1725.0,1039.0,-160.0,-270.0,-477.0,478.0,-53.0,-306.0,0.951966,0.24364,0.185076,15462.0,3326.0,1956.0,-95.0,0.0,6.0
2893.0,2781.0,2903.0,3152.0,3051.0,0.768433,0.193665,-0.608276,0.044678,-4.0,1.0,-1.0,7648.0,1713.0,1024.0,-151.0,-279.0,-491.0,496.0,-58.0,-302.0,0.952144,0.243283,0.184979,15304.0,3362.0,1960.0,-74.0,24.0,-4.0
2896.0,2775.0,2900.0,3151.0,3039.0,0.768372,0.193359,-0.608398,0.044495,-2.0,0.0,-1.0,7585.0,1751.0,1006.0,-215.0,-239.0,-508.0,483.0,-5.0,-356.0,0.952159,0.243003,0.184838,14924.0,3732.0,2028.0,-25.0,17.0,-12.0
2891.0,2768.0,2897.0,3151.0,3045.0,0.76825,0.193359,-0.608582,0.044434,-1.0,-1.0,-1.0,7560.0,1794.0,1014.0,-240.0,-196.0,-496.0,453.0,33.0,-367.0,0.952268,0.243014,0.184422,15038.0,3860.0,2114.0,-18.0,-10.0,-4.0
2893.0,2775.0,2897.0,3153.0,3039.0,0.767883,0.193237,-0.609131,0.044373,-1.0,-2.0,1.0,7567.0,1861.0,1029.0,-236.0,-127.0,-472.0,412.0,88.0,-342.0,0.952632,0.24271,0.183233,15180.0,3904.0,2044.0,-20.0,-37.0,25.0
2893.0,2778.0,2901.0,3151.0,3047.0,0.767639,0.193054,-0.609497,0.044312,-2.0,-2.0,1.0,7592.0,1870.0,1028.0,-213.0,-115.0,-466.0,409.0,92.0,-315.0,0.952857,0.242376,0.182477,15354.0,3738.0,2046.0,-33.0,-39.0,35.0
2895.0,2777.0,2906.0,3153.0,3045.0,0.767395,0.192505,-0.609985,0.044373,-3.0,0.0,1.0,7642.0,1895.0,1037.0,-167.0,-81.0,-451.0,396.0,110.0,-260.0,0.953283,0.241321,0.181724,15364.0,3838.0,2084.0,-55.0,4.0,38.0
2942.0,2771.0,2903.0,3155.0,3039.0,0.684814,-0.108276,-0.72052,-0.011597,0.0,1.0,-2.0,7781.0,-1201.0,-659.0,-323.0,-123.0,-153.0,141.0,-190.0,-293.0,0.989356,-0.131587,-0.061768,15614.0,-2218.0,-1136.0,11.0,30.0,-36.0
2893.0,2775.0,2903.0,3149.0,3035.0,0.684875,-0.10791,-0.72052,-0.011658,0.0,0.0,-2.0,7805.0,-1137.0,-611.0,-300.0,-63.0,-106.0,105.0,-120.0,-282.0,0.989449,-0.131011,-0.061603,15728.0,-2070.0,-1074.0,22.0,4.0,-30.0
2895.0,2779.0,2903.0,3149.0,3047.0,0.684875,-0.107727,-0.72052,-0.011658,0.0,0.0,-2.0,7811.0,-1108.0,-611.0,-294.0,-36.0,-106.0,109.0,-93.0,-279.0,0.989445,-0.13076,-0.061564,15634.0,-2070.0,-1246.0,22.0,1.0,-24.0
2894.0,2779.0,2899.0,3151.0,3039.0,0.684753,-0.107544,-0.720703,-0.011719,0.0,-1.0,-1.0,7852.0,-1060.0,-625.0,-254.0,8.0,-117.0,126.0,-46.0,-245.0,0.989528,-0.130391,-0.061954,15782.0,-1988.0,-1400.0,2.0,-3.0,-10.0
2895.0,2778.0,2897.0,3151.0,3047.0,0.684692,-0.107544,-0.720764,-0.01178,-1.0,-1.0,-1.0,7860.0,-1059.0,-647.0,-246.0,8.0,-138.0,146.0,-49.0,-235.0,0.989537,-0.130288,-0.062124,15766.0,-2168.0,-1412.0,-6.0,-2.0,-7.0
2894.0,2770.0,2902.0,3151.0,3046.0,0.68457,-0.107544,-0.720886,-0.011719,0.0,0.0,-1.0,7859.0,-1121.0,-680.0,-247.0,-53.0,-168.0,166.0,-113.0,-227.0,0.989515,-0.130347,-0.062469,15606.0,-2468.0,-1462.0,13.0,8.0,-9.0
2894.0,2774.0,2903.0,3152.0,3047.0,0.684509,-0.107483,-0.720947,-0.011597,1.0,0.0,-1.0,7836.0,-1127.0,-680.0,-269.0,-58.0,-166.0,164.0,-121.0,-248.0,0.989483,-0.130425,-0.06263,15546.0,-2248.0,-1310.0,27.0,8.0,-10.0
2893.0,2775.0,2903.0,3147.0,3045.0,0.684448,-0.107361,-0.721008,-0.011475,0.0,-1.0,-1.0,7806.0,-1105.0,-672.0,-299.0,-36.0,-157.0,160.0,-102.0,-281.0,0.98945,-0.130419,-0.062778,15582.0,-2208.0,-1330.0,11.0,-1.0,-7.0
2895.0,2775.0,2901.0,3151.0,3039.0,0.684387,-0.1073,-0.72113,-0.011414,0.0,-1.0,-1.0,7790.0,-1107.0,-678.0,-316.0,-38.0,-161.0,164.0,-107.0,-297.0,0.989514,-0.130408,-0.063026,15478.0,-2202.0,-1402.0,16.0,-15.0,-7.0
2894.0,2768.0,2901.0,3151.0,3051.0,0.684082,-0.107056,-0.721436,-0.011169,1.0,-2.0,-1.0,7805.0,-1108.0,-663.0,-300.0,-40.0,-140.0,143.0,-103.0,-282.0,0.989434,-0.130354,-0.063837,15696.0,-2216.0,-1276.0,42.0,-32.0,-12.0
2895.0,2786.0,2899.0,3152.0,3047.0,0.683899,-0.106873,-0.721619,-0.010925,2.0,-2.0,-1.0,7819.0,-1104.0,-670.0,-285.0,-35.0,-143.0,146.0,-97.0,-268.0,0.989364,-0.130412,-0.064318,15762.0,-2136.0,-1414.0,52.0,-30.0,-9.0
2893.0,2777.0,2907.0,3151.0,3034.0,0.683838,-0.106384,-0.721802,-0.010742,1.0,0.0,-1.0,7854.0,-1041.0,-674.0,-251.0,23.0,-145.0,157.0,-35.0,-241.0,0.989476,-0.129992,-0.064566,15640.0,-1980.0,-1486.0,36.0,14.0,-20.0
2893.0,2775.0,2903.0,3153.0,3039.0,0.683838,-0.106262,-0.721802,-0.010742,0.0,1.0,-1.0,7854.0,-1011.0,-671.0,-251.0,52.0,-142.0,159.0,-6.0,-245.0,0.989474,-0.129825,-0.06454,15742.0,-1816.0,-1260.0,20.0,23.0,-11.0
2895.0,2779.0,2899.0,3151.0,3047.0,0.684021,-0.106201,-0.721619,-0.010864,-1.0,1.0,0.0,7845.0,-982.0,-650.0,-261.0,79.0,-125.0,147.0,20.0,-260.0,0.989512,-0.129608,-0.064009,15604.0,-1922.0,-1230.0,-6.0,36.0,7.0
2896.0,2783.0,2899.0,3149.0,3047.0,0.684082,-0.106201,-0.721558,-0.010864,-1.0,0.0,0.0,7829.0,-994.0,-644.0,-277.0,67.0,-121.0,141.0,7.0,-275.0,0.989517,-0.129622,-0.063838,15574.0,-2114.0,-1218.0,-4.0,21.0,12.0
2896.0,2775.0,2903.0,3152.0,3047.0,0.684021,-0.106201,-0.721619,-0.010498,2.0,-1.0,0.0,7801.0,-1051.0,-623.0,-304.0,15.0,-98.0,111.0,-43.0,-296.0,0.989434,-0.130136,-0.064017,15624.0,-2142.0,-1112.0,47.0,-21.0,13.0
2893.0,2770.0,2903.0,3152.0,3039.0,0.683899,-0.106079,-0.721741,-0.010193,2.0,-2.0,0.0,7808.0,-1044.0,-597.0,-296.0,24.0,-69.0,84.0,-28.0,-291.0,0.989358,-0.130382,-0.064341,15620.0,-2056.0,-1072.0,53.0,-27.0,11.0
2891.0,2771.0,2902.0,3151.0,3039.0,0.683655,-0.105896,-0.721985,-0.009705,1.0,-2.0,0.0,7814.0,-1057.0,-600.0,-289.0,14.0,-67.0,80.0,-37.0,-283.0,0.989232,-0.130779,-0.064998,15686.0,-2192.0,-1210.0,39.0,-35.0,21.0
2896.0,2774.0,2898.0,3152.0,3046.0,0.683533,-0.105896,-0.722168,-0.00946,1.0,-2.0,0.0,7834.0,-1088.0,-615.0,-269.0,-14.0,-78.0,86.0,-63.0,-259.0,0.989255,-0.131103,-0.065434,15820.0,-2368.0,-1352.0,33.0,-27.0,13.0
2894.0,2775.0,2896.0,3151.0,3031.0,0.683472,-0.105774,-0.722229,-0.009155,0.0,0.0,-1.0,7865.0,-1110.0,-632.0,-238.0,-33.0,-94.0,97.0,-80.0,-224.0,0.989183,-0.131363,-0.065586,15778.0,-2190.0,-1324.0,15.0,20.0,-9.0
2894.0,2770.0,2899.0,3153.0,3039.0,0.683594,-0.105774,-0.722107,-0.009216,-1.0,1.0,-1.0,7868.0,-1095.0,-633.0,-235.0,-19.0,-98.0,103.0,-66.0,-223.0,0.989205,-0.131302,-0.065241,15734.0,-2102.0,-1236.0,-4.0,42.0,-14.0
2893.0,2769.0,2902.0,3151.0,3031.0,0.683899,-0.105713,-0.721802,-0.009521,-1.0,2.0,-1.0,7852.0,-1074.0,-604.0,-252.0,-2.0,-76.0,85.0,-49.0,-244.0,0.989292,-0.130849,-0.064365,15604.0,-2114.0,-1108.0,-18.0,59.0,-21.0
2896.0,2780.0,2909.0,3151.0,3039.0,0.684082,-0.105713,-0.721619,-0.009644,-1.0,2.0,-1.0,7833.0,-1067.0,-594.0,-271.0,3.0,-70.0,80.0,-45.0,-264.0,0.989332,-0.130715,-0.063847,15532.0,-2044.0,-1128.0,-8.0,49.0,-11.0
2895.0,2779.0,2901.0,3151.0,3047.0,0.684265,-0.105774,-0.721497,-0.009644,0.0,0.0,0.0,7797.0,-1071.0,-555.0,-308.0,0.0,-35.0,47.0,-48.0,-302.0,0.98943,-0.130839,-0.063434,15560.0,-2160.0,-942.0,8.0,5.0,8.0
2895.0,2775.0,2901.0,3152.0,3047.0,0.684265,-0.105774,-0.721497,-0.009521,0.0,-1.0,0.0,7809.0,-1064.0,-534.0,-296.0,9.0,-14.0,27.0,-34.0,-293.0,0.989404,-0.131015,-0.063436,15706.0,-2070.0,-934.0,9.0,-8.0,12.0
2894.0,2773.0,2906.0,3151.0,3045.0,0.684143,-0.105896,-0.721558,-0.00946,-1.0,-1.0,0.0,7823.0,-1089.0,-538.0,-281.0,-13.0,-16.0,25.0,-54.0,-275.0,0.989301,-0.131243,-0.063718,15692.0,-2376.0,-1224.0,-7.0,-18.0,7.0
2895.0,2777.0,2899.0,3151.0,3047.0,0.684021,-0.105957,-0.72168,-0.009338,0.0,-2.0,0.0,7815.0,-1122.0,-564.0,-289.0,-44.0,-39.0,43.0,-89.0,-277.0,0.989267,-0.131475,-0.064077,15546.0,-2428.0,-1282.0,1.0,-23.0,9.0
2896.0,2775.0,2898.0,3151.0,3047.0,0.683716,-0.106018,-0.721985,-0.009155,0.0,-1.0,-1.0,7829.0,-1146.0,-625.0,-274.0,-66.0,-92.0,91.0,-117.0,-256.0,0.989206,-0.131753,-0.064951,15754.0,-2372.0,-1488.0,11.0,-22.0,-10.0
2894.0,2769.0,2896.0,3151.0,3039.0,0.683594,-0.105957,-0.722107,-0.009155,0.0,-1.0,-1.0,7850.0,-1136.0,-651.0,-253.0,-57.0,-116.0,115.0,-109.0,-235.0,0.989196,-0.131641,-0.065281,15820.0,-2192.0,-1480.0,12.0,-9.0,-18.0
2896.0,2778.0,2902.0,3147.0,3047.0,0.683533,-0.105774,-0.722168,-0.009216,0.0,0.0,-1.0,7845.0,-1105.0,-704.0,-258.0,-29.0,-168.0,171.0,-91.0,-240.0,0.989201,-0.131288,-0.065413,15608.0,-2114.0,-1548.0,2.0,16.0,-21.0
2895.0,2775.0,2903.0,3147.0,3047.0,0.683472,-0.105713,-0.722229,-0.009338,-1.0,0.0,-1.0,7825.0,-1098.0,-717.0,-278.0,-24.0,-179.0,184.0,-90.0,-260.0,0.98922,-0.131015,-0.065569,15512.0,-2178.0,-1512.0,-3.0,13.0,-15.0
2895.0,2779.0,2903.0,3151.0,3043.0,0.683289,-0.105713,-0.722412,-0.009277,0.0,-1.0,-1.0,7783.0,-1109.0,-737.0,-320.0,-35.0,-195.0,200.0,-109.0,-299.0,0.989193,-0.131061,-0.066085,15452.0,-2330.0,-1524.0,15.0,-13.0,-12.0
2895.0,2770.0,2903.0,3151.0,3045.0,0.683167,-0.105591,-0.722534,-0.009155,1.0,-2.0,-1.0,7749.0,-1139.0,-742.0,-354.0,-65.0,-198.0,200.0,-144.0,-328.0,0.989156,-0.131042,-0.066405,15272.0,-2472.0,-1508.0,45.0,-26.0,-15.0
2896.0,2779.0,2907.0,3151.0,3045.0,0.682556,-0.104919,-0.723206,-0.00824,5.0,-5.0,-1.0,7673.0,-1215.0,-750.0,-428.0,-139.0,-192.0,186.0,-225.0,-391.0,0.988986,-0.131309,-0.068084,15178.0,-2652.0,-1478.0,136.0,-95.0,-22.0
2895.0,2777.0,2895.0,3151.0,3045.0,0.682129,-0.104309,-0.723755,-0.007446,8.0,-7.0,-1.0,7670.0,-1249.0,-749.0,-431.0,-171.0,-180.0,170.0,-255.0,-391.0,0.988942,-0.131526,-0.069346,15390.0,-2672.0,-1464.0,188.0,-138.0,-22.0
2896.0,2781.0,2907.0,3147.0,3043.0,0.680908,-0.102661,-0.725098,-0.005676,8.0,-8.0,-2.0,7714.0,-1152.0,-713.0,-384.0,-74.0,-117.0,123.0,-143.0,-361.0,0.988615,-0.131574,-0.072638,15610.0,-1658.0,-1254.0,206.0,-182.0,-25.0
2891.0,2771.0,2899.0,3147.0,3051.0,0.680298,-0.101929,-0.725769,-0.005188,5.0,-8.0,-1.0,7775.0,-1028.0,-661.0,-323.0,46.0,-52.0,75.0,-8.0,-321.0,0.988536,-0.131153,-0.074298,15954.0,-1290.0,-1016.0,132.0,-177.0,-22.0
2891.0,2774.0,2899.0,3151.0,3047.0,0.679443,-0.101379,-0.726685,-0.005188,-1.0,-4.0,-1.0,7927.0,-935.0,-624.0,-171.0,131.0,4.0,25.0,104.0,-186.0,0.988534,-0.130223,-0.076678,16334.0,-1848.0,-1262.0,-22.0,-90.0,-10.0
2895.0,2777.0,2899.0,3151.0,3047.0,0.67926,-0.101501,-0.726868,-0.005371,-3.0,-2.0,0.0,7983.0,-946.0,-627.0,-115.0,119.0,5.0,20.0,101.0,-129.0,0.988555,-0.130084,-0.077216,16214.0,-1958.0,-1294.0,-54.0,-23.0,0.0
2895.0,2778.0,2903.0,3149.0,3047.0,0.679382,-0.10199,-0.726685,-0.006042,-4.0,2.0,-1.0,7959.0,-979.0,-648.0,-139.0,84.0,-18.0,38.0,60.0,-146.0,0.988626,-0.129798,-0.076876,15718.0,-2156.0,-1364.0,-76.0,50.0,-10.0
2891.0,2779.0,2898.0,3152.0,3047.0,0.679504,-0.102173,-0.726501,-0.006348,-3.0,2.0,-1.0,7908.0,-1027.0,-666.0,-190.0,34.0,-39.0,54.0,0.0,-189.0,0.988619,-0.129631,-0.076477,15470.0,-2326.0,-1400.0,-53.0,55.0,-21.0
2895.0,2771.0,2905.0,3151.0,3039.0,0.679626,-0.102112,-0.726379,-0.006531,0.0,0.0,-1.0,7827.0,-1006.0,-644.0,-272.0,53.0,-20.0,43.0,10.0,-274.0,0.988667,-0.129308,-0.076119,15576.0,-1696.0,-1134.0,12.0,7.0,-19.0
2894.0,2775.0,2902.0,3150.0,3041.0,0.679688,-0.10199,-0.726379,-0.006653,0.0,-1.0,-1.0,7840.0,-936.0,-617.0,-260.0,120.0,5.0,28.0,82.0,-272.0,0.988779,-0.128977,-0.07601,15800.0,-1408.0,-1056.0,1.0,-4.0,-5.0
2895.0,2774.0,2898.0,3153.0,3043.0,0.67981,-0.102051,-0.726257,-0.007141,-3.0,1.0,0.0,7914.0,-864.0,-566.0,-186.0,187.0,53.0,-12.0,165.0,-211.0,0.988891,-0.128378,-0.075672,15908.0,-1694.0,-1114.0,-52.0,26.0,11.0
2895.0,2779.0,2898.0,3152.0,3051.0,0.679871,-0.102295,-0.726135,-0.007324,-3.0,1.0,1.0,7922.0,-864.0,-563.0,-178.0,188.0,55.0,-14.0,167.0,-204.0,0.988854,-0.128458,-0.075459,15920.0,-1684.0,-1088.0,-53.0,25.0,26.0
2895.0,2778.0,2903.0,3151.0,3047.0,0.679993,-0.102844,-0.725891,-0.007568,-3.0,0.0,1.0,7939.0,-888.0,-584.0,-160.0,167.0,30.0,5.0,145.0,-181.0,0.988758,-0.128879,-0.075048,15910.0,-1952.0,-1298.0,-49.0,21.0,45.0
2896.0,2771.0,2914.0,3157.0,3047.0,0.680054,-0.10321,-0.72583,-0.007568,-2.0,1.0,2.0,7937.0,-943.0,-618.0,-162.0,116.0,-3.0,30.0,90.0,-174.0,0.988769,-0.129391,-0.074951,15860.0,-2254.0,-1448.0,-39.0,23.0,50.0
2891.0,2775.0,2902.0,3147.0,3039.0,0.680237,-0.103699,-0.725586,-0.007385,-1.0,2.0,1.0,7895.0,-1033.0,-689.0,-204.0,34.0,-79.0,94.0,-7.0,-200.0,0.988672,-0.130362,-0.074452,15512.0,-2290.0,-1538.0,-6.0,53.0,35.0
2895.0,2771.0,2901.0,3151.0,3046.0,0.680359,-0.103882,-0.725464,-0.007263,0.0,2.0,1.0,7830.0,-1066.0,-712.0,-269.0,5.0,-104.0,117.0,-48.0,-258.0,0.988661,-0.130816,-0.074148,15250.0,-2336.0,-1506.0,6.0,46.0,34.0
2886.0,2771.0,2907.0,3152.0,3039.0,0.68042,-0.104187,-0.725342,-0.006897,-1.0,-1.0,1.0,7755.0,-1076.0,-691.0,-342.0,3.0,-85.0,102.0,-58.0,-332.0,0.988511,-0.131777,-0.073957,15468.0,-2172.0,-1270.0,0.0,0.0,36.0
2896.0,2773.0,2896.0,3151.0,3049.0,0.680359,-0.10437,-0.725403,-0.006775,-1.0,-1.0,1.0,7763.0,-1086.0,-680.0,-334.0,-3.0,-72.0,88.0,-61.0,-324.0,0.988483,-0.132189,-0.074168,15614.0,-2246.0,-1302.0,-14.0,-8.0,33.0
2896.0,2779.0,2899.0,3151.0,3043.0,0.680237,-0.104675,-0.725403,-0.006592,-1.0,-1.0,0.0,7797.0,-1130.0,-677.0,-298.0,-41.0,-67.0,75.0,-92.0,-284.0,0.988271,-0.132845,-0.074401,15654.0,-2338.0,-1374.0,0.0,-2.0,15.0
2897.0,2775.0,2902.0,3149.0,3039.0,0.680237,-0.104736,-0.725464,-0.00647,0.0,0.0,0.0,7809.0,-1129.0,-677.0,-287.0,-38.0,-66.0,74.0,-88.0,-273.0,0.98833,-0.133104,-0.074504,15680.0,-2242.0,-1360.0,9.0,2.0,7.0
2895.0,2771.0,2897.0,3151.0,3039.0,0.680176,-0.104736,-0.725464,-0.006348,0.0,0.0,0.0,7833.0,-1100.0,-682.0,-262.0,-8.0,-70.0,81.0,-55.0,-252.0,0.988216,-0.133268,-0.074588,15812.0,-2056.0,-1340.0,9.0,6.0,2.0
2895.0,2773.0,2901.0,3151.0,3047.0,0.680237,-0.104736,-0.725464,-0.006348,-1.0,0.0,0.0,7848.0,-1087.0,-686.0,-248.0,4.0,-75.0,87.0,-43.0,-240.0,0.988304,-0.133281,-0.074505,15770.0,-2112.0,-1402.0,0.0,19.0,3.0
2893.0,2775.0,2903.0,3151.0,3043.0,0.68042,-0.104858,-0.725281,-0.00647,-2.0,1.0,0.0,7834.0,-1046.0,-670.0,-262.0,46.0,-63.0,83.0,-2.0,-260.0,0.988348,-0.133311,-0.074014,15490.0,-1966.0,-1306.0,-31.0,39.0,16.0
2898.0,2781.0,2898.0,3152.0,3049.0,0.680481,-0.105103,-0.725159,-0.006592,-3.0,1.0,1.0,7801.0,-1039.0,-663.0,-295.0,54.0,-58.0,81.0,1.0,-294.0,0.988299,-0.13348,-0.073804,15404.0,-2084.0,-1292.0,-52.0,29.0,24.0
2896.0,2781.0,2898.0,3151.0,3047.0,0.68042,-0.105774,-0.725159,-0.006775,-3.0,-1.0,1.0,7775.0,-1089.0,-660.0,-320.0,9.0,-53.0,70.0,-45.0,-313.0,0.988258,-0.134116,-0.074026,15594.0,-2440.0,-1332.0,-47.0,-8.0,27.0
2897.0,2778.0,2906.0,3151.0,3039.0,0.680298,-0.106018,-0.72522,-0.006775,-2.0,-1.0,1.0,7780.0,-1110.0,-670.0,-315.0,-8.0,-61.0,75.0,-62.0,-305.0,0.988167,-0.134421,-0.074332,15566.0,-2288.0,-1396.0,-24.0,-15.0,25.0
2893.0,2775.0,2902.0,3154.0,3039.0,0.679993,-0.106323,-0.725403,-0.006592,-1.0,-2.0,0.0,7807.0,-1107.0,-668.0,-286.0,0.0,-52.0,66.0,-49.0,-278.0,0.987939,-0.135035,-0.07508,15812.0,-2232.0,-1336.0,-8.0,-32.0,18.0
2893.0,2782.0,2899.0,3151.0,3046.0,0.679871,-0.106445,-0.725525,-0.006531,0.0,-1.0,0.0,7831.0,-1109.0,-671.0,-262.0,0.0,-52.0,65.0,-46.0,-254.0,0.987916,-0.135262,-0.07545,15750.0,-2212.0,-1380.0,1.0,-20.0,18.0
2893.0,2774.0,2902.0,3155.0,3043.0,0.67981,-0.106567,-0.725586,-0.006531,-2.0,-1.0,0.0,7831.0,-1029.0,-661.0,-261.0,80.0,-41.0,67.0,33.0,-265.0,0.987912,-0.135414,-0.075648,15604.0,-1828.0,-1298.0,-26.0,-1.0,22.0
2897.0,2779.0,2903.0,3152.0,3043.0,0.679749,-0.106812,-0.725647,-0.006653,-3.0,-1.0,1.0,7839.0,-1012.0,-658.0,-254.0,98.0,-36.0,65.0,53.0,-261.0,0.987936,-0.135555,-0.07587,15754.0,-1974.0,-1252.0,-62.0,-4.0,35.0
2896.0,2775.0,2903.0,3171.0,3047.0,0.679626,-0.107666,-0.725586,-0.006897,-3.0,-1.0,1.0,7816.0,-1072.0,-670.0,-275.0,44.0,-46.0,67.0,-4.0,-274.0,0.98774,-0.136337,-0.076127,15468.0,-2312.0,-1338.0,-57.0,0.0,38.0
2897.0,2773.0,2899.0,3150.0,3038.0,0.679504,-0.107971,-0.725647,-0.006897,-2.0,-1.0,1.0,7789.0,-1087.0,-670.0,-301.0,33.0,-43.0,63.0,-18.0,-298.0,0.98765,-0.136724,-0.076448,15432.0,-2266.0,-1300.0,-41.0,-17.0,35.0
2895.0,2779.0,2902.0,3143.0,3043.0,0.679199,-0.108398,-0.725891,-0.006714,-1.0,-2.0,1.0,7788.0,-1124.0,-680.0,-301.0,2.0,-46.0,61.0,-49.0,-293.0,0.987505,-0.137501,-0.077311,15680.0,-2304.0,-1372.0,-4.0,-36.0,26.0
2893.0,2775.0,2894.0,3149.0,3047.0,0.679077,-0.108459,-0.726013,-0.006592,0.0,-2.0,0.0,7804.0,-1123.0,-678.0,-285.0,5.0,-41.0,56.0,-43.0,-278.0,0.987468,-0.137733,-0.077669,15688.0,-2224.0,-1334.0,10.0,-26.0,21.0
2896.0,2775.0,2898.0,3153.0,3046.0,0.679016,-0.108582,-0.726013,-0.006409,-1.0,0.0,1.0,7809.0,-1071.0,-629.0,-279.0,60.0,8.0,17.0,18.0,-284.0,0.987341,-0.138152,-0.077781,15586.0,-1904.0,-1008.0,-16.0,1.0,28.0
2896.0,2775.0,2903.0,3149.0,3043.0,0.679016,-0.108887,-0.725952,-0.006531,-4.0,0.0,1.0,7808.0,-1030.0,-576.0,-279.0,103.0,60.0,-26.0,68.0,-294.0,0.987289,-0.13839,-0.077757,15638.0,-1866.0,-878.0,-77.0,6.0,45.0
2895.0,2777.0,2902.0,3151.0,3050.0,0.679016,-0.110535,-0.725708,-0.007446,-9.0,0.0,2.0,7840.0,-1085.0,-507.0,-246.0,56.0,129.0,-104.0,38.0,-260.0,0.987181,-0.139302,-0.077752,15918.0,-2578.0,-936.0,-203.0,5.0,67.0
2896.0,2782.0,2905.0,3151.0,3043.0,0.679016,-0.111572,-0.725586,-0.007935,-10.0,0.0,2.0,7871.0,-1157.0,-498.0,-215.0,-10.0,139.0,-127.0,-19.0,-221.0,0.98714,-0.140004,-0.077797,15894.0,-2710.0,-964.0,-214.0,12.0,66.0
2896.0,2773.0,2975.0,3147.0,3043.0,0.678955,-0.113647,-0.725281,-0.00885,-8.0,0.0,2.0,7915.0,-1244.0,-536.0,-169.0,-84.0,102.0,-106.0,-90.0,-162.0,0.986878,-0.141485,-0.07789,15928.0,-2504.0,-1226.0,-179.0,21.0,64.0
2891.0,2774.0,2902.0,3151.0,3043.0,0.678955,-0.114502,-0.725098,-0.009338,-8.0,1.0,2.0,7924.0,-1189.0,-573.0,-159.0,-26.0,64.0,-59.0,-38.0,-158.0,0.986756,-0.141941,-0.07781,15914.0,-1992.0,-1346.0,-167.0,32.0,50.0
2893.0,2775.0,2901.0,3153.0,3047.0,0.679138,-0.115845,-0.724731,-0.01062,-8.0,3.0,1.0,7971.0,-1067.0,-640.0,-113.0,95.0,-6.0,28.0,74.0,-124.0,0.986846,-0.141956,-0.077314,16072.0,-1816.0,-1470.0,-175.0,76.0,28.0
2896.0,2775.0,2898.0,3151.0,3051.0,0.679382,-0.116577,-0.724426,-0.011292,-8.0,4.0,2.0,7960.0,-1023.0,-675.0,-125.0,140.0,-46.0,77.0,108.0,-139.0,0.986957,-0.142041,-0.076696,15792.0,-1794.0,-1570.0,-169.0,101.0,47.0
2891.0,2775.0,2903.0,3153.0,3039.0,0.679749,-0.118164,-0.723755,-0.012329,-8.0,3.0,3.0,7860.0,-959.0,-735.0,-224.0,210.0,-115.0,162.0,148.0,-242.0,0.986856,-0.142797,-0.075574,15316.0,-1778.0,-1620.0,-162.0,79.0,80.0
2896.0,2779.0,2899.0,3151.0,3043.0,0.679749,-0.119019,-0.723633,-0.012695,-7.0,1.0,3.0,7780.0,-958.0,-755.0,-303.0,216.0,-135.0,187.0,138.0,-319.0,0.986799,-0.143432,-0.075591,15092.0,-1940.0,-1616.0,-156.0,36.0,87.0
2895.0,2774.0,2899.0,3149.0,3015.0,0.67926,-0.120789,-0.723755,-0.013123,-6.0,-2.0,4.0,7733.0,-1031.0,-784.0,-347.0,157.0,-154.0,197.0,69.0,-353.0,0.986406,-0.145099,-0.076844,15518.0,-2386.0,-1668.0,-128.0,-44.0,104.0
2895.0,2771.0,2899.0,3152.0,3047.0,0.678955,-0.121582,-0.723938,-0.013123,-5.0,-3.0,4.0,7746.0,-1088.0,-807.0,-333.0,108.0,-170.0,203.0,20.0,-330.0,0.986234,-0.146098,-0.077716,15556.0,-2504.0,-1752.0,-97.0,-46.0,97.0
2896.0,2778.0,2902.0,3151.0,3047.0,0.678528,-0.122742,-0.724182,-0.012939,-3.0,-1.0,2.0,7774.0,-1171.0,-837.0,-302.0,39.0,-190.0,208.0,-45.0,-288.0,0.985932,-0.147826,-0.078938,15652.0,-2530.0,-1788.0,-47.0,-5.0,64.0
2897.0,2771.0,2903.0,3155.0,3043.0,0.678467,-0.123169,-0.724121,-0.012817,-2.0,1.0,2.0,7763.0,-1202.0,-858.0,-312.0,15.0,-210.0,223.0,-74.0,-293.0,0.985742,-0.148569,-0.07904,15432.0,-2622.0,-1854.0,-43.0,24.0,63.0
2891.0,2771.0,2902.0,3151.0,3039.0,0.678467,-0.124146,-0.723938,-0.012695,-3.0,1.0,1.0,7642.0,-1359.0,-935.0,-431.0,-129.0,-287.0,276.0,-248.0,-382.0,0.985488,-0.150076,-0.07902,14820.0,-3428.0,-2144.0,-48.0,42.0,43.0
2893.0,2778.0,2903.0,3153.0,3046.0,0.678406,-0.124573,-0.723938,-0.012512,-1.0,1.0,1.0,7542.0,-1506.0,-988.0,-530.0,-269.0,-339.0,304.0,-410.0,-454.0,0.985365,-0.150906,-0.079214,14460.0,-3922.0,-2316.0,-16.0,29.0,24.0
2896.0,2777.0,2909.0,3151.0,3043.0,0.677917,-0.124695,-0.724426,-0.011414,4.0,-3.0,-2.0,7344.0,-1791.0,-1123.0,-725.0,-541.0,-462.0,382.0,-729.0,-594.0,0.985049,-0.152529,-0.08064,14140.0,-4394.0,-2654.0,110.0,-48.0,-40.0
2893.0,2783.0,2903.0,3151.0,3043.0,0.677429,-0.124268,-0.724915,-0.010559,8.0,-4.0,-4.0,7255.0,-1950.0,-1216.0,-812.0,-696.0,-544.0,439.0,-908.0,-648.0,0.984781,-0.153056,-0.081922,13940.0,-4932.0,-3046.0,189.0,-89.0,-79.0
2894.0,2771.0,2907.0,3151.0,3045.0,0.675842,-0.12207,-0.726807,-0.007385,20.0,-10.0,-7.0,6857.0,-2508.0,-1568.0,-1205.0,-1244.0,-860.0,678.0,-1559.0,-919.0,0.984216,-0.154265,-0.086332,12070.0,-7318.0,-4562.0,462.0,-219.0,-154.0
2891.0,2771.0,2902.0,3151.0,3047.0,0.672424,-0.116821,-0.730896,0.000427,49.0,-22.0,-14.0,6074.0,-3846.0,-2354.0,-1977.0,-2553.0,-1570.0,1244.0,-3067.0,-1390.0,0.982845,-0.157732,-0.095702,9496.0,-12710.0,-7544.0,1126.0,-490.0,-303.0
2895.0,2758.0,2901.0,3153.0,3039.0,0.669678,-0.111816,-0.734192,0.007446,73.0,-31.0,-19.0,5601.0,-4708.0,-2828.0,-2440.0,-3391.0,-1984.0,1621.0,-4006.0,-1645.0,0.981679,-0.160696,-0.103017,8308.0,-14542.0,-8450.0,1680.0,-688.0,-417.0
2896.0,2775.0,2899.0,3151.0,3046.0,0.661743,-0.094177,-0.743286,0.026917,116.0,-54.0,-37.0,4603.0,-5565.0,-3431.0,-3414.0,-4216.0,-2425.0,2321.0,-4939.0,-2349.0,0.978659,-0.164656,-0.122715,6530.0,-11536.0,-7970.0,2659.0,-1222.0,-833.0
2896.0,2782.0,2899.0,3103.0,3051.0,0.650391,-0.065796,-0.755493,0.043457,121.0,-69.0,-79.0,4264.0,-4826.0,-3649.0,-3739.0,-3586.0,-2418.0,2779.0,-4172.0,-2747.0,0.977013,-0.151249,-0.150203,8884.0,-6628.0,-8424.0,2782.0,-1561.0,-1807.0
2896.0,2771.0,2903.0,3151.0,3047.0,0.64447,-0.047241,-0.761658,0.047974,122.0,-63.0,-110.0,4629.0,-4403.0,-3969.0,-3376.0,-3305.0,-2619.0,3106.0,-3694.0,-2424.0,0.977199,-0.13397,-0.164711,12018.0,-6652.0,-10062.0,2814.0,-1434.0,-2509.0
2894.0,2775.0,2899.0,3151.0,3043.0,0.636841,0.001648,-0.769165,0.053528,161.0,-19.0,-172.0,5686.0,-4059.0,-5008.0,-2340.0,-3401.0,-3507.0,4117.0,-3239.0,-1377.0,0.979848,-0.080245,-0.183186,13872.0,-6840.0,-13520.0,3693.0,-428.0,-3929.0
2891.0,2771.0,2899.0,3151.0,3043.0,0.63501,0.066101,-0.767456,0.058411,189.0,18.0,-208.0,6000.0,-2345.0,-5799.0,-2047.0,-2298.0,-4269.0,4909.0,-1465.0,-1200.0,0.982406,-0.005706,-0.186709,12496.0,3886.0,-12928.0,4347.0,432.0,-4748.0
2895.0,2775.0,2903.0,3146.0,3039.0,0.635681,0.100464,-0.763184,0.057495,171.0,31.0,-215.0,6199.0,-643.0,-5672.0,-1844.0,-970.0,-4155.0,4519.0,99.0,-1079.0,0.981835,0.039967,-0.185146,13886.0,9248.0,-9834.0,3920.0,724.0,-4921.0
2893.0,2773.0,2903.0,3154.0,3047.0,0.6427,0.162231,-0.747253,0.046753,103.0,68.0,-202.0,6573.0,2766.0,-4846.0,-1419.0,1630.0,-3457.0,2946.0,2758.0,-572.0,0.975689,0.13866,-0.169457,13740.0,15508.0,-7124.0,2362.0,1565.0,-4625.0
2896.0,2778.0,2898.0,3152.0,3043.0,0.655762,0.2052,-0.726074,0.025024,8.0,84.0,-159.0,6662.0,5841.0,-3920.0,-1223.0,3934.0,-2784.0,1389.0,4772.0,124.0,0.962533,0.232786,-0.138641,13284.0,19420.0,-5112.0,195.0,1942.0,-3622.0
2895.0,2773.0,2901.0,3151.0,3051.0,0.663879,0.217285,-0.715454,0.011475,-35.0,86.0,-126.0,6664.0,6788.0,-3506.0,-1158.0,4559.0,-2537.0,938.0,5243.0,434.0,0.954937,0.272083,-0.11822,13492.0,18484.0,-4462.0,-787.0,1971.0,-2882.0
2893.0,2773.0,2909.0,3151.0,3044.0,0.681763,0.224976,-0.695984,-0.011536,-66.0,88.0,-55.0,7042.0,7117.0,-2334.0,-689.0,4472.0,-1759.0,327.0,4755.0,916.0,0.943801,0.322817,-0.070074,15380.0,13682.0,-832.0,-1498.0,2034.0,-1253.0
2893.0,2779.0,2900.0,3153.0,3039.0,0.699951,0.223267,-0.678101,-0.021484,-36.0,89.0,-10.0,7255.0,6964.0,-943.0,-442.0,4164.0,-785.0,-418.0,4114.0,1022.0,0.939681,0.341689,-0.019275,14776.0,13378.0,2390.0,-810.0,2049.0,-218.0
2895.0,2775.0,2899.0,3152.0,3051.0,0.707947,0.223206,-0.669678,-0.022156,-13.0,84.0,-1.0,7275.0,6998.0,-209.0,-411.0,4165.0,-236.0,-930.0,3949.0,1053.0,0.938302,0.34571,0.003391,14658.0,14506.0,4106.0,-278.0,1935.0,-2.0
2895.0,2775.0,2906.0,3155.0,3039.0,0.720825,0.227539,-0.654419,-0.018555,24.0,66.0,5.0,7291.0,7405.0,1322.0,-368.0,4518.0,995.0,-2224.0,3864.0,1287.0,0.934999,0.352317,0.039895,14534.0,16156.0,6878.0,570.0,1519.0,115.0
2895.0,2782.0,2907.0,3151.0,3045.0,0.725403,0.231384,-0.648071,-0.015381,36.0,53.0,6.0,7322.0,7561.0,1965.0,-322.0,4647.0,1531.0,-2791.0,3767.0,1433.0,0.933108,0.355629,0.052911,14978.0,15906.0,7684.0,835.0,1221.0,155.0
2897.0,2774.0,2903.0,3153.0,3047.0,0.731079,0.239441,-0.638855,-0.006653,47.0,29.0,19.0,7624.0,7635.0,3051.0,-2.0,4697.0,2485.0,-3720.0,3309.0,1854.0,0.930921,0.358601,0.069053,16414.0,15524.0,9310.0,1079.0,674.0,450.0
2896.0,2779.0,2907.0,3151.0,3043.0,0.73291,0.242493,-0.63562,-0.001343,46.0,22.0,27.0,7849.0,7625.0,3513.0,221.0,4699.0,2903.0,-4103.0,3050.0,2099.0,0.931054,0.357158,0.074343,16954.0,15072.0,9410.0,1059.0,524.0,637.0
2897.0,2779.0,2901.0,3152.0,3043.0,0.735718,0.243469,-0.631958,0.009766,24.0,10.0,49.0,8084.0,7066.0,4000.0,427.0,4232.0,3322.0,-4350.0,2373.0,2137.0,0.934641,0.345906,0.082728,16582.0,11464.0,8924.0,568.0,251.0,1132.0
2894.0,2774.0,2897.0,3153.0,3039.0,0.736816,0.240967,-0.63147,0.015747,15.0,6.0,58.0,8154.0,6469.0,4035.0,468.0,3722.0,3327.0,-4195.0,1908.0,1973.0,0.938144,0.335209,0.086327,16742.0,9078.0,8106.0,356.0,153.0,1344.0
2893.0,2775.0,2905.0,3151.0,3043.0,0.738525,0.232849,-0.63208,0.028687,9.0,4.0,63.0,8096.0,4858.0,3752.0,338.0,2337.0,2994.0,-3474.0,856.0,1316.0,0.946974,0.307666,0.092499,15244.0,4564.0,6044.0,225.0,103.0,1463.0
2895.0,2769.0,2898.0,3151.0,3051.0,0.738831,0.228638,-0.632935,0.035217,10.0,0.0,61.0,7871.0,4049.0,3473.0,77.0,1646.0,2701.0,-3029.0,418.0,810.0,0.951367,0.293269,0.09423,14326.0,3316.0,5254.0,236.0,11.0,1398.0
2893.0,2775.0,2899.0,3153.0,3043.0,0.737915,0.221252,-0.635864,0.046997,11.0,-9.0,49.0,7523.0,2556.0,2882.0,-334.0,370.0,2116.0,-2133.0,-414.0,-23.0,0.959224,0.266764,0.093451,14426.0,808.0,3928.0,259.0,-186.0,1136.0
2895.0,2771.0,2903.0,3151.0,3047.0,0.737,0.218323,-0.637512,0.052307,13.0,-9.0,42.0,7480.0,1914.0,2586.0,-405.0,-175.0,1833.0,-1691.0,-787.0,-266.0,0.962532,0.255115,0.091818,14784.0,158.0,3438.0,311.0,-189.0,978.0
2891.0,2778.0,2899.0,3154.0,3043.0,0.735413,0.214539,-0.639771,0.061462,14.0,-4.0,25.0,7298.0,894.0,2012.0,-626.0,-1046.0,1280.0,-897.0,-1331.0,-739.0,0.967363,0.236905,0.089276,13562.0,-1348.0,2360.0,341.0,-72.0,578.0
2895.0,2774.0,2896.0,3152.0,3039.0,0.734802,0.213806,-0.640381,0.064941,16.0,-3.0,13.0,7096.0,347.0,1784.0,-841.0,-1545.0,1060.0,-541.0,-1661.0,-1078.0,0.968876,0.231036,0.088351,12990.0,-2394.0,2312.0,383.0,-56.0,317.0
2895.0,2781.0,2903.0,3151.0,3039.0,0.733887,0.215149,-0.640625,0.068787,14.0,-2.0,-10.0,6893.0,-235.0,1443.0,-1052.0,-2099.0,733.0,-55.0,-1997.0,-1434.0,0.969891,0.227657,0.086632,13606.0,-1642.0,1898.0,323.0,-24.0,-208.0
2891.0,2773.0,2899.0,3151.0,3039.0,0.733826,0.216309,-0.640259,0.069214,9.0,1.0,-15.0,6920.0,-317.0,1283.0,-1023.0,-2191.0,573.0,133.0,-2018.0,-1443.0,0.96962,0.228836,0.08657,14092.0,-850.0,1580.0,216.0,32.0,-325.0
2891.0,2775.0,2895.0,3151.0,3039.0,0.734558,0.217407,-0.639099,0.06842,-5.0,5.0,-10.0,6994.0,148.0,974.0,-941.0,-1752.0,248.0,274.0,-1503.0,-1295.0,0.968661,0.231942,0.088543,14128.0,2602.0,1088.0,-96.0,120.0,-211.0
2893.0,2775.0,2899.0,3151.0,3046.0,0.735291,0.216675,-0.638672,0.067261,-15.0,5.0,-5.0,7009.0,578.0,828.0,-923.0,-1328.0,88.0,257.0,-1062.0,-1194.0,0.968366,0.232723,0.090326,14124.0,3742.0,802.0,-325.0,115.0,-101.0
2895.0,2779.0,2906.0,3151.0,3045.0,0.737061,0.212585,-0.638367,0.063354,-29.0,4.0,1.0,7194.0,1284.0,639.0,-735.0,-620.0,-135.0,219.0,-374.0,-868.0,0.967966,0.23249,0.094567,15102.0,4110.0,760.0,-648.0,94.0,24.0
2896.0,2775.0,2903.0,3151.0,3047.0,0.737976,0.209961,-0.638428,0.06134,-29.0,3.0,2.0,7335.0,1454.0,551.0,-595.0,-443.0,-241.0,274.0,-201.0,-701.0,0.968047,0.23157,0.096698,15602.0,3790.0,634.0,-646.0,91.0,55.0
2896.0,2779.0,2898.0,3147.0,3043.0,0.739563,0.20575,-0.638184,0.058655,-16.0,6.0,1.0,7695.0,1625.0,483.0,-235.0,-254.0,-342.0,361.0,-59.0,-320.0,0.96809,0.229464,0.100783,16418.0,3578.0,868.0,-365.0,149.0,31.0
2895.0,2779.0,2907.0,3155.0,3046.0,0.740234,0.204773,-0.637756,0.058167,-8.0,7.0,0.0,7803.0,1681.0,467.0,-126.0,-194.0,-374.0,388.0,-13.0,-204.0,0.968,0.228968,0.102665,16122.0,3756.0,834.0,-178.0,181.0,13.0
2893.0,2783.0,2897.0,3149.0,3039.0,0.74115,0.204895,-0.636658,0.058411,3.0,5.0,-1.0,7775.0,1884.0,479.0,-152.0,5.0,-384.0,323.0,176.0,-186.0,0.967654,0.229341,0.1054,15110.0,4432.0,1024.0,85.0,135.0,-10.0
2891.0,2771.0,2901.0,3153.0,3043.0,0.74115,0.205566,-0.636353,0.058777,5.0,2.0,0.0,7706.0,1988.0,512.0,-219.0,104.0,-352.0,247.0,266.0,-225.0,0.96743,0.229905,0.105556,15030.0,4562.0,1262.0,132.0,49.0,6.0
2895.0,2773.0,2899.0,3151.0,3045.0,0.740662,0.206543,-0.636536,0.059448,3.0,-3.0,2.0,7653.0,2122.0,582.0,-272.0,235.0,-272.0,117.0,364.0,-237.0,0.967472,0.230275,0.104276,15364.0,4554.0,1430.0,72.0,-46.0,59.0
2895.0,2779.0,2901.0,3150.0,3047.0,0.740479,0.206482,-0.63678,0.05957,-2.0,-2.0,3.0,7682.0,2150.0,625.0,-244.0,266.0,-224.0,67.0,369.0,-198.0,0.967644,0.229925,0.103734,15528.0,4362.0,1494.0,-27.0,-35.0,85.0
2893.0,2779.0,2901.0,3147.0,3053.0,0.740662,0.204895,-0.637085,0.059448,-7.0,1.0,3.0,7653.0,1925.0,635.0,-277.0,59.0,-219.0,130.0,184.0,-277.0,0.96809,0.227769,0.104254,15110.0,2910.0,1202.0,-152.0,30.0,89.0
2894.0,2775.0,2887.0,3151.0,3046.0,0.740845,0.204041,-0.637146,0.059387,-6.0,2.0,2.0,7620.0,1769.0,622.0,-312.0,-87.0,-236.0,190.0,63.0,-346.0,0.968287,0.226648,0.10479,15026.0,2598.0,1144.0,-131.0,53.0,65.0
2894.0,2771.0,2902.0,3152.0,3043.0,0.741394,0.203003,-0.636841,0.05957,-2.0,4.0,0.0,7566.0,1606.0,597.0,-367.0,-238.0,-274.0,267.0,-50.0,-438.0,0.968486,0.225137,0.106437,15034.0,3062.0,1136.0,-39.0,98.0,10.0
2896.0,2781.0,2907.0,3153.0,3047.0,0.741699,0.20282,-0.636475,0.059692,-1.0,4.0,-1.0,7538.0,1618.0,603.0,-394.0,-224.0,-277.0,260.0,-32.0,-461.0,0.968359,0.224877,0.107445,14878.0,3402.0,1268.0,-21.0,113.0,-1.0
2896.0,2775.0,2902.0,3151.0,3049.0,0.742371,0.202515,-0.635803,0.05957,-3.0,3.0,0.0,7493.0,1760.0,661.0,-437.0,-82.0,-235.0,163.0,87.0,-467.0,0.968131,0.224932,0.109405,14880.0,4072.0,1562.0,-55.0,88.0,11.0
2895.0,2779.0,2903.0,3151.0,3045.0,0.742676,0.202271,-0.635559,0.059387,-4.0,2.0,0.0,7507.0,1842.0,714.0,-423.0,0.0,-189.0,95.0,142.0,-430.0,0.968053,0.224955,0.110245,15154.0,4158.0,1772.0,-82.0,63.0,21.0
2891.0,2775.0,2899.0,3153.0,3047.0,0.743286,0.201355,-0.635193,0.058899,-5.0,2.0,1.0,7587.0,1950.0,838.0,-342.0,110.0,-78.0,-29.0,187.0,-315.0,0.967979,0.224504,0.11193,15360.0,4176.0,2028.0,-107.0,56.0,39.0
2890.0,2775.0,2903.0,3151.0,3047.0,0.743652,0.200867,-0.634949,0.058655,-6.0,2.0,1.0,7625.0,1979.0,876.0,-304.0,141.0,-49.0,-59.0,197.0,-268.0,0.967926,0.224264,0.112952,15500.0,4086.0,1966.0,-116.0,63.0,44.0
2895.0,2779.0,2907.0,3153.0,3047.0,0.744446,0.199768,-0.63446,0.058289,-5.0,3.0,1.0,7677.0,1922.0,916.0,-252.0,91.0,-27.0,-53.0,135.0,-226.0,0.967931,0.223469,0.11515,15348.0,3454.0,1924.0,-96.0,84.0,35.0
2887.0,2771.0,2897.0,3153.0,3039.0,0.744751,0.199341,-0.634155,0.058289,-3.0,3.0,0.0,7647.0,1857.0,900.0,-281.0,30.0,-51.0,-16.0,92.0,-271.0,0.967814,0.222991,0.116162,15048.0,3332.0,1670.0,-48.0,84.0,22.0
2895.0,2779.0,2907.0,3153.0,3047.0,0.745056,0.199219,-0.633789,0.058533,0.0,1.0,0.0,7552.0,1801.0,860.0,-375.0,-23.0,-99.0,27.0,77.0,-379.0,0.967739,0.222664,0.117158,14798.0,3662.0,1632.0,12.0,31.0,9.0
2891.0,2779.0,2906.0,3152.0,3047.0,0.745056,0.19928,-0.633789,0.058472,-1.0,-1.0,0.0,7520.0,1840.0,853.0,-407.0,14.0,-106.0,15.0,119.0,-403.0,0.967721,0.222832,0.117127,14924.0,3930.0,1682.0,-10.0,-1.0,4.0
2891.0,2775.0,2903.0,3153.0,3047.0,0.745056,0.199158,-0.633911,0.058289,-3.0,-1.0,0.0,7514.0,1849.0,848.0,-414.0,23.0,-110.0,15.0,130.0,-408.0,0.967816,0.222868,0.116999,15018.0,3678.0,1642.0,-46.0,-19.0,9.0
2894.0,2779.0,2901.0,3151.0,3045.0,0.745056,0.198547,-0.634155,0.057922,-4.0,-1.0,1.0,7579.0,1851.0,860.0,-350.0,29.0,-97.0,13.0,120.0,-343.0,0.967963,0.222394,0.11689,15454.0,3664.0,1766.0,-78.0,-10.0,29.0
2891.0,2773.0,2909.0,3154.0,3047.0,0.745117,0.198181,-0.634155,0.057739,-4.0,0.0,1.0,7622.0,1838.0,866.0,-307.0,18.0,-93.0,21.0,101.0,-304.0,0.967926,0.222105,0.117105,15470.0,3584.0,1760.0,-75.0,10.0,28.0
2895.0,2780.0,2903.0,3143.0,3043.0,0.745422,0.197571,-0.634033,0.057617,-2.0,2.0,0.0,7665.0,1770.0,870.0,-264.0,-44.0,-96.0,53.0,38.0,-276.0,0.968012,0.221485,0.117942,15354.0,3340.0,1718.0,-34.0,46.0,12.0
2893.0,2777.0,2901.0,3153.0,3051.0,0.745544,0.197449,-0.63385,0.057678,-1.0,2.0,0.0,7643.0,1750.0,868.0,-286.0,-62.0,-102.0,60.0,27.0,-302.0,0.967904,0.221295,0.118411,15134.0,3412.0,1736.0,-9.0,55.0,6.0
2893.0,2779.0,2896.0,3151.0,3055.0,0.745728,0.197388,-0.633728,0.057739,-1.0,1.0,0.0,7598.0,1764.0,861.0,-331.0,-48.0,-112.0,56.0,51.0,-344.0,0.967971,0.221213,0.11887,14906.0,3650.0,1674.0,-10.0,45.0,6.0
2895.0,2779.0,2903.0,3151.0,3041.0,0.745911,0.197021,-0.633606,0.057495,-3.0,0.0,0.0,7535.0,1802.0,851.0,-393.0,-8.0,-127.0,45.0,103.0,-397.0,0.967882,0.221062,0.119414,14922.0,3696.0,1652.0,-66.0,11.0,21.0
2891.0,2775.0,2903.0,3149.0,3037.0,0.745972,0.196716,-0.633667,0.057251,-4.0,0.0,0.0,7526.0,1801.0,850.0,-403.0,-8.0,-129.0,45.0,105.0,-407.0,0.96792,0.220933,0.11952,15024.0,3570.0,1732.0,-82.0,3.0,19.0
2895.0,2775.0,2906.0,3153.0,3047.0,0.746094,0.195923,-0.633789,0.056824,-4.0,-1.0,1.0,7525.0,1795.0,865.0,-404.0,-9.0,-116.0,33.0,100.0,-406.0,0.967998,0.220325,0.11981,15068.0,3660.0,1768.0,-82.0,-9.0,24.0
2893.0,2781.0,2906.0,3151.0,3043.0,0.746094,0.195557,-0.633911,0.05658,-4.0,-1.0,0.0,7556.0,1800.0,879.0,-374.0,-2.0,-102.0,23.0,96.0,-374.0,0.968043,0.220074,0.119771,15350.0,3586.0,1852.0,-86.0,-12.0,18.0
2897.0,2783.0,2903.0,3151.0,3043.0,0.746216,0.195007,-0.633972,0.056213,-2.0,0.0,0.0,7603.0,1783.0,871.0,-327.0,-17.0,-112.0,47.0,78.0,-333.0,0.968084,0.21976,0.120049,15264.0,3566.0,1666.0,-45.0,6.0,10.0
2895.0,2775.0,2909.0,3151.0,3045.0,0.746216,0.194885,-0.634033,0.056152,-2.0,0.0,0.0,7616.0,1795.0,871.0,-314.0,-4.0,-112.0,45.0,88.0,-318.0,0.968138,0.219648,0.120013,15296.0,3662.0,1716.0,-29.0,2.0,12.0
2896.0,2779.0,2898.0,3151.0,3046.0,0.746155,0.194702,-0.634155,0.05603,-1.0,-1.0,0.0,7618.0,1786.0,850.0,-313.0,-12.0,-131.0,65.0,87.0,-321.0,0.968174,0.219492,0.119825,15316.0,3442.0,1664.0,-22.0,-10.0,13.0
2895.0,2755.0,2911.0,3153.0,3047.0,0.746155,0.19458,-0.634216,0.05603,-1.0,0.0,0.0,7619.0,1763.0,833.0,-312.0,-33.0,-148.0,88.0,74.0,-327.0,0.968252,0.219303,0.119795,15206.0,3424.0,1558.0,-12.0,3.0,12.0
2891.0,2781.0,2903.0,3153.0,3053.0,0.746155,0.194458,-0.634277,0.055908,-2.0,0.0,0.0,7565.0,1763.0,823.0,-367.0,-33.0,-158.0,87.0,86.0,-381.0,0.968282,0.219269,0.119751,15008.0,3520.0,1662.0,-33.0,5.0,7.0
2895.0,2775.0,2903.0,3151.0,3045.0,0.746155,0.194275,-0.634277,0.055786,-3.0,0.0,0.0,7573.0,1755.0,824.0,-358.0,-40.0,-157.0,90.0,78.0,-374.0,0.968214,0.219151,0.119809,15252.0,3456.0,1670.0,-47.0,6.0,6.0
2895.0,2778.0,2907.0,3151.0,3039.0,0.746338,0.19397,-0.634216,0.055603,-2.0,0.0,-1.0,7597.0,1739.0,843.0,-334.0,-55.0,-142.0,86.0,55.0,-352.0,0.96825,0.219005,0.120257,15224.0,3482.0,1736.0,-24.0,22.0,-1.0
2891.0,2774.0,2896.0,3151.0,3047.0,0.746399,0.193909,-0.634216,0.055542,-1.0,0.0,0.0,7593.0,1754.0,845.0,-339.0,-40.0,-141.0,79.0,69.0,-353.0,0.968297,0.219015,0.120365,15168.0,3610.0,1724.0,-13.0,20.0,2.0
2891.0,2778.0,2903.0,3154.0,3051.0,0.746338,0.193909,-0.634216,0.055542,-1.0,-1.0,0.0,7566.0,1761.0,828.0,-365.0,-32.0,-157.0,86.0,86.0,-379.0,0.968219,0.218992,0.120274,15026.0,3540.0,1618.0,-1.0,-8.0,14.0
2891.0,2771.0,2901.0,3151.0,3043.0,0.746277,0.193909,-0.634338,0.055603,0.0,-1.0,0.0,7577.0,1787.0,840.0,-355.0,-6.0,-143.0,67.0,103.0,-362.0,0.968348,0.218877,0.120035,15280.0,3766.0,1802.0,6.0,-19.0,15.0
2895.0,2771.0,2901.0,3155.0,3043.0,0.746216,0.19397,-0.634399,0.055542,-1.0,0.0,0.0,7652.0,1852.0,886.0,-280.0,57.0,-95.0,16.0,132.0,-270.0,0.968345,0.219015,0.119836,15584.0,3910.0,1916.0,-3.0,15.0,6.0
2895.0,2774.0,2899.0,3151.0,3047.0,0.746338,0.19397,-0.634216,0.055481,-1.0,1.0,-1.0,7684.0,1882.0,916.0,-247.0,86.0,-69.0,-11.0,144.0,-228.0,0.968203,0.21916,0.120244,15538.0,3918.0,2042.0,-19.0,45.0,-3.0
2894.0,2777.0,2897.0,3151.0,3045.0,0.747009,0.193726,-0.633545,0.055115,-3.0,4.0,-1.0,7727.0,1874.0,969.0,-201.0,75.0,-31.0,-34.0,112.0,-181.0,0.967882,0.219594,0.122152,15572.0,3694.0,2036.0,-61.0,94.0,-19.0
2896.0,2781.0,2903.0,3153.0,3047.0,0.747498,0.193542,-0.633057,0.054871,-4.0,5.0,-2.0,7729.0,1845.0,1004.0,-198.0,43.0,-8.0,-44.0,74.0,-183.0,0.967656,0.219873,0.123544,15418.0,3456.0,2152.0,-74.0,120.0,-34.0
2895.0,2774.0,2898.0,3153.0,3047.0,0.748535,0.193115,-0.632019,0.054382,-3.0,4.0,-2.0,7574.0,1725.0,976.0,-349.0,-80.0,-60.0,13.0,4.0,-362.0,0.967181,0.220366,0.126521,14432.0,3036.0,1710.0,-59.0,100.0,-37.0
2895.0,2775.0,2903.0,3150.0,3039.0,0.748718,0.192993,-0.631836,0.054199,-3.0,1.0,-2.0,7498.0,1682.0,959.0,-424.0,-124.0,-81.0,32.0,-16.0,-447.0,0.967054,0.220505,0.127054,14692.0,3128.0,1922.0,-47.0,28.0,-23.0
2895.0,2775.0,2899.0,3151.0,3041.0,0.748657,0.192749,-0.632019,0.054016,-1.0,-2.0,-1.0,7520.0,1659.0,969.0,-402.0,-145.0,-69.0,32.0,-43.0,-429.0,0.967154,0.220327,0.126805,15228.0,3466.0,1950.0,-15.0,-28.0,-2.0
2899.0,2779.0,2901.0,3153.0,3039.0,0.748596,0.192688,-0.632141,0.053894,-2.0,-1.0,-1.0,7585.0,1713.0,977.0,-338.0,-92.0,-59.0,18.0,-8.0,-354.0,0.967206,0.220354,0.12657,15602.0,3784.0,2028.0,-29.0,-20.0,-9.0
2903.0,2781.0,2900.0,3149.0,3053.0,0.74884,0.192444,-0.631958,0.053345,-4.0,1.0,-1.0,7694.0,1819.0,984.0,-227.0,10.0,-58.0,6.0,66.0,-224.0,0.967003,0.220796,0.127202,15602.0,3978.0,1978.0,-71.0,44.0,-14.0
2890.0,2771.0,2899.0,3151.0,3043.0,0.749084,0.1922,-0.631714,0.05304,-4.0,2.0,-1.0,7700.0,1854.0,981.0,-220.0,44.0,-67.0,4.0,100.0,-211.0,0.966802,0.220936,0.127938,15372.0,3858.0,1908.0,-82.0,65.0,-13.0
2875.0,2775.0,2903.0,3152.0,3035.0,0.749634,0.191772,-0.631226,0.052612,-3.0,3.0,0.0,7640.0,1846.0,944.0,-278.0,34.0,-116.0,41.0,117.0,-276.0,0.966555,0.221098,0.129496,14968.0,3642.0,1786.0,-53.0,72.0,3.0
2896.0,2775.0,2903.0,3151.0,3054.0,0.749817,0.19165,-0.631042,0.05249,-2.0,2.0,0.0,7561.0,1850.0,924.0,-356.0,38.0,-141.0,47.0,142.0,-353.0,0.966452,0.221158,0.130036,14630.0,3730.0,1762.0,-36.0,47.0,4.0
2896.0,2779.0,2903.0,3153.0,3043.0,0.749878,0.191589,-0.631042,0.052368,-2.0,0.0,0.0,7513.0,1840.0,918.0,-404.0,27.0,-148.0,48.0,143.0,-403.0,0.966476,0.221244,0.130138,14836.0,3586.0,1818.0,-23.0,12.0,3.0
2891.0,2773.0,2911.0,3147.0,3039.0,0.749817,0.191589,-0.631104,0.052368,0.0,-1.0,0.0,7507.0,1841.0,925.0,-410.0,28.0,-139.0,38.0,141.0,-408.0,0.966491,0.221214,0.12997,15018.0,3842.0,1904.0,2.0,-4.0,5.0
2887.0,2775.0,2913.0,3152.0,3051.0,0.749817,0.191589,-0.631104,0.052246,-1.0,-1.0,0.0,7525.0,1860.0,944.0,-392.0,46.0,-120.0,18.0,148.0,-384.0,0.966444,0.221368,0.129957,15192.0,3800.0,1994.0,-20.0,-6.0,4.0
2895.0,2775.0,2897.0,3151.0,3053.0,0.749939,0.191284,-0.631104,0.052002,-2.0,0.0,0.0,7603.0,1819.0,962.0,-314.0,6.0,-104.0,32.0,93.0,-315.0,0.966473,0.221266,0.130231,15504.0,3480.0,1980.0,-41.0,21.0,2.0
2895.0,2779.0,2907.0,3155.0,3043.0,0.750061,0.191162,-0.630981,0.05188,-2.0,1.0,-1.0,7627.0,1797.0,965.0,-289.0,-15.0,-104.0,43.0,70.0,-296.0,0.966384,0.221296,0.130603,15356.0,3444.0,1950.0,-33.0,42.0,-6.0
2896.0,2774.0,2907.0,3153.0,3039.0,0.750427,0.191101,-0.630615,0.051819,-1.0,2.0,-1.0,7625.0,1752.0,972.0,-290.0,-62.0,-106.0,60.0,27.0,-307.0,0.966267,0.221459,0.131631,15184.0,3418.0,2022.0,-3.0,57.0,-14.0
2895.0,2771.0,2895.0,3151.0,3047.0,0.75061,0.191162,-0.630371,0.051819,0.0,2.0,-1.0,7590.0,1768.0,973.0,-324.0,-47.0,-109.0,51.0,47.0,-337.0,0.966138,0.221646,0.13219,14964.0,3686.0,1948.0,7.0,56.0,-19.0
2891.0,2775.0,2895.0,3151.0,3047.0,0.750793,0.191223,-0.630127,0.051697,-1.0,0.0,0.0,7545.0,1799.0,989.0,-368.0,-19.0,-98.0,23.0,77.0,-372.0,0.965962,0.221987,0.132737,15010.0,3666.0,2004.0,-9.0,16.0,0.0
2890.0,2777.0,2899.0,3143.0,3031.0,0.750854,0.191223,-0.630066,0.051636,-1.0,0.0,0.0,7555.0,1819.0,1004.0,-357.0,0.0,-84.0,6.0,87.0,-355.0,0.965924,0.222094,0.132899,15210.0,3738.0,2112.0,-13.0,2.0,8.0
2894.0,2771.0,2897.0,3155.0,3038.0,0.750854,0.191162,-0.630066,0.051636,-1.0,0.0,0.0,7580.0,1835.0,1022.0,-332.0,16.0,-66.0,-10.0,92.0,-325.0,0.965917,0.222002,0.132923,15308.0,3766.0,2130.0,-13.0,7.0,10.0
2887.0,2773.0,2902.0,3152.0,3035.0,0.751038,0.19104,-0.629883,0.051514,-1.0,0.0,0.0,7594.0,1853.0,1052.0,-317.0,33.0,-41.0,-36.0,96.0,-304.0,0.965814,0.222061,0.133462,15186.0,3682.0,2174.0,-19.0,20.0,5.0
2895.0,2778.0,2899.0,3151.0,3047.0,0.751099,0.190979,-0.629822,0.051453,-1.0,0.0,0.0,7601.0,1843.0,1063.0,-310.0,23.0,-31.0,-40.0,82.0,-298.0,0.965769,0.222076,0.133648,15242.0,3624.0,2178.0,-14.0,21.0,2.0
8.0,29.0,-218.0,0.982589,-0.149109,-0.110674,15688.0,-2176.0,-1608.0,44.0,-29.0,12.0,,,,,,,,,,,,,,,,,,
2895.0,2782.0,2898.0,3151.0,3046.0,0.665894,-0.146484,-0.730896,-0.031067,1.0,-2.0,1.0,7821.0,-1207.0,-856.0,-227.0,19.0,55.0,-32.0,-7.0,-231.0,0.982499,-0.149673,-0.111287,15626.0,-2590.0,-1878.0,36.0,-41.0,32.0
2894.0,2779.0,2901.0,3147.0,3047.0,0.665771,-0.146484,-0.731018,-0.030762,1.0,-2.0,1.0,7823.0,-1227.0,-872.0,-224.0,2.0,42.0,-24.0,-26.0,-225.0,0.982394,-0.150075,-0.111647,15654.0,-2588.0,-1852.0,45.0,-36.0,32.0
2891.0,2777.0,2902.0,3153.0,3043.0,0.665649,-0.146545,-0.73114,-0.030151,1.0,-1.0,1.0,7823.0,-1270.0,-893.0,-223.0,-32.0,24.0,-15.0,-63.0,-216.0,0.982203,-0.151006,-0.112043,15682.0,-2646.0,-1782.0,25.0,-11.0,27.0
2893.0,2778.0,2897.0,3151.0,3035.0,0.665649,-0.146606,-0.731079,-0.029968,0.0,0.0,0.0,7814.0,-1314.0,-898.0,-231.0,-74.0,19.0,-20.0,-106.0,-217.0,0.982072,-0.151359,-0.111983,15526.0,-2914.0,-1874.0,13.0,8.0,18.0
2893.0,2768.0,2910.0,3152.0,3039.0,0.66571,-0.146729,-0.731018,-0.029541,1.0,0.0,-1.0,7761.0,-1392.0,-909.0,-283.0,-145.0,7.0,-23.0,-186.0,-256.0,0.981962,-0.152167,-0.111874,15458.0,-3000.0,-1798.0,25.0,5.0,-1.0
2895.0,2775.0,2903.0,3151.0,3046.0,0.665771,-0.146667,-0.731018,-0.029419,1.0,0.0,-1.0,7776.0,-1391.0,-885.0,-268.0,-143.0,30.0,-46.0,-176.0,-244.0,0.982012,-0.152282,-0.111782,15684.0,-2708.0,-1624.0,32.0,10.0,-13.0
2895.0,2777.0,2903.0,3155.0,3047.0,0.666016,-0.146423,-0.730835,-0.029358,0.0,0.0,-1.0,7770.0,-1312.0,-841.0,-275.0,-65.0,69.0,-63.0,-93.0,-267.0,0.982092,-0.152129,-0.111121,15570.0,-2378.0,-1470.0,3.0,22.0,-15.0
2895.0,2779.0,2911.0,3152.0,3039.0,0.666199,-0.146423,-0.730713,-0.02948,-1.0,1.0,-1.0,7773.0,-1279.0,-812.0,-273.0,-33.0,94.0,-80.0,-56.0,-273.0,0.982233,-0.152011,-0.110691,15570.0,-2402.0,-1536.0,-14.0,23.0,-14.0
2897.0,2779.0,2903.0,3159.0,3039.0,0.66626,-0.146423,-0.730591,-0.029541,0.0,-1.0,-1.0,7736.0,-1298.0,-842.0,-309.0,-53.0,62.0,-51.0,-89.0,-302.0,0.982177,-0.151947,-0.110428,15380.0,-2714.0,-1876.0,9.0,-10.0,-2.0
2895.0,2779.0,2897.0,3151.0,3045.0,0.666138,-0.146362,-0.730713,-0.029358,1.0,-2.0,-1.0,7763.0,-1294.0,-857.0,-282.0,-48.0,50.0,-40.0,-83.0,-275.0,0.982105,-0.15209,-0.110762,15730.0,-2526.0,-1772.0,27.0,-26.0,-6.0
2895.0,2779.0,2911.0,3147.0,3047.0,0.666077,-0.146057,-0.730896,-0.029236,1.0,-1.0,-1.0,7778.0,-1258.0,-908.0,-268.0,-14.0,1.0,14.0,-59.0,-261.0,0.982206,-0.151834,-0.111029,15538.0,-2486.0,-1936.0,28.0,-5.0,-17.0
2895.0,2779.0,2903.0,3151.0,3047.0,0.666077,-0.145935,-0.730896,-0.029175,1.0,0.0,-1.0,7782.0,-1254.0,-908.0,-264.0,-10.0,1.0,15.0,-55.0,-257.0,0.982181,-0.15176,-0.110997,15618.0,-2502.0,-1750.0,26.0,1.0,-12.0
2895.0,2775.0,2911.0,3152.0,3043.0,0.666138,-0.145691,-0.730896,-0.028931,1.0,0.0,-1.0,7786.0,-1248.0,-910.0,-260.0,-4.0,-1.0,18.0,-49.0,-254.0,0.982185,-0.15181,-0.110858,15580.0,-2474.0,-1818.0,36.0,1.0,-5.0
2895.0,2771.0,2896.0,3151.0,3051.0,0.666138,-0.145569,-0.730896,-0.028809,1.0,0.0,-1.0,7791.0,-1246.0,-909.0,-254.0,-2.0,-1.0,18.0,-46.0,-249.0,0.982142,-0.151826,-0.11083,15606.0,-2484.0,-1818.0,40.0,4.0,-6.0
2895.0,2775.0,2911.0,3149.0,3047.0,0.666321,-0.145264,-0.730835,-0.028564,1.0,0.0,-1.0,7785.0,-1246.0,-890.0,-261.0,-2.0,14.0,4.0,-44.0,-257.0,0.98224,-0.151833,-0.110422,15538.0,-2502.0,-1708.0,34.0,18.0,-10.0
2895.0,2778.0,2903.0,3158.0,3039.0,0.666443,-0.145081,-0.730774,-0.028442,1.0,0.0,-1.0,7770.0,-1256.0,-872.0,-276.0,-12.0,30.0,-12.0,-52.0,-272.0,0.982291,-0.151806,-0.110124,15412.0,-2590.0,-1650.0,38.0,21.0,-8.0
2891.0,2775.0,2909.0,3151.0,3039.0,0.666504,-0.144897,-0.730774,-0.028137,1.0,-1.0,0.0,7763.0,-1231.0,-840.0,-283.0,14.0,61.0,-35.0,-21.0,-286.0,0.982281,-0.152026,-0.110007,15648.0,-2416.0,-1538.0,29.0,-12.0,1.0
2894.0,2779.0,2903.0,3143.0,3049.0,0.666504,-0.144775,-0.730774,-0.028015,1.0,-1.0,0.0,7769.0,-1235.0,-830.0,-277.0,10.0,70.0,-45.0,-22.0,-281.0,0.982239,-0.152041,-0.109978,15580.0,-2496.0,-1618.0,27.0,-20.0,1.0
2895.0,2770.0,2903.0,3143.0,3045.0,0.666382,-0.144592,-0.730957,-0.027771,1.0,-2.0,0.0,7794.0,-1224.0,-816.0,-252.0,22.0,88.0,-61.0,-2.0,-260.0,0.982224,-0.152109,-0.110369,15666.0,-2460.0,-1614.0,29.0,-34.0,3.0
2896.0,2771.0,2897.0,3153.0,3051.0,0.66626,-0.144531,-0.731079,-0.027588,1.0,-2.0,0.0,7807.0,-1218.0,-824.0,-238.0,29.0,82.0,-55.0,5.0,-247.0,0.982152,-0.152253,-0.110703,15684.0,-2410.0,-1748.0,31.0,-33.0,6.0
2896.0,2777.0,2901.0,3152.0,3047.0,0.666138,-0.144348,-0.731201,-0.027222,1.0,-1.0,0.0,7844.0,-1249.0,-856.0,-200.0,0.0,53.0,-37.0,-22.0,-202.0,0.98202,-0.152502,-0.111011,15776.0,-2588.0,-1866.0,39.0,-14.0,7.0
2896.0,2774.0,2911.0,3147.0,3055.0,0.666138,-0.144226,-0.731262,-0.026978,1.0,-1.0,0.0,7849.0,-1263.0,-869.0,-195.0,-12.0,40.0,-27.0,-36.0,-194.0,0.982024,-0.152694,-0.111078,15698.0,-2618.0,-1816.0,43.0,-1.0,2.0
2898.0,2773.0,2902.0,3151.0,3039.0,0.66626,-0.143982,-0.731201,-0.026611,1.0,0.0,-1.0,7815.0,-1290.0,-889.0,-229.0,-37.0,18.0,-10.0,-71.0,-221.0,0.982003,-0.152942,-0.110776,15552.0,-2582.0,-1832.0,43.0,4.0,-5.0
2895.0,2779.0,2901.0,3154.0,3047.0,0.66626,-0.14386,-0.731262,-0.026428,1.0,-1.0,0.0,7816.0,-1276.0,-875.0,-228.0,-22.0,32.0,-20.0,-53.0,-224.0,0.982025,-0.153044,-0.11084,15724.0,-2418.0,-1612.0,34.0,-3.0,0.0
2896.0,2779.0,2899.0,3155.0,3047.0,0.666382,-0.143799,-0.73114,-0.026428,-1.0,-1.0,0.0,7826.0,-1218.0,-836.0,-218.0,35.0,69.0,-42.0,11.0,-227.0,0.982038,-0.153004,-0.110481,15668.0,-2236.0,-1580.0,-10.0,-1.0,11.0
2895.0,2779.0,2907.0,3155.0,3039.0,0.666382,-0.143921,-0.73114,-0.026489,-2.0,-1.0,0.0,7838.0,-1208.0,-816.0,-207.0,46.0,89.0,-60.0,28.0,-220.0,0.982062,-0.153078,-0.110513,15758.0,-2426.0,-1496.0,-28.0,-7.0,18.0
2893.0,2775.0,2923.0,3153.0,3047.0,0.666382,-0.144226,-0.731018,-0.026489,-1.0,0.0,1.0,7850.0,-1227.0,-798.0,-193.0,30.0,106.0,-81.0,19.0,-205.0,0.981915,-0.153491,-0.110422,15638.0,-2492.0,-1618.0,-20.0,2.0,23.0
2896.0,2777.0,2909.0,3155.0,3039.0,0.666382,-0.144409,-0.731018,-0.026489,-1.0,-1.0,1.0,7826.0,-1230.0,-812.0,-217.0,29.0,93.0,-67.0,11.0,-227.0,0.981925,-0.153735,-0.110475,15492.0,-2496.0,-1722.0,-20.0,-3.0,25.0
2898.0,2781.0,2899.0,3154.0,3051.0,0.66626,-0.144775,-0.731079,-0.026367,-1.0,-1.0,1.0,7801.0,-1248.0,-861.0,-242.0,16.0,46.0,-23.0,-16.0,-245.0,0.981812,-0.154363,-0.110839,15572.0,-2606.0,-1870.0,-17.0,-19.0,28.0
2893.0,2775.0,2896.0,3149.0,3045.0,0.666138,-0.144958,-0.73114,-0.026306,-1.0,-1.0,1.0,7784.0,-1270.0,-895.0,-258.0,-3.0,15.0,2.0,-45.0,-254.0,0.981707,-0.154658,-0.111147,15446.0,-2686.0,-2004.0,-4.0,-17.0,25.0
2891.0,2775.0,2903.0,3143.0,3047.0,0.665955,-0.145142,-0.731262,-0.026001,0.0,-1.0,0.0,7756.0,-1274.0,-933.0,-284.0,-1.0,-18.0,37.0,-55.0,-276.0,0.981523,-0.155288,-0.111639,15410.0,-2594.0,-1956.0,10.0,-14.0,15.0
2896.0,2773.0,2898.0,3158.0,3045.0,0.665894,-0.145203,-0.731323,-0.025879,0.0,-1.0,0.0,7740.0,-1281.0,-942.0,-300.0,-6.0,-25.0,43.0,-64.0,-290.0,0.981482,-0.155527,-0.111834,15400.0,-2618.0,-1908.0,7.0,-13.0,19.0
2896.0,2775.0,2903.0,3155.0,3054.0,0.665833,-0.145325,-0.731384,-0.025696,0.0,0.0,0.0,7734.0,-1304.0,-940.0,-305.0,-26.0,-22.0,36.0,-84.0,-292.0,0.981427,-0.155937,-0.112049,15448.0,-2726.0,-1818.0,3.0,6.0,10.0
2894.0,2771.0,2907.0,3150.0,3051.0,0.665894,-0.145386,-0.731323,-0.025574,0.0,0.0,-1.0,7721.0,-1322.0,-939.0,-318.0,-42.0,-22.0,33.0,-102.0,-303.0,0.981403,-0.156218,-0.111902,15332.0,-2736.0,-1872.0,11.0,17.0,-1.0
2893.0,2775.0,2907.0,3153.0,3047.0,0.666077,-0.145264,-0.731201,-0.025513,0.0,0.0,-1.0,7711.0,-1290.0,-888.0,-329.0,-10.0,24.0,-2.0,-62.0,-324.0,0.981484,-0.156204,-0.111448,15424.0,-2418.0,-1630.0,4.0,15.0,-5.0
2896.0,2775.0,2903.0,3151.0,3053.0,0.666077,-0.145264,-0.73114,-0.025574,-1.0,0.0,-1.0,7719.0,-1275.0,-871.0,-320.0,3.0,41.0,-16.0,-44.0,-319.0,0.981421,-0.156118,-0.111355,15502.0,-2508.0,-1678.0,-13.0,5.0,-2.0
2896.0,2783.0,2909.0,3151.0,3047.0,0.666138,-0.145325,-0.731079,-0.025696,-1.0,0.0,-1.0,7771.0,-1293.0,-866.0,-269.0,-14.0,44.0,-27.0,-51.0,-266.0,0.981467,-0.156041,-0.111196,15646.0,-2634.0,-1708.0,-4.0,12.0,-11.0
2896.0,2779.0,2901.0,3150.0,3043.0,0.666199,-0.145325,-0.731018,-0.025696,0.0,0.0,-1.0,7773.0,-1286.0,-878.0,-267.0,-7.0,31.0,-12.0,-47.0,-264.0,0.981475,-0.156062,-0.111026,15524.0,-2514.0,-1852.0,3.0,15.0,-13.0
2893.0,2774.0,2903.0,3149.0,3043.0,0.66626,-0.145203,-0.731018,-0.025757,0.0,0.0,-1.0,7755.0,-1287.0,-892.0,-286.0,-10.0,16.0,2.0,-56.0,-280.0,0.981576,-0.155828,-0.110906,15480.0,-2664.0,-1840.0,9.0,6.0,-9.0
2893.0,2775.0,2910.0,3154.0,3043.0,0.66626,-0.145142,-0.731018,-0.025696,0.0,0.0,-1.0,7762.0,-1291.0,-894.0,-278.0,-14.0,14.0,2.0,-59.0,-272.0,0.981555,-0.155836,-0.110891,15598.0,-2570.0,-1758.0,21.0,7.0,-9.0
2899.0,2778.0,2896.0,3157.0,3043.0,0.666382,-0.144958,-0.730896,-0.025696,-1.0,0.0,-1.0,7774.0,-1221.0,-836.0,-266.0,53.0,69.0,-35.0,19.0,-276.0,0.981561,-0.155634,-0.110497,15572.0,-2290.0,-1486.0,-8.0,7.0,-7.0
2895.0,2778.0,2895.0,3147.0,3045.0,0.666443,-0.14502,-0.730835,-0.025818,-2.0,0.0,0.0,7787.0,-1214.0,-811.0,-254.0,60.0,92.0,-56.0,33.0,-268.0,0.981608,-0.155557,-0.110338,15652.0,-2402.0,-1490.0,-26.0,5.0,3.0
2894.0,2781.0,2911.0,3147.0,3051.0,0.666504,-0.145264,-0.730774,-0.026062,-2.0,0.0,0.0,7805.0,-1217.0,-798.0,-237.0,57.0,104.0,-69.0,36.0,-252.0,0.981699,-0.155547,-0.110225,15638.0,-2444.0,-1618.0,-30.0,4.0,9.0
2895.0,2775.0,2909.0,3158.0,3047.0,0.666504,-0.145386,-0.730713,-0.026123,-2.0,-1.0,0.0,7806.0,-1234.0,-805.0,-235.0,40.0,97.0,-67.0,19.0,-247.0,0.981642,-0.155623,-0.110168,15622.0,-2586.0,-1688.0,-26.0,-1.0,9.0
2893.0,2783.0,2899.0,3147.0,3047.0,0.666443,-0.145569,-0.730774,-0.026062,0.0,-1.0,0.0,7806.0,-1269.0,-827.0,-235.0,8.0,77.0,-56.0,-16.0,-240.0,0.981626,-0.155936,-0.110395,15620.0,-2522.0,-1686.0,1.0,-17.0,13.0
2895.0,2781.0,2903.0,3147.0,3043.0,0.666382,-0.14563,-0.730774,-0.026001,-1.0,-1.0,0.0,7809.0,-1259.0,-844.0,-231.0,19.0,61.0,-38.0,-8.0,-236.0,0.981522,-0.156089,-0.110498,15624.0,-2458.0,-1828.0,0.0,-18.0,10.0
2893.0,2779.0,2902.0,3153.0,3043.0,0.666199,-0.145813,-0.730957,-0.02594,-1.0,-1.0,0.0,7799.0,-1268.0,-888.0,-241.0,12.0,21.0,0.0,-26.0,-240.0,0.98149,-0.156359,-0.111066,15592.0,-2618.0,-1886.0,-10.0,-14.0,8.0
2896.0,2768.0,2903.0,3153.0,3047.0,0.666138,-0.145874,-0.731018,-0.025879,-1.0,-1.0,0.0,7785.0,-1279.0,-906.0,-255.0,3.0,5.0,13.0,-41.0,-251.0,0.981467,-0.156508,-0.111257,15472.0,-2542.0,-1870.0,-2.0,-9.0,8.0
2897.0,2773.0,2899.0,3155.0,3043.0,0.666077,-0.145996,-0.731018,-0.02594,-1.0,-1.0,0.0,7752.0,-1285.0,-910.0,-287.0,-2.0,2.0,17.0,-52.0,-281.0,0.981402,-0.156564,-0.111371,15388.0,-2708.0,-1874.0,-21.0,-2.0,3.0
2891.0,2781.0,2907.0,3151.0,3047.0,0.666016,-0.146118,-0.731018,-0.02594,-1.0,-1.0,-1.0,7730.0,-1317.0,-919.0,-308.0,-33.0,-5.0,18.0,-87.0,-296.0,0.981319,-0.156709,-0.111488,15304.0,-2900.0,-1902.0,-19.0,0.0,-2.0
2895.0,2775.0,2910.0,3147.0,3045.0,0.665894,-0.146179,-0.73114,-0.025879,0.0,-1.0,-2.0,7682.0,-1375.0,-953.0,-356.0,-90.0,-36.0,37.0,-158.0,-331.0,0.981289,-0.156837,-0.11185,15282.0,-2844.0,-1996.0,15.0,-12.0,-24.0
2896.0,2774.0,2903.0,3153.0,3051.0,0.665833,-0.145996,-0.731262,-0.025818,1.0,-1.0,-2.0,7661.0,-1377.0,-972.0,-378.0,-93.0,-54.0,55.0,-169.0,-350.0,0.981335,-0.156659,-0.11206,15140.0,-2746.0,-2056.0,26.0,-2.0,-43.0
2897.0,2775.0,2907.0,3157.0,3039.0,0.665649,-0.145386,-0.731506,-0.025757,2.0,-1.0,-4.0,7575.0,-1411.0,-1063.0,-464.0,-134.0,-141.0,136.0,-243.0,-418.0,0.981343,-0.155869,-0.112486,14924.0,-3034.0,-2446.0,54.0,-17.0,-70.0
2883.0,2781.0,2901.0,3151.0,3047.0,0.665466,-0.144897,-0.73175,-0.025574,4.0,-1.0,-5.0,7532.0,-1468.0,-1134.0,-506.0,-194.0,-208.0,189.0,-323.0,-442.0,0.981322,-0.155422,-0.112955,14780.0,-3314.0,-2742.0,109.0,-22.0,-95.0
2897.0,2779.0,2909.0,3151.0,3039.0,0.665039,-0.142639,-0.732666,-0.024353,13.0,-3.0,-8.0,7343.0,-1602.0,-1336.0,-697.0,-340.0,-399.0,356.0,-538.0,-586.0,0.98145,-0.154036,-0.114275,13980.0,-3570.0,-3318.0,305.0,-49.0,-175.0
2895.0,2775.0,2910.0,3151.0,3047.0,0.664429,-0.138184,-0.734131,-0.021851,23.0,-4.0,-13.0,6989.0,-1707.0,-1671.0,-1052.0,-465.0,-719.0,672.0,-784.0,-878.0,0.981594,-0.151544,-0.1161,12776.0,-3764.0,-4516.0,544.0,-75.0,-275.0
2896.0,2777.0,2926.0,3153.0,3051.0,0.664001,-0.135071,-0.735168,-0.020081,28.0,-4.0,-15.0,6798.0,-1754.0,-1904.0,-1244.0,-526.0,-942.0,897.0,-917.0,-1031.0,0.98173,-0.149849,-0.117416,12414.0,-3774.0,-5314.0,662.0,-72.0,-336.0
2897.0,2779.0,2907.0,3149.0,3047.0,0.662964,-0.127075,-0.737671,-0.016357,35.0,-3.0,-23.0,6303.0,-1896.0,-2576.0,-1743.0,-713.0,-1588.0,1552.0,-1284.0,-1417.0,0.982256,-0.14436,-0.120518,11014.0,-4558.0,-7528.0,822.0,-53.0,-524.0
2895.0,2779.0,2911.0,3152.0,3055.0,0.660889,-0.116882,-0.741272,-0.012573,40.0,-6.0,-33.0,5749.0,-2142.0,-3465.0,-2301.0,-1029.0,-2431.0,2407.0,-1782.0,-1814.0,0.982736,-0.135852,-0.126214,10012.0,-4624.0,-9512.0,925.0,-124.0,-748.0
2895.0,2775.0,2903.0,3151.0,3051.0,0.659424,-0.110779,-0.743469,-0.01123,42.0,-6.0,-41.0,5626.0,-2149.0,-3807.0,-2426.0,-1088.0,-2741.0,2742.0,-1870.0,-1887.0,0.983011,-0.129401,-0.130053,10674.0,-4342.0,-9592.0,967.0,-120.0,-919.0
2891.0,2781.0,2903.0,3151.0,3043.0,0.657837,-0.09552,-0.74707,-0.01001,46.0,7.0,-56.0,5841.0,-1947.0,-4370.0,-2226.0,-1040.0,-3269.0,3303.0,-1769.0,-1637.0,0.984813,-0.110717,-0.134389,13442.0,-2808.0,-10012.0,1063.0,166.0,-1260.0
2895.0,2777.0,2909.0,3151.0,3052.0,0.65979,-0.077881,-0.747375,-0.011047,48.0,29.0,-64.0,6036.0,-1972.0,-4780.0,-2057.0,-1265.0,-3721.0,3738.0,-1902.0,-1442.0,0.987943,-0.086257,-0.129191,11466.0,-4506.0,-10320.0,1117.0,675.0,-1445.0
2896.0,2779.0,2903.0,3153.0,3055.0,0.663086,-0.056885,-0.746338,-0.009766,70.0,26.0,-70.0,5971.0,-1824.0,-4397.0,-2146.0,-1325.0,-3410.0,3486.0,-1777.0,-1634.0,0.990883,-0.060862,-0.120478,12726.0,-2328.0,-6714.0,1625.0,599.0,-1582.0
2898.0,2783.0,2903.0,3151.0,3047.0,0.665161,-0.044006,-0.745361,-0.00885,77.0,28.0,-78.0,6414.0,-1365.0,-3927.0,-1715.0,-993.0,-2985.0,3071.0,-1295.0,-1313.0,0.99235,-0.04535,-0.114982,15890.0,74.0,-5094.0,1773.0,642.0,-1765.0
2896.0,2781.0,2902.0,3153.0,3051.0,0.672241,-0.015808,-0.740112,-0.01123,63.0,53.0,-92.0,7718.0,-206.0,-3065.0,-436.0,-168.0,-2278.0,2301.0,-257.0,-214.0,0.995423,-0.00463,-0.095982,19238.0,2558.0,-3516.0,1464.0,1233.0,-2099.0
2896.0,2777.0,2906.0,3157.0,3053.0,0.684937,0.009644,-0.728333,-0.017639,44.0,87.0,-86.0,8591.0,539.0,-2197.0,420.0,220.0,-1696.0,1669.0,182.0,531.0,0.997383,0.038905,-0.061112,18952.0,3820.0,-1214.0,1013.0,2014.0,-1956.0
2896.0,2777.0,2898.0,3152.0,3047.0,0.693481,0.020691,-0.719849,-0.021667,33.0,102.0,-80.0,8722.0,1143.0,-1575.0,550.0,652.0,-1270.0,1248.0,614.0,634.0,0.997507,0.059892,-0.037224,17938.0,6066.0,660.0,776.0,2349.0,-1829.0
2890.0,2773.0,2898.0,3151.0,3046.0,0.711975,0.037964,-0.700439,-0.031494,8.0,105.0,-64.0,7999.0,1846.0,-514.0,-152.0,1041.0,-643.0,631.0,1057.0,-59.0,0.995,0.098178,0.015844,13262.0,4808.0,2696.0,205.0,2406.0,-1447.0
2896.0,2783.0,2910.0,3159.0,3047.0,0.72052,0.044434,-0.691101,-0.035645,10.0,95.0,-54.0,7553.0,1921.0,206.0,-579.0,992.0,-128.0,93.0,1052.0,-467.0,0.992737,0.113299,0.040825,12512.0,4216.0,4864.0,241.0,2182.0,-1225.0
2897.0,2778.0,2896.0,3155.0,3051.0,0.73468,0.0578,-0.674744,-0.040283,30.0,66.0,-44.0,7088.0,2393.0,2048.0,-995.0,1251.0,1370.0,-1473.0,1333.0,-694.0,0.986785,0.139291,0.082758,13466.0,6578.0,10082.0,710.0,1528.0,-993.0
2896.0,2777.0,2907.0,3151.0,3047.0,0.740112,0.06604,-0.667969,-0.041077,46.0,51.0,-43.0,7131.0,2666.0,3062.0,-924.0,1415.0,2251.0,-2373.0,1439.0,-469.0,0.983318,0.15263,0.09891,14886.0,7052.0,12310.0,1069.0,1178.0,-969.0
2895.0,2782.0,2911.0,3151.0,3045.0,0.747986,0.085754,-0.657043,-0.038635,72.0,28.0,-33.0,7821.0,3729.0,4965.0,-176.0,2262.0,3966.0,-4072.0,1944.0,716.0,0.976292,0.179056,0.121916,18290.0,11562.0,15062.0,1660.0,654.0,-739.0
2895.0,2783.0,2901.0,3151.0,3051.0,0.752808,0.104065,-0.649048,-0.034485,57.0,10.0,-13.0,8477.0,5133.0,6043.0,530.0,3482.0,4930.0,-5060.0,2747.0,1885.0,0.970039,0.201446,0.135816,18330.0,13716.0,14006.0,1323.0,248.0,-294.0
2897.0,2775.0,2910.0,3159.0,3043.0,0.754028,0.109924,-0.646729,-0.032776,41.0,0.0,-1.0,8636.0,5468.0,6147.0,705.0,3762.0,5005.0,-5152.0,2910.0,2162.0,0.968098,0.208166,0.139292,18156.0,12446.0,12538.0,942.0,2.0,-10.0
2896.0,2779.0,2907.0,3152.0,3055.0,0.754272,0.113647,-0.645996,-0.028992,14.0,-16.0,21.0,8842.0,5063.0,5565.0,912.0,3351.0,4421.0,-4533.0,2492.0,2199.0,0.967924,0.208899,0.139541,18242.0,7374.0,8392.0,327.0,-351.0,490.0
2893.0,2778.0,2898.0,3153.0,3039.0,0.753662,0.112854,-0.646912,-0.026489,9.0,-17.0,26.0,8887.0,4411.0,4991.0,947.0,2736.0,3864.0,-3928.0,1961.0,2008.0,0.969127,0.20438,0.137478,17896.0,4646.0,6328.0,225.0,-387.0,615.0
2891.0,2783.0,2910.0,3163.0,3047.0,0.751831,0.109985,-0.64978,-0.020264,9.0,-16.0,27.0,8696.0,3102.0,3689.0,728.0,1531.0,2612.0,-2623.0,1003.0,1344.0,0.972593,0.191715,0.131349,16582.0,2676.0,3530.0,226.0,-353.0,625.0
2896.0,2783.0,2899.0,3155.0,3043.0,0.750854,0.108643,-0.651245,-0.017334,8.0,-14.0,24.0,8506.0,2537.0,3072.0,525.0,1015.0,2022.0,-2022.0,618.0,959.0,0.974214,0.185727,0.12816,15792.0,1704.0,2500.0,190.0,-317.0,555.0
2896.0,2783.0,2911.0,3159.0,3047.0,0.74884,0.105957,-0.654053,-0.012451,4.0,-11.0,18.0,8072.0,1644.0,2029.0,69.0,210.0,1030.0,-1026.0,47.0,229.0,0.976924,0.174977,0.121905,14850.0,1054.0,1332.0,113.0,-238.0,418.0
2896.0,2783.0,2900.0,3151.0,3047.0,0.748047,0.104614,-0.655212,-0.01062,1.0,-9.0,15.0,7866.0,1371.0,1637.0,-146.0,-25.0,658.0,-664.0,-95.0,-68.0,0.978037,0.17043,0.119439,14548.0,1310.0,1066.0,41.0,-185.0,366.0
2895.0,2779.0,2890.0,3151.0,3047.0,0.747253,0.101562,-0.656677,-0.008484,-6.0,-2.0,11.0,7581.0,974.0,1097.0,-444.0,-360.0,139.0,-154.0,-307.0,-477.0,0.979685,0.162928,0.11692,14382.0,678.0,772.0,-122.0,-42.0,259.0
2896.0,2779.0,2907.0,3157.0,3051.0,0.747253,0.099976,-0.656921,-0.007751,-6.0,1.0,9.0,7496.0,803.0,938.0,-533.0,-504.0,-19.0,6.0,-415.0,-605.0,0.980224,0.159598,0.116907,14552.0,698.0,1038.0,-123.0,34.0,211.0
2896.0,2783.0,2903.0,3151.0,3055.0,0.748169,0.0979,-0.65625,-0.006714,-4.0,8.0,4.0,7419.0,713.0,791.0,-614.0,-559.0,-188.0,165.0,-437.0,-711.0,0.980657,0.155304,0.119553,14572.0,1398.0,1270.0,-79.0,187.0,92.0
2893.0,2783.0,2899.0,3151.0,3046.0,0.74884,0.09729,-0.655518,-0.00647,-4.0,9.0,2.0,7359.0,738.0,775.0,-673.0,-525.0,-221.0,184.0,-392.0,-767.0,0.980497,0.154191,0.121635,14318.0,1690.0,1512.0,-69.0,222.0,51.0
2895.0,2775.0,2902.0,3151.0,3051.0,0.750366,0.096619,-0.65387,-0.006409,-3.0,8.0,0.0,7211.0,925.0,852.0,-817.0,-331.0,-181.0,98.0,-188.0,-874.0,0.980045,0.15338,0.12621,13890.0,2648.0,2004.0,-46.0,184.0,9.0
2897.0,2779.0,2911.0,3159.0,3045.0,0.750854,0.096436,-0.65332,-0.006653,-4.0,4.0,0.0,7156.0,1065.0,904.0,-870.0,-192.0,-142.0,34.0,-50.0,-900.0,0.979814,0.153511,0.127699,14102.0,2934.0,2136.0,-75.0,107.0,9.0
2889.0,2783.0,2899.0,3152.0,3054.0,0.751465,0.095703,-0.652771,-0.007324,-5.0,2.0,0.0,7296.0,1191.0,980.0,-729.0,-65.0,-80.0,-21.0,46.0,-734.0,0.979667,0.153397,0.129484,15098.0,2574.0,2036.0,-99.0,51.0,20.0
2895.0,2768.0,2903.0,3151.0,3055.0,0.751648,0.095337,-0.652527,-0.007507,-4.0,2.0,1.0,7370.0,1213.0,971.0,-654.0,-41.0,-95.0,1.0,61.0,-659.0,0.979509,0.153117,0.130151,15214.0,2558.0,1866.0,-78.0,53.0,35.0
2895.0,2782.0,2901.0,3151.0,3045.0,0.752014,0.094604,-0.652283,-0.007385,-1.0,2.0,2.0,7606.0,1215.0,928.0,-419.0,-29.0,-146.0,84.0,47.0,-434.0,0.979654,0.151922,0.131157,16138.0,2246.0,1762.0,-22.0,62.0,61.0
2894.0,2783.0,2903.0,3151.0,3051.0,0.752258,0.094421,-0.651978,-0.006958,1.0,4.0,3.0,7729.0,1198.0,911.0,-295.0,-40.0,-169.0,126.0,22.0,-317.0,0.979597,0.151131,0.131951,16118.0,2358.0,1748.0,40.0,110.0,80.0
2897.0,2779.0,2900.0,3159.0,3053.0,0.753052,0.09436,-0.651123,-0.005676,1.0,5.0,4.0,7735.0,1325.0,915.0,-289.0,100.0,-184.0,125.0,160.0,-292.0,0.979587,0.149508,0.134254,15188.0,3102.0,1876.0,41.0,133.0,110.0
2895.0,2779.0,2907.0,3149.0,3044.0,0.753418,0.094055,-0.650757,-0.005249,-1.0,3.0,5.0,7689.0,1356.0,939.0,-335.0,139.0,-169.0,98.0,202.0,-330.0,0.979596,0.148557,0.135335,15130.0,2806.0,2076.0,-18.0,87.0,127.0
2893.0,2775.0,2903.0,3147.0,3047.0,0.753723,0.092529,-0.650574,-0.004395,-4.0,1.0,8.0,7694.0,1270.0,970.0,-333.0,80.0,-146.0,83.0,140.0,-334.0,0.979892,0.145201,0.13631,15526.0,2300.0,1942.0,-82.0,26.0,185.0
2893.0,2773.0,2911.0,3159.0,3047.0,0.753845,0.09137,-0.650635,-0.003967,-6.0,1.0,9.0,7765.0,1236.0,980.0,-265.0,65.0,-139.0,88.0,115.0,-269.0,0.980231,0.14292,0.136624,16056.0,2234.0,2062.0,-121.0,26.0,207.0
2895.0,2778.0,2910.0,3155.0,3051.0,0.754578,0.088623,-0.650208,-0.002991,-6.0,6.0,9.0,7959.0,1050.0,974.0,-75.0,-77.0,-162.0,155.0,-45.0,-106.0,0.980734,0.137635,0.138773,16386.0,1398.0,1874.0,-126.0,144.0,226.0
2896.0,2769.0,2907.0,3151.0,3056.0,0.755249,0.087341,-0.649597,-0.002075,-3.0,9.0,10.0,8016.0,970.0,971.0,-19.0,-132.0,-182.0,190.0,-104.0,-62.0,0.980853,0.134625,0.1408,16350.0,1570.0,1948.0,-67.0,218.0,239.0
2891.0,2775.0,2898.0,3150.0,3043.0,0.757202,0.085632,-0.647583,0.000244,1.0,14.0,9.0,7936.0,1004.0,984.0,-98.0,-55.0,-217.0,203.0,-15.0,-135.0,0.980744,0.129366,0.146658,15170.0,2342.0,2050.0,37.0,333.0,228.0
2893.0,2786.0,2903.0,3153.0,3043.0,0.75824,0.085144,-0.646423,0.001343,1.0,13.0,9.0,7770.0,1090.0,1000.0,-262.0,46.0,-227.0,174.0,103.0,-285.0,0.980516,0.127383,0.149817,14504.0,2762.0,2060.0,45.0,306.0,209.0
2897.0,2759.0,2911.0,3155.0,3043.0,0.759644,0.084412,-0.644775,0.002625,-1.0,6.0,6.0,7551.0,1247.0,1115.0,-477.0,224.0,-148.0,39.0,290.0,-462.0,0.980042,0.124861,0.154205,14650.0,2854.0,2716.0,-13.0,156.0,142.0
2891.0,2771.0,2899.0,3151.0,3055.0,0.760071,0.084045,-0.644348,0.002869,-2.0,3.0,3.0,7491.0,1293.0,1184.0,-537.0,276.0,-89.0,-35.0,339.0,-505.0,0.979983,0.124064,0.155468,14696.0,2808.0,2814.0,-37.0,83.0,91.0
2895.0,2774.0,2909.0,3159.0,3039.0,0.760437,0.083618,-0.643982,0.002869,-1.0,0.0,1.0,7601.0,1177.0,1344.0,-426.0,165.0,61.0,-150.0,198.0,-387.0,0.979895,0.123478,0.156568,15718.0,1886.0,3084.0,-5.0,9.0,28.0
2896.0,2779.0,2909.0,3151.0,3043.0,0.760559,0.083679,-0.64386,0.003113,2.0,0.0,1.0,7661.0,1151.0,1401.0,-366.0,141.0,115.0,-190.0,161.0,-323.0,0.979908,0.123278,0.156902,15602.0,2230.0,3118.0,48.0,20.0,23.0
2896.0,2783.0,2910.0,3154.0,3039.0,0.760803,0.084106,-0.643433,0.003479,1.0,0.0,0.0,7689.0,1165.0,1460.0,-336.0,153.0,167.0,-238.0,163.0,-283.0,0.979636,0.1235,0.157754,15414.0,2320.0,3050.0,42.0,13.0,15.0
2895.0,2783.0,2899.0,3151.0,3043.0,0.760925,0.084167,-0.643372,0.003601,0.0,0.0,1.0,7679.0,1143.0,1422.0,-346.0,131.0,127.0,-198.0,147.0,-302.0,0.979722,0.123457,0.158009,15162.0,2274.0,2554.0,10.0,1.0,26.0
2891.0,2775.0,2905.0,3153.0,3047.0,0.760742,0.083557,-0.643616,0.003479,-4.0,-2.0,2.0,7615.0,1080.0,1331.0,-411.0,75.0,40.0,-118.0,110.0,-387.0,0.979833,0.122653,0.157518,15058.0,1756.0,2274.0,-81.0,-43.0,46.0
2895.0,2783.0,2913.0,3127.0,3039.0,0.76062,0.083008,-0.64386,0.003357,-4.0,-2.0,2.0,7624.0,977.0,1280.0,-404.0,-22.0,-7.0,-59.0,20.0,-399.0,0.980023,0.121952,0.157108,15316.0,1294.0,2236.0,-87.0,-41.0,48.0
2895.0,2783.0,2910.0,3151.0,3047.0,0.760498,0.081909,-0.644165,0.003357,-4.0,-1.0,1.0,7668.0,804.0,1185.0,-362.0,-181.0,-98.0,54.0,-129.0,-392.0,0.980322,0.120259,0.156711,15570.0,1318.0,2252.0,-72.0,-1.0,25.0
2895.0,2779.0,2909.0,3151.0,3043.0,0.760559,0.081421,-0.644104,0.003235,-4.0,1.0,0.0,7710.0,785.0,1170.0,-320.0,-195.0,-115.0,79.0,-145.0,-355.0,0.980285,0.119684,0.156961,15668.0,1522.0,2254.0,-75.0,41.0,8.0
2895.0,2773.0,2899.0,3149.0,3043.0,0.761292,0.080811,-0.643372,0.00293,-3.0,6.0,-1.0,7816.0,796.0,1208.0,-212.0,-181.0,-95.0,76.0,-145.0,-244.0,0.98006,0.119271,0.159116,15868.0,1764.0,2618.0,-61.0,140.0,-9.0
2897.0,2783.0,2899.0,3154.0,3055.0,0.761902,0.080566,-0.642639,0.002747,-4.0,7.0,-1.0,7801.0,869.0,1254.0,-224.0,-107.0,-65.0,36.0,-75.0,-242.0,0.979698,0.119237,0.161026,15402.0,2210.0,2788.0,-69.0,175.0,-6.0
2893.0,2781.0,2911.0,3157.0,3042.0,0.763123,0.079651,-0.641296,0.002014,-7.0,5.0,1.0,7661.0,1087.0,1367.0,-359.0,112.0,17.0,-92.0,144.0,-335.0,0.979096,0.118983,0.164755,14992.0,2914.0,3160.0,-157.0,117.0,37.0
2887.0,2779.0,2907.0,3149.0,3047.0,0.76355,0.078796,-0.640869,0.001465,-10.0,2.0,3.0,7617.0,1184.0,1427.0,-402.0,213.0,66.0,-158.0,241.0,-357.0,0.978902,0.118452,0.166088,15004.0,2902.0,3200.0,-218.0,66.0,75.0
2894.0,2777.0,2903.0,3147.0,3043.0,0.763977,0.07605,-0.640747,0.000305,-13.0,-1.0,5.0,7636.0,1145.0,1442.0,-384.0,196.0,71.0,-157.0,222.0,-341.0,0.979079,0.11581,0.167321,15476.0,1762.0,2722.0,-280.0,-18.0,122.0
2891.0,2782.0,2903.0,3151.0,3047.0,0.763977,0.074646,-0.640869,-6.1e-05,-10.0,-2.0,4.0,7682.0,1018.0,1397.0,-339.0,83.0,25.0,-92.0,111.0,-318.0,0.97921,0.114134,0.167376,15650.0,1204.0,2518.0,-225.0,-23.0,98.0
2895.0,2777.0,2909.0,3155.0,3053.0,0.764099,0.073425,-0.640869,-0.000244,-1.0,1.0,-1.0,7751.0,776.0,1317.0,-271.0,-145.0,-57.0,21.0,-111.0,-291.0,0.979339,0.112521,0.167743,15506.0,1024.0,2346.0,-7.0,41.0,-19.0
2895.0,2773.0,2899.0,3147.0,3047.0,0.764221,0.07373,-0.640747,-0.000122,3.0,2.0,-3.0,7738.0,754.0,1283.0,-284.0,-170.0,-93.0,56.0,-130.0,-312.0,0.979327,0.112849,0.168041,15360.0,1492.0,2394.0,76.0,52.0,-62.0
2891.0,2771.0,2899.0,3147.0,3039.0,0.764404,0.074951,-0.640381,-0.000183,2.0,1.0,-3.0,7663.0,901.0,1260.0,-356.0,-39.0,-121.0,58.0,9.0,-373.0,0.978992,0.114821,0.168609,15048.0,2414.0,2474.0,63.0,27.0,-64.0
2894.0,2779.0,2911.0,3155.0,3043.0,0.764404,0.075317,-0.64032,-0.000366,-1.0,0.0,-2.0,7647.0,997.0,1277.0,-371.0,49.0,-104.0,30.0,96.0,-375.0,0.978871,0.115615,0.168632,15258.0,2546.0,2656.0,-1.0,2.0,-35.0
2895.0,2779.0,2903.0,3155.0,3051.0,0.764404,0.07489,-0.64032,-0.001038,-5.0,-1.0,1.0,7661.0,1078.0,1287.0,-357.0,129.0,-94.0,15.0,172.0,-350.0,0.978771,0.115821,0.168697,15372.0,2218.0,2586.0,-107.0,-1.0,25.0
2893.0,2773.0,2898.0,3152.0,3043.0,0.764465,0.074402,-0.64032,-0.001343,-5.0,0.0,1.0,7662.0,1057.0,1284.0,-356.0,111.0,-99.0,22.0,155.0,-352.0,0.978805,0.115475,0.168864,15308.0,1952.0,2558.0,-108.0,7.0,39.0
2895.0,2782.0,2898.0,3153.0,3043.0,0.764648,0.073547,-0.640198,-0.001648,-3.0,1.0,0.0,7688.0,974.0,1259.0,-330.0,35.0,-128.0,62.0,80.0,-340.0,0.97881,0.114586,0.169428,15378.0,1578.0,2374.0,-55.0,40.0,18.0
2891.0,2785.0,2907.0,3153.0,3039.0,0.764771,0.073425,-0.640076,-0.001648,-1.0,2.0,-1.0,7669.0,899.0,1234.0,-349.0,-38.0,-156.0,93.0,13.0,-372.0,0.97878,0.114417,0.169788,15178.0,1344.0,2314.0,-3.0,52.0,-5.0
2891.0,2783.0,2907.0,3155.0,3055.0,0.764954,0.074036,-0.639771,-0.001404,3.0,1.0,-3.0,7603.0,822.0,1190.0,-413.0,-120.0,-205.0,136.0,-55.0,-452.0,0.978582,0.115064,0.170368,15010.0,1468.0,2298.0,87.0,43.0,-58.0
2894.0,2779.0,2902.0,3151.0,3047.0,0.765015,0.074646,-0.639648,-0.001282,4.0,1.0,-4.0,7593.0,834.0,1192.0,-422.0,-115.0,-204.0,133.0,-49.0,-461.0,0.97849,0.11585,0.170527,15198.0,1848.0,2436.0,100.0,39.0,-73.0
2895.0,2771.0,2903.0,3163.0,3039.0,0.76532,0.075806,-0.63916,-0.001404,1.0,2.0,-3.0,7634.0,962.0,1276.0,-378.0,-3.0,-128.0,56.0,49.0,-392.0,0.978111,0.117826,0.171444,15308.0,2322.0,2818.0,42.0,64.0,-58.0
2896.0,2775.0,2911.0,3155.0,3047.0,0.765503,0.07605,-0.638855,-0.001587,-1.0,2.0,-2.0,7647.0,1018.0,1314.0,-363.0,47.0,-95.0,21.0,93.0,-365.0,0.977849,0.11846,0.172078,15384.0,2352.0,2846.0,-7.0,63.0,-38.0
2895.0,2783.0,2901.0,3153.0,3051.0,0.766052,0.075867,-0.638306,-0.002075,-3.0,2.0,0.0,7703.0,1074.0,1380.0,-305.0,100.0,-42.0,-24.0,134.0,-293.0,0.977636,0.118885,0.17365,15608.0,2246.0,2912.0,-66.0,60.0,7.0
2891.0,2781.0,2903.0,3147.0,3043.0,0.766296,0.075562,-0.638,-0.002319,-3.0,2.0,0.0,7722.0,1061.0,1399.0,-285.0,88.0,-30.0,-31.0,118.0,-273.0,0.977444,0.118765,0.174461,15516.0,1994.0,2870.0,-68.0,64.0,13.0
2895.0,2774.0,2899.0,3151.0,3047.0,0.766724,0.075256,-0.637573,-0.002441,-1.0,1.0,0.0,7706.0,1019.0,1425.0,-300.0,48.0,-14.0,-46.0,78.0,-289.0,0.977317,0.118515,0.175708,15400.0,1958.0,2980.0,-13.0,32.0,6.0
2896.0,2783.0,2907.0,3154.0,3047.0,0.766785,0.075317,-0.637451,-0.002441,0.0,0.0,-1.0,7717.0,1006.0,1440.0,-288.0,34.0,-1.0,-56.0,62.0,-277.0,0.977208,0.118617,0.175948,15516.0,1930.0,2916.0,16.0,10.0,-3.0
2896.0,2779.0,2899.0,3153.0,3047.0,0.766785,0.075623,-0.63739,-0.002258,1.0,-1.0,-1.0,7750.0,1022.0,1476.0,-254.0,48.0,34.0,-85.0,68.0,-236.0,0.97714,0.118851,0.175979,15578.0,2194.0,3062.0,29.0,-5.0,-3.0
2895.0,2774.0,2906.0,3153.0,3043.0,0.766846,0.075684,-0.63739,-0.002319,0.0,-1.0,0.0,7763.0,1049.0,1477.0,-242.0,73.0,34.0,-85.0,92.0,-221.0,0.977209,0.119032,0.176064,15608.0,2256.0,2960.0,1.0,-3.0,2.0
2894.0,2777.0,2903.0,3149.0,3051.0,0.766907,0.075439,-0.637268,-0.002563,-3.0,0.0,-1.0,7770.0,1014.0,1439.0,-234.0,39.0,-5.0,-42.0,62.0,-224.0,0.977064,0.118977,0.176351,15572.0,1772.0,2778.0,-47.0,17.0,-2.0
2893.0,2783.0,2901.0,3151.0,3043.0,0.767029,0.075317,-0.637146,-0.002686,-2.0,1.0,-1.0,7764.0,972.0,1414.0,-239.0,-2.0,-33.0,-12.0,25.0,-239.0,0.977014,0.118963,0.176713,15450.0,1718.0,2646.0,-29.0,37.0,-11.0
2897.0,2780.0,2903.0,3155.0,3047.0,0.767273,0.0755,-0.636841,-0.002808,0.0,1.0,-2.0,7676.0,945.0,1369.0,-326.0,-33.0,-84.0,23.0,9.0,-337.0,0.976838,0.119435,0.177449,15070.0,1896.0,2594.0,19.0,33.0,-34.0
2895.0,2773.0,2903.0,3151.0,3055.0,0.767273,0.075745,-0.63678,-0.002869,1.0,0.0,-2.0,7648.0,942.0,1355.0,-353.0,-40.0,-99.0,33.0,7.0,-367.0,0.976733,0.119887,0.17749,15172.0,1912.0,2648.0,37.0,15.0,-34.0
2895.0,2777.0,2903.0,3151.0,3047.0,0.767273,0.076294,-0.636719,-0.002808,0.0,0.0,0.0,7640.0,1059.0,1365.0,-360.0,70.0,-88.0,11.0,115.0,-358.0,0.976646,0.120652,0.177484,15248.0,2644.0,2760.0,17.0,3.0,0.0
2895.0,2773.0,2911.0,3151.0,3051.0,0.767273,0.076233,-0.636719,-0.002991,-3.0,-1.0,1.0,7630.0,1133.0,1368.0,-370.0,143.0,-86.0,0.0,188.0,-359.0,0.976618,0.120791,0.177495,15196.0,2656.0,2724.0,-49.0,-1.0,28.0
2897.0,2779.0,2909.0,3153.0,3039.0,0.767273,0.075073,-0.636841,-0.003418,-6.0,-1.0,3.0,7622.0,1128.0,1348.0,-379.0,148.0,-106.0,18.0,196.0,-371.0,0.976748,0.119557,0.177517,15258.0,2078.0,2600.0,-132.0,-10.0,73.0
2891.0,2775.0,2896.0,3151.0,3043.0,0.767334,0.074341,-0.636963,-0.00354,-6.0,-1.0,3.0,7637.0,1069.0,1336.0,-366.0,97.0,-118.0,37.0,145.0,-367.0,0.977,0.118598,0.177566,15374.0,1740.0,2608.0,-123.0,-1.0,73.0
2895.0,2775.0,2899.0,3151.0,3057.0,0.767456,0.073303,-0.636902,-0.003601,-2.0,1.0,1.0,7654.0,935.0,1315.0,-350.0,-24.0,-143.0,75.0,26.0,-370.0,0.97706,0.117101,0.177984,15400.0,1476.0,2602.0,-45.0,31.0,35.0
2897.0,2782.0,2902.0,3153.0,3039.0,0.767578,0.07312,-0.63678,-0.003479,0.0,1.0,0.0,7669.0,882.0,1309.0,-334.0,-73.0,-152.0,91.0,-22.0,-361.0,0.977048,0.116682,0.178353,15410.0,1468.0,2608.0,4.0,45.0,13.0
2896.0,2779.0,2909.0,3155.0,3045.0,0.767822,0.073608,-0.636414,-0.003052,4.0,1.0,-2.0,7625.0,836.0,1341.0,-377.0,-121.0,-126.0,62.0,-68.0,-404.0,0.976856,0.116921,0.17912,15088.0,1650.0,2852.0,94.0,41.0,-26.0
2897.0,2775.0,2903.0,3151.0,3051.0,0.767822,0.074158,-0.636292,-0.002747,5.0,0.0,-2.0,7610.0,867.0,1382.0,-391.0,-94.0,-85.0,17.0,-45.0,-408.0,0.97671,0.117375,0.179192,15132.0,2002.0,3024.0,119.0,11.0,-29.0
2898.0,2771.0,2903.0,3151.0,3045.0,0.767761,0.075195,-0.636353,-0.00238,2.0,-2.0,0.0,7661.0,1033.0,1476.0,-340.0,62.0,10.0,-80.0,93.0,-322.0,0.976776,0.118494,0.178864,15598.0,2632.0,3258.0,60.0,-26.0,1.0
2897.0,2775.0,2934.0,3151.0,3051.0,0.7677,0.075256,-0.636353,-0.00238,-1.0,-1.0,1.0,7708.0,1088.0,1501.0,-293.0,116.0,36.0,-101.0,139.0,-265.0,0.976698,0.118578,0.178761,15712.0,2410.0,3092.0,-11.0,-20.0,26.0
2895.0,2783.0,2907.0,3153.0,3047.0,0.767883,0.074646,-0.63623,-0.002441,-3.0,1.0,1.0,7757.0,1027.0,1486.0,-244.0,62.0,17.0,-68.0,83.0,-227.0,0.976737,0.117745,0.17929,15546.0,1698.0,2860.0,-51.0,31.0,42.0
2895.0,2779.0,2907.0,3151.0,3053.0,0.768005,0.074402,-0.636108,-0.00238,-2.0,2.0,1.0,7741.0,976.0,1465.0,-260.0,14.0,-6.0,-44.0,40.0,-253.0,0.976715,0.11731,0.179668,15356.0,1664.0,2866.0,-25.0,49.0,29.0
2894.0,2779.0,2902.0,3151.0,3039.0,0.768433,0.074219,-0.635559,-0.002197,0.0,2.0,0.0,7685.0,900.0,1469.0,-314.0,-57.0,-14.0,-41.0,-24.0,-315.0,0.976443,0.116857,0.18105,15094.0,1392.0,2818.0,13.0,62.0,2.0
2893.0,2783.0,2903.0,3153.0,3055.0,0.768616,0.07428,-0.635376,-0.002075,1.0,1.0,0.0,7649.0,885.0,1480.0,-349.0,-72.0,-7.0,-53.0,-36.0,-350.0,0.976412,0.116822,0.181554,15134.0,1644.0,3092.0,24.0,40.0,1.0
2896.0,2782.0,2907.0,3151.0,3047.0,0.768677,0.074585,-0.635315,-0.001831,1.0,-2.0,-1.0,7550.0,894.0,1459.0,-448.0,-64.0,-29.0,-52.0,-16.0,-450.0,0.976431,0.11699,0.181679,14970.0,1820.0,2988.0,27.0,-29.0,-5.0
2895.0,2779.0,2903.0,3147.0,3043.0,0.768494,0.074646,-0.635437,-0.001831,0.0,-3.0,-1.0,7556.0,908.0,1461.0,-442.0,-50.0,-23.0,-57.0,-3.0,-441.0,0.976385,0.117057,0.181234,15258.0,1924.0,3018.0,19.0,-52.0,-1.0
2895.0,2779.0,2901.0,3151.0,3045.0,0.76825,0.074707,-0.635803,-0.001953,-1.0,-2.0,0.0,7604.0,976.0,1476.0,-396.0,15.0,-1.0,-76.0,53.0,-385.0,0.976619,0.117271,0.180384,15334.0,2136.0,2976.0,-20.0,-44.0,1.0
2896.0,2781.0,2907.0,3151.0,3051.0,0.768127,0.074646,-0.635925,-0.002075,-2.0,-2.0,0.0,7634.0,992.0,1492.0,-366.0,30.0,17.0,-89.0,63.0,-350.0,0.976634,0.117315,0.180051,15498.0,2012.0,3108.0,-28.0,-39.0,0.0
2895.0,2774.0,2910.0,3153.0,3046.0,0.768005,0.074829,-0.636047,-0.002136,1.0,-1.0,-1.0,7693.0,963.0,1514.0,-307.0,0.0,42.0,-99.0,25.0,-292.0,0.976656,0.117656,0.179681,15424.0,1814.0,3030.0,45.0,-19.0,-20.0
2901.0,2775.0,2902.0,3147.0,3047.0,0.767944,0.075195,-0.636108,-0.002014,3.0,-2.0,-2.0,7663.0,959.0,1499.0,-338.0,-8.0,28.0,-91.0,22.0,-326.0,0.976689,0.118054,0.179454,15096.0,1910.0,2918.0,86.0,-34.0,-31.0
2895.0,2775.0,2919.0,3151.0,3039.0,0.767456,0.076294,-0.636536,-0.001648,3.0,-3.0,-2.0,7669.0,988.0,1454.0,-332.0,11.0,-4.0,-60.0,44.0,-323.0,0.976775,0.119202,0.177993,15418.0,2138.0,2668.0,88.0,-58.0,-24.0
2899.0,2775.0,2899.0,3155.0,3043.0,0.767273,0.076599,-0.636719,-0.001587,1.0,-2.0,-1.0,7677.0,1019.0,1409.0,-325.0,39.0,-44.0,-22.0,76.0,-320.0,0.976831,0.119566,0.177432,15384.0,2226.0,2554.0,41.0,-37.0,-7.0
2895.0,2775.0,2911.0,3151.0,3051.0,0.767212,0.076233,-0.636841,-0.001892,-5.0,1.0,1.0,7674.0,1015.0,1311.0,-328.0,37.0,-140.0,71.0,85.0,-340.0,0.976895,0.119384,0.17724,15266.0,1826.0,2302.0,-92.0,28.0,25.0
2894.0,2781.0,2898.0,3151.0,3046.0,0.767334,0.075684,-0.636719,-0.002075,-5.0,2.0,1.0,7650.0,962.0,1267.0,-352.0,-11.0,-188.0,118.0,45.0,-378.0,0.976838,0.118792,0.177667,15162.0,1596.0,2282.0,-114.0,55.0,31.0
2891.0,2783.0,2913.0,3151.0,3051.0,0.767822,0.074646,-0.636292,-0.002441,-4.0,3.0,0.0,7636.0,858.0,1241.0,-365.0,-106.0,-226.0,161.0,-43.0,-409.0,0.976753,0.117737,0.179118,15272.0,1458.0,2528.0,-74.0,84.0,5.0
2895.0,2778.0,2911.0,3155.0,3043.0,0.768066,0.074463,-0.635986,-0.002563,-2.0,3.0,-1.0,7639.0,843.0,1257.0,-361.0,-120.0,-216.0,153.0,-59.0,-405.0,0.976578,0.117646,0.179909,15298.0,1632.0,2650.0,-29.0,85.0,-17.0
2895.0,2779.0,2907.0,3153.0,3047.0,0.768555,0.074951,-0.635376,-0.002625,2.0,2.0,-3.0,7674.0,924.0,1359.0,-323.0,-47.0,-126.0,65.0,0.0,-343.0,0.976249,0.118543,0.181363,15502.0,2254.0,3154.0,55.0,66.0,-48.0
2896.0,2771.0,2903.0,3151.0,3045.0,0.768738,0.0755,-0.635071,-0.002625,3.0,2.0,-3.0,7686.0,1013.0,1419.0,-309.0,34.0,-71.0,6.0,72.0,-310.0,0.97601,0.119414,0.181949,15424.0,2608.0,3184.0,70.0,51.0,-47.0
2896.0,2775.0,2911.0,3151.0,3051.0,0.769043,0.076294,-0.634644,-0.002747,0.0,0.0,-1.0,7723.0,1190.0,1526.0,-270.0,200.0,28.0,-98.0,221.0,-234.0,0.975717,0.120833,0.182841,15580.0,2798.0,3298.0,19.0,18.0,-2.0
2891.0,2781.0,2903.0,3147.0,3039.0,0.769104,0.076355,-0.634521,-0.002808,-1.0,0.0,1.0,7739.0,1226.0,1545.0,-253.0,234.0,45.0,-114.0,251.0,-210.0,0.975597,0.121013,0.183081,15546.0,2618.0,3166.0,-12.0,15.0,25.0
2897.0,2781.0,2899.0,3151.0,3046.0,0.769287,0.075989,-0.634399,-0.002747,-1.0,0.0,1.0,7753.0,1133.0,1526.0,-239.0,146.0,22.0,-81.0,165.0,-211.0,0.975653,0.120399,0.183573,15522.0,1762.0,2910.0,-17.0,7.0,42.0
2893.0,2778.0,2903.0,3133.0,3047.0,0.769287,0.075867,-0.634338,-0.002502,0.0,0.0,1.0,7729.0,1062.0,1503.0,-263.0,79.0,-1.0,-57.0,104.0,-247.0,0.975597,0.119901,0.183668,15256.0,1738.0,2874.0,12.0,10.0,35.0
2889.0,2775.0,2903.0,3151.0,3043.0,0.769226,0.075867,-0.634399,-0.002136,1.0,-1.0,1.0,7691.0,987.0,1482.0,-301.0,8.0,-21.0,-38.0,40.0,-296.0,0.975669,0.119428,0.183495,15364.0,1828.0,2944.0,26.0,-8.0,24.0
2896.0,2778.0,2899.0,3153.0,3047.0,0.769226,0.075867,-0.63446,-0.001892,1.0,-1.0,1.0,7687.0,966.0,1472.0,-306.0,-9.0,-30.0,-29.0,24.0,-305.0,0.9758,0.119118,0.183417,15328.0,1802.0,2886.0,24.0,-5.0,24.0
2898.0,2778.0,2907.0,3159.0,3053.0,0.769165,0.075867,-0.63446,-0.001648,0.0,0.0,0.0,7705.0,939.0,1463.0,-288.0,-34.0,-38.0,-15.0,0.0,-292.0,0.97576,0.118799,0.183322,15470.0,1808.0,2904.0,18.0,2.0,13.0
2896.0,2773.0,2899.0,3154.0,3047.0,0.769226,0.075867,-0.63446,-0.001526,0.0,0.0,0.0,7695.0,939.0,1469.0,-299.0,-33.0,-33.0,-22.0,0.0,-301.0,0.975856,0.118654,0.183415,15310.0,1932.0,2998.0,18.0,14.0,11.0
2895.0,2775.0,2899.0,3147.0,3047.0,0.769409,0.075806,-0.634216,-0.001465,-2.0,0.0,0.0,7654.0,1010.0,1489.0,-339.0,39.0,-18.0,-52.0,73.0,-329.0,0.975722,0.118509,0.184016,15212.0,2174.0,3048.0,-32.0,18.0,21.0
2894.0,2773.0,2907.0,3153.0,3047.0,0.769531,0.075562,-0.634155,-0.001587,-3.0,0.0,1.0,7636.0,1027.0,1497.0,-357.0,57.0,-12.0,-63.0,92.0,-343.0,0.975765,0.118307,0.184318,15172.0,2144.0,3070.0,-58.0,17.0,29.0
2895.0,2779.0,2907.0,3152.0,3039.0,0.769714,0.07489,-0.633972,-0.001892,-4.0,0.0,1.0,7615.0,1027.0,1516.0,-377.0,62.0,1.0,-80.0,98.0,-360.0,0.975672,0.117687,0.184935,15226.0,1940.0,3040.0,-69.0,12.0,29.0
2895.0,2773.0,2901.0,3151.0,3047.0,0.769775,0.074585,-0.633911,-0.001953,-2.0,0.0,0.0,7622.0,988.0,1518.0,-370.0,27.0,1.0,-76.0,62.0,-357.0,0.975647,0.117304,0.185152,15284.0,1712.0,3048.0,-44.0,11.0,19.0
2898.0,2778.0,2910.0,3153.0,3051.0,0.769836,0.074524,-0.63385,-0.001953,0.0,0.0,0.0,7631.0,952.0,1513.0,-361.0,-8.0,-5.0,-65.0,27.0,-354.0,0.975631,0.117218,0.185332,15374.0,1716.0,3014.0,2.0,4.0,4.0
2896.0,2779.0,2903.0,3151.0,3039.0,0.769897,0.074951,-0.633789,-0.001709,2.0,0.0,-1.0,7670.0,954.0,1529.0,-322.0,-9.0,9.0,-71.0,21.0,-313.0,0.975649,0.117576,0.185439,15420.0,2042.0,3120.0,59.0,7.0,-20.0
2895.0,2773.0,2901.0,3151.0,3043.0,0.769897,0.075256,-0.633667,-0.001648,2.0,0.0,-1.0,7672.0,976.0,1530.0,-319.0,9.0,9.0,-72.0,39.0,-308.0,0.975469,0.117968,0.185547,15300.0,2086.0,3000.0,56.0,6.0,-14.0
26.0,-2.0,13.0,-327.0,0.993457,-0.092526,-0.066842,15714.0,-1342.0,-844.0,11.0,17.0,12.0,,,,,,,,,,,,,,,,,
2903.0,2777.0,2903.0,3155.0,3043.0,0.683167,-0.07312,-0.726624,-0.005005,0.0,0.0,0.0,7837.0,-696.0,-477.0,-302.0,62.0,68.0,-43.0,38.0,-310.0,0.993542,-0.092633,-0.066587,15796.0,-1260.0,-682.0,4.0,13.0,12.0
2899.0,2777.0,2911.0,3151.0,3047.0,0.68335,-0.073242,-0.726379,-0.005127,-2.0,0.0,0.0,7845.0,-662.0,-429.0,-293.0,97.0,111.0,-82.0,78.0,-307.0,0.993493,-0.092652,-0.065998,15638.0,-1290.0,-744.0,-24.0,15.0,19.0
2901.0,2783.0,2906.0,3158.0,3054.0,0.683411,-0.073425,-0.726318,-0.005188,-2.0,0.0,0.0,7844.0,-681.0,-436.0,-294.0,79.0,103.0,-76.0,59.0,-306.0,0.993509,-0.092823,-0.065853,15682.0,-1518.0,-922.0,-33.0,4.0,21.0
2903.0,2783.0,2899.0,3159.0,3047.0,0.683472,-0.07373,-0.726196,-0.005127,-1.0,0.0,0.0,7862.0,-746.0,-449.0,-276.0,18.0,88.0,-70.0,0.0,-281.0,0.993425,-0.093339,-0.065637,15698.0,-1596.0,-922.0,-3.0,7.0,13.0
2899.0,2771.0,2903.0,3149.0,3045.0,0.683533,-0.07373,-0.726196,-0.005066,0.0,0.0,0.0,7866.0,-759.0,-457.0,-272.0,6.0,80.0,-63.0,-12.0,-276.0,0.993505,-0.093437,-0.065555,15782.0,-1572.0,-948.0,7.0,6.0,7.0
2896.0,2781.0,2907.0,3153.0,3055.0,0.683655,-0.07373,-0.726074,-0.005005,-1.0,0.0,0.0,7849.0,-732.0,-496.0,-289.0,34.0,38.0,-18.0,8.0,-292.0,0.993506,-0.093545,-0.065211,15596.0,-1418.0,-1192.0,-6.0,13.0,3.0
2901.0,2783.0,2911.0,3151.0,3054.0,0.683655,-0.073792,-0.726074,-0.005066,-1.0,0.0,0.0,7839.0,-743.0,-521.0,-299.0,23.0,13.0,5.0,-5.0,-300.0,0.993516,-0.093539,-0.065219,15610.0,-1556.0,-1170.0,-18.0,9.0,3.0
2899.0,2781.0,2903.0,3149.0,3051.0,0.683594,-0.073975,-0.726074,-0.005066,-1.0,-1.0,0.0,7809.0,-761.0,-530.0,-329.0,7.0,5.0,13.0,-25.0,-327.0,0.993429,-0.093781,-0.06533,15624.0,-1466.0,-964.0,-8.0,-9.0,8.0
2901.0,2815.0,2911.0,3151.0,3047.0,0.683533,-0.074036,-0.726135,-0.005127,-1.0,-1.0,0.0,7822.0,-743.0,-502.0,-316.0,25.0,34.0,-13.0,-3.0,-318.0,0.993434,-0.093766,-0.06551,15772.0,-1400.0,-842.0,-16.0,-19.0,7.0
2903.0,2783.0,2903.0,3151.0,3047.0,0.683411,-0.074219,-0.726257,-0.005249,-2.0,-2.0,0.0,7858.0,-699.0,-445.0,-280.0,69.0,94.0,-69.0,50.0,-290.0,0.993443,-0.093819,-0.06588,15824.0,-1270.0,-738.0,-26.0,-30.0,8.0
2907.0,2783.0,2911.0,3155.0,3063.0,0.683289,-0.074341,-0.726318,-0.005371,-1.0,-2.0,0.0,7874.0,-679.0,-429.0,-263.0,89.0,112.0,-86.0,73.0,-277.0,0.993369,-0.09379,-0.066153,15842.0,-1210.0,-778.0,-21.0,-37.0,16.0
2903.0,2783.0,2907.0,3153.0,3043.0,0.683044,-0.074524,-0.726562,-0.00531,-1.0,-3.0,1.0,7898.0,-674.0,-452.0,-239.0,96.0,95.0,-69.0,81.0,-252.0,0.99334,-0.09409,-0.066869,15834.0,-1410.0,-1052.0,-10.0,-46.0,31.0
2899.0,2779.0,2901.0,3153.0,3047.0,0.682861,-0.074707,-0.726746,-0.005188,-1.0,-2.0,1.0,7914.0,-680.0,-473.0,-223.0,94.0,79.0,-54.0,78.0,-235.0,0.993308,-0.094488,-0.067414,15930.0,-1392.0,-1036.0,-6.0,-45.0,37.0
2897.0,2783.0,2903.0,3151.0,3043.0,0.682556,-0.075134,-0.726929,-0.005066,-2.0,-2.0,1.0,7893.0,-683.0,-521.0,-242.0,96.0,37.0,-11.0,74.0,-251.0,0.993101,-0.095202,-0.068162,15696.0,-1412.0,-1170.0,-34.0,-34.0,43.0
2899.0,2779.0,2915.0,3155.0,3045.0,0.682373,-0.075439,-0.727051,-0.005066,-2.0,-2.0,1.0,7888.0,-723.0,-540.0,-246.0,60.0,22.0,0.0,36.0,-251.0,0.993004,-0.095589,-0.068635,15794.0,-1720.0,-1164.0,-43.0,-31.0,36.0
2903.0,2782.0,2899.0,3155.0,3047.0,0.682251,-0.075867,-0.727173,-0.005066,-1.0,0.0,0.0,7903.0,-794.0,-558.0,-231.0,-6.0,7.0,5.0,-29.0,-229.0,0.992997,-0.096153,-0.069044,15926.0,-1712.0,-1088.0,-20.0,1.0,13.0
2899.0,2783.0,2899.0,3152.0,3043.0,0.682312,-0.075989,-0.727051,-0.005066,-1.0,1.0,0.0,7893.0,-794.0,-543.0,-241.0,-4.0,20.0,-6.0,-26.0,-240.0,0.992921,-0.09633,-0.068802,15614.0,-1538.0,-962.0,-16.0,24.0,7.0
2907.0,2775.0,2902.0,3153.0,3047.0,0.682495,-0.076233,-0.726929,-0.005371,-3.0,0.0,0.0,7870.0,-730.0,-504.0,-265.0,58.0,56.0,-33.0,36.0,-272.0,0.99307,-0.096248,-0.068408,15824.0,-1316.0,-876.0,-49.0,13.0,7.0
2902.0,2787.0,2903.0,3159.0,3055.0,0.682556,-0.076416,-0.726807,-0.005554,-3.0,0.0,0.0,7883.0,-716.0,-486.0,-251.0,72.0,72.0,-48.0,53.0,-261.0,0.993022,-0.096243,-0.068174,15810.0,-1294.0,-898.0,-53.0,16.0,13.0
2909.0,2777.0,2911.0,3153.0,3039.0,0.682556,-0.076904,-0.726746,-0.00592,-3.0,-1.0,1.0,7857.0,-696.0,-467.0,-277.0,93.0,91.0,-63.0,73.0,-290.0,0.993,-0.096378,-0.068155,15690.0,-1404.0,-828.0,-54.0,-21.0,25.0
2899.0,2781.0,2899.0,3153.0,3054.0,0.682434,-0.077209,-0.726868,-0.005981,-3.0,-2.0,1.0,7865.0,-689.0,-461.0,-269.0,103.0,100.0,-71.0,85.0,-283.0,0.993002,-0.096685,-0.068546,15800.0,-1346.0,-914.0,-46.0,-36.0,29.0
2907.0,2779.0,2895.0,3151.0,3051.0,0.68219,-0.077759,-0.72699,-0.006165,-3.0,-2.0,1.0,7910.0,-674.0,-463.0,-223.0,121.0,103.0,-74.0,108.0,-240.0,0.992849,-0.097129,-0.069139,15998.0,-1360.0,-958.0,-57.0,-29.0,40.0
