flex_1,flex_2,flex_3,flex_4,flex_5,Qw,Qx,Qy,Qz,GYRx,GYRy,GYRz,ACCx,ACCy,ACCz,ACCx_real,ACCy_real,ACCz_real,ACCx_world,ACCy_world,ACCz_world,GRAx,GRAy,GRAz,ACCx_raw,ACCy_raw,ACCz_raw,GYRx_raw,GYRy_raw,GYRz_raw
2847.0,2775.0,2847.0,3095.0,2989.0,1.0,0.0,0.0,0.0,0.0,0.0,0.0,0.0,0.0,0.0,0.0,0.0,0.0,0.0,0.0,0.0,0.0,0.0,0.0,0.0,0.0,0.0,0.0,0.0,0.0
2851.0,2787.0,2855.0,3091.0,2999.0,0.909058,0.100525,-0.404358,0.000793,0.0,-1.0,0.0,6931.0,1786.0,3268.0,907.0,294.0,-2079.0,2114.0,596.0,-636.0,0.735329,0.182124,0.652776,13828.0,3412.0,6502.0,2.0,-6.0,14.0
2839.0,2775.0,2855.0,3101.0,2991.0,0.908081,0.101196,-0.406311,0.000916,1.0,-1.0,0.0,6911.0,1757.0,3255.0,864.0,257.0,-2063.0,2079.0,562.0,-654.0,0.738112,0.183045,0.649283,13792.0,3480.0,6552.0,36.0,-15.0,1.0
2847.0,2772.0,2843.0,3091.0,3011.0,0.907593,0.101624,-0.407288,0.000977,1.0,-1.0,-1.0,6908.0,1776.0,3263.0,850.0,271.0,-2041.0,2053.0,574.0,-643.0,0.739501,0.18367,0.647515,13812.0,3724.0,6582.0,34.0,-17.0,-7.0
2847.0,2779.0,2853.0,3089.0,2997.0,0.906677,0.102234,-0.40918,0.000793,-2.0,-1.0,-1.0,6917.0,1825.0,3270.0,837.0,311.0,-2007.0,2019.0,609.0,-614.0,0.74215,0.184737,0.644184,13844.0,3672.0,6556.0,-24.0,-11.0,-6.0
2859.0,2790.0,2847.0,3091.0,2994.0,0.90625,0.102295,-0.410095,0.000732,-2.0,-1.0,-1.0,6916.0,1809.0,3264.0,825.0,295.0,-2000.0,2008.0,592.0,-617.0,0.743447,0.184809,0.642647,13822.0,3492.0,6464.0,-35.0,-5.0,-1.0
2857.0,2789.0,2863.0,3089.0,3007.0,0.905457,0.102539,-0.411865,0.00061,0.0,-1.0,-1.0,6905.0,1744.0,3225.0,793.0,226.0,-2015.0,2007.0,530.0,-655.0,0.745977,0.185187,0.639705,13784.0,3388.0,6328.0,3.0,0.0,-4.0
2857.0,2773.0,2854.0,3103.0,3007.0,0.905029,0.102905,-0.41272,0.00061,1.0,-1.0,-1.0,6897.0,1751.0,3211.0,776.0,229.0,-2016.0,1997.0,535.0,-664.0,0.747172,0.185761,0.638151,13730.0,3570.0,6372.0,27.0,-4.0,-12.0
2850.0,2778.0,2853.0,3090.0,2995.0,0.904114,0.10376,-0.41449,0.000488,0.0,-1.0,-1.0,6909.0,1808.0,3220.0,768.0,274.0,-1980.0,1964.0,575.0,-630.0,0.749593,0.187216,0.634854,13924.0,3760.0,6492.0,10.0,-11.0,-19.0
2851.0,2783.0,2853.0,3093.0,2993.0,0.903625,0.104004,-0.415405,0.000366,-1.0,-1.0,-1.0,6928.0,1823.0,3226.0,777.0,285.0,-1960.0,1955.0,581.0,-604.0,0.750818,0.187657,0.633161,13980.0,3746.0,6464.0,-7.0,-8.0,-18.0
2854.0,2777.0,2847.0,3103.0,3006.0,0.902832,0.104553,-0.417114,0.000122,-1.0,0.0,-1.0,6959.0,1817.0,3204.0,788.0,271.0,-1958.0,1964.0,566.0,-589.0,0.753194,0.188686,0.63019,13974.0,3636.0,6364.0,-1.0,8.0,-17.0
2847.0,2779.0,2867.0,3114.0,2995.0,0.902405,0.104858,-0.417908,6.1e-05,0.0,0.0,-1.0,6953.0,1822.0,3205.0,774.0,272.0,-1945.0,1946.0,566.0,-587.0,0.754257,0.189198,0.628692,13836.0,3698.0,6438.0,17.0,10.0,-12.0
2847.0,2783.0,2867.0,3071.0,2999.0,0.90155,0.105652,-0.419495,0.000122,1.0,-1.0,0.0,6930.0,1846.0,3213.0,733.0,286.0,-1912.0,1895.0,579.0,-587.0,0.756417,0.190399,0.625655,13858.0,3740.0,6494.0,27.0,-2.0,1.0
2845.0,2783.0,2855.0,3099.0,3007.0,0.901123,0.106018,-0.420288,0.000183,1.0,-1.0,0.0,6930.0,1844.0,3221.0,724.0,280.0,-1891.0,1875.0,571.0,-578.0,0.757501,0.190917,0.624141,13850.0,3650.0,6492.0,26.0,-8.0,7.0
2847.0,2783.0,2853.0,3107.0,3011.0,0.900269,0.10675,-0.421997,0.000305,1.0,-1.0,-1.0,6935.0,1829.0,3238.0,710.0,256.0,-1849.0,1838.0,542.0,-559.0,0.759887,0.191951,0.621006,13894.0,3626.0,6478.0,34.0,-15.0,-2.0
2845.0,2771.0,2846.0,3103.0,2999.0,0.89978,0.107178,-0.422852,0.000366,1.0,-1.0,-1.0,6941.0,1826.0,3238.0,706.0,248.0,-1835.0,1827.0,533.0,-551.0,0.761025,0.192563,0.619314,13926.0,3646.0,6484.0,39.0,-12.0,-9.0
2855.0,2783.0,2863.0,3093.0,3007.0,0.898926,0.108032,-0.424561,0.000366,1.0,-1.0,-1.0,6942.0,1831.0,3251.0,688.0,242.0,-1796.0,1788.0,523.0,-534.0,0.763376,0.193915,0.616145,13918.0,3722.0,6554.0,38.0,-15.0,-14.0
2847.0,2768.0,2841.0,3091.0,3007.0,0.898499,0.108459,-0.425354,0.000305,1.0,-1.0,-1.0,6947.0,1839.0,3254.0,684.0,244.0,-1780.0,1774.0,522.0,-523.0,0.764426,0.194642,0.61461,13908.0,3734.0,6550.0,24.0,-11.0,-12.0
2851.0,2787.0,2847.0,3110.0,3015.0,0.897644,0.10907,-0.426941,0.000366,0.0,-1.0,0.0,6942.0,1844.0,3244.0,662.0,242.0,-1766.0,1751.0,521.0,-525.0,0.766562,0.195499,0.61159,13860.0,3746.0,6396.0,11.0,-3.0,9.0
2847.0,2775.0,2851.0,3099.0,2991.0,0.897278,0.109314,-0.427734,0.000427,0.0,-1.0,0.0,6934.0,1844.0,3233.0,645.0,239.0,-1765.0,1741.0,520.0,-535.0,0.767687,0.195805,0.610201,13800.0,3642.0,6404.0,11.0,-4.0,13.0
2842.0,2771.0,2839.0,3099.0,2992.0,0.896423,0.109863,-0.429321,0.00061,1.0,-1.0,0.0,6915.0,1817.0,3218.0,608.0,207.0,-1756.0,1715.0,492.0,-557.0,0.769841,0.196444,0.607188,13808.0,3572.0,6430.0,34.0,-14.0,12.0
2855.0,2789.0,2851.0,3071.0,2990.0,0.895996,0.110291,-0.430115,0.000732,1.0,-1.0,0.0,6912.0,1813.0,3220.0,596.0,199.0,-1741.0,1697.0,483.0,-555.0,0.770924,0.19701,0.605647,13820.0,3598.0,6440.0,45.0,-20.0,6.0
2851.0,2783.0,2859.0,3093.0,3005.0,0.895081,0.111084,-0.431763,0.000854,1.0,-1.0,-1.0,6920.0,1802.0,3222.0,586.0,178.0,-1712.0,1673.0,459.0,-543.0,0.773115,0.19812,0.602411,13878.0,3556.0,6492.0,39.0,-22.0,-8.0
2863.0,2790.0,2847.0,3089.0,2995.0,0.894653,0.111511,-0.432556,0.000916,1.0,-1.0,-1.0,6928.0,1788.0,3220.0,585.0,159.0,-1702.0,1667.0,440.0,-538.0,0.77418,0.198736,0.600866,13912.0,3478.0,6404.0,43.0,-17.0,-17.0
2859.0,2775.0,2851.0,3087.0,2991.0,0.893799,0.112366,-0.434082,0.000793,1.0,-1.0,-2.0,6941.0,1823.0,3222.0,582.0,183.0,-1675.0,1643.0,460.0,-513.0,0.776142,0.200176,0.597824,13940.0,3804.0,6492.0,24.0,-8.0,-32.0
2861.0,2785.0,2859.0,3103.0,3007.0,0.893433,0.112671,-0.434753,0.00061,-1.0,-1.0,-2.0,6950.0,1847.0,3230.0,584.0,202.0,-1656.0,1629.0,474.0,-493.0,0.776983,0.200797,0.596517,13972.0,3818.0,6530.0,-3.0,-1.0,-30.0
2853.0,2783.0,2863.0,3071.0,3005.0,0.892761,0.112976,-0.436035,0.000305,-2.0,0.0,-1.0,6951.0,1839.0,3232.0,572.0,188.0,-1635.0,1608.0,457.0,-488.0,0.77862,0.201455,0.594132,13902.0,3614.0,6454.0,-25.0,14.0,-10.0
2843.0,2775.0,2865.0,3115.0,3019.0,0.892456,0.113037,-0.436646,0.000244,-1.0,0.0,-1.0,6948.0,1824.0,3227.0,562.0,172.0,-1631.0,1601.0,441.0,-494.0,0.779429,0.201548,0.593041,13878.0,3582.0,6414.0,-11.0,14.0,-5.0
2845.0,2783.0,2855.0,3093.0,2991.0,0.891785,0.113586,-0.437866,0.000244,0.0,0.0,-1.0,6930.0,1833.0,3216.0,531.0,175.0,-1622.0,1576.0,446.0,-507.0,0.78102,0.202375,0.590651,13818.0,3726.0,6374.0,21.0,8.0,-14.0
2853.0,2789.0,2865.0,3111.0,2998.0,0.891418,0.113953,-0.438538,0.000244,1.0,0.0,-1.0,6931.0,1831.0,3219.0,525.0,168.0,-1608.0,1563.0,438.0,-503.0,0.781897,0.202945,0.589327,13866.0,3658.0,6456.0,33.0,1.0,-18.0
2858.0,2777.0,2847.0,3103.0,2987.0,0.890625,0.114929,-0.43988,0.000183,1.0,-1.0,-2.0,6925.0,1875.0,3223.0,505.0,199.0,-1581.0,1528.0,466.0,-490.0,0.783579,0.204557,0.586509,13824.0,4038.0,6512.0,45.0,-12.0,-24.0
2858.0,2783.0,2858.0,3094.0,2993.0,0.890259,0.115295,-0.440552,6.1e-05,0.0,-1.0,-1.0,6926.0,1932.0,3243.0,499.0,250.0,-1550.0,1495.0,510.0,-464.0,0.784424,0.205232,0.585182,13876.0,4206.0,6588.0,13.0,-16.0,-21.0
2845.0,2783.0,2853.0,3091.0,2995.0,0.889587,0.115601,-0.441895,-0.000366,-3.0,-1.0,-1.0,6943.0,1972.0,3254.0,503.0,284.0,-1519.0,1472.0,536.0,-431.0,0.786123,0.205997,0.582732,13898.0,3876.0,6464.0,-61.0,-7.0,-9.0
2859.0,2775.0,2861.0,3103.0,3006.0,0.889282,0.115479,-0.442566,-0.000549,-4.0,-1.0,-1.0,6942.0,1930.0,3235.0,494.0,243.0,-1529.0,1479.0,498.0,-450.0,0.787005,0.205872,0.581623,13850.0,3572.0,6316.0,-69.0,0.0,-1.0
2842.0,2781.0,2863.0,3103.0,3011.0,0.888611,0.115417,-0.443848,-0.000671,-1.0,-1.0,-1.0,6907.0,1832.0,3170.0,446.0,146.0,-1575.0,1498.0,418.0,-530.0,0.788661,0.205718,0.579308,13698.0,3476.0,6230.0,-7.0,0.0,-3.0
2843.0,2773.0,2864.0,3094.0,3022.0,0.888245,0.115662,-0.444519,-0.000671,0.0,-1.0,-1.0,6893.0,1832.0,3157.0,425.0,143.0,-1578.0,1488.0,418.0,-547.0,0.789528,0.206069,0.578004,13722.0,3702.0,6280.0,17.0,-5.0,-10.0
2859.0,2771.0,2851.0,3093.0,3015.0,0.887573,0.116272,-0.44574,-0.000732,0.0,0.0,-1.0,6905.0,1865.0,3167.0,424.0,168.0,-1548.0,1463.0,437.0,-520.0,0.791083,0.207053,0.575584,13882.0,3870.0,6378.0,17.0,1.0,-9.0
2843.0,2787.0,2862.0,3103.0,3035.0,0.887207,0.116516,-0.44635,-0.000732,0.0,0.0,-1.0,6913.0,1894.0,3175.0,426.0,194.0,-1529.0,1447.0,458.0,-500.0,0.791839,0.207402,0.574332,13856.0,3974.0,6410.0,5.0,10.0,-3.0
2854.0,2785.0,2861.0,3093.0,3007.0,0.886658,0.11676,-0.447388,-0.000916,-3.0,0.0,0.0,6926.0,1965.0,3196.0,428.0,262.0,-1492.0,1413.0,517.0,-460.0,0.793146,0.207872,0.572374,13882.0,4084.0,6432.0,-50.0,13.0,13.0
2847.0,2775.0,2853.0,3103.0,3007.0,0.886414,0.116638,-0.447937,-0.000977,-4.0,0.0,1.0,6937.0,1968.0,3207.0,433.0,266.0,-1474.0,1402.0,516.0,-443.0,0.793887,0.207654,0.571478,13946.0,3912.0,6466.0,-70.0,14.0,23.0
2851.0,2783.0,2842.0,3095.0,3039.0,0.885925,0.116211,-0.449036,-0.000977,-3.0,0.0,1.0,6952.0,1924.0,3209.0,436.0,230.0,-1458.0,1396.0,476.0,-436.0,0.795397,0.206785,0.569727,13892.0,3654.0,6430.0,-60.0,16.0,40.0
2859.0,2786.0,2843.0,3071.0,2992.0,0.88562,0.116089,-0.449585,-0.000916,-2.0,0.0,1.0,6949.0,1886.0,3195.0,427.0,194.0,-1463.0,1399.0,443.0,-452.0,0.79611,0.206444,0.568721,13876.0,3532.0,6274.0,-45.0,12.0,40.0
2851.0,2773.0,2845.0,3115.0,2995.0,0.88501,0.116089,-0.450806,-0.000671,0.0,-1.0,1.0,6947.0,1822.0,3190.0,411.0,133.0,-1451.0,1388.0,383.0,-466.0,0.797779,0.206085,0.56654,13892.0,3534.0,6400.0,8.0,-2.0,28.0
2846.0,2775.0,2839.0,3095.0,2999.0,0.884705,0.116272,-0.451416,-0.000488,0.0,-1.0,0.0,6941.0,1823.0,3203.0,398.0,134.0,-1428.0,1362.0,381.0,-461.0,0.798626,0.206174,0.565407,13844.0,3682.0,6482.0,19.0,-7.0,22.0
2851.0,2787.0,2863.0,3091.0,2997.0,0.884033,0.116516,-0.452698,-0.000366,-2.0,-1.0,0.0,6946.0,1868.0,3245.0,389.0,177.0,-1367.0,1305.0,412.0,-421.0,0.800314,0.20634,0.563004,13950.0,3862.0,6614.0,-23.0,-11.0,22.0
2855.0,2794.0,2843.0,3093.0,3007.0,0.883728,0.116394,-0.453247,-0.000366,-3.0,0.0,1.0,6956.0,1881.0,3262.0,394.0,193.0,-1341.0,1286.0,421.0,-398.0,0.801009,0.206053,0.561995,13964.0,3834.0,6662.0,-60.0,1.0,30.0
2857.0,2785.0,2866.0,3095.0,3003.0,0.883362,0.11554,-0.454163,-0.000427,-6.0,1.0,2.0,6959.0,1880.0,3271.0,386.0,204.0,-1322.0,1266.0,427.0,-389.0,0.802281,0.204515,0.560715,13900.0,3810.0,6540.0,-123.0,33.0,61.0
2847.0,2775.0,2841.0,3109.0,2995.0,0.88324,0.114929,-0.454529,-0.000488,-7.0,2.0,2.0,6958.0,1896.0,3270.0,381.0,229.0,-1320.0,1259.0,450.0,-387.0,0.802804,0.203464,0.560308,13910.0,3900.0,6528.0,-148.0,46.0,64.0
2849.0,2775.0,2835.0,3099.0,2992.0,0.883179,0.113281,-0.455078,-0.000854,-10.0,3.0,2.0,6969.0,1881.0,3243.0,385.0,235.0,-1345.0,1283.0,456.0,-396.0,0.803637,0.200873,0.560077,14028.0,3460.0,6404.0,-208.0,73.0,48.0
2850.0,2781.0,2850.0,3109.0,2999.0,0.883179,0.112366,-0.455261,-0.001099,-9.0,4.0,1.0,6972.0,1801.0,3224.0,386.0,166.0,-1364.0,1306.0,390.0,-420.0,0.803907,0.199478,0.560117,13944.0,3078.0,6298.0,-201.0,92.0,40.0
2847.0,2775.0,2815.0,3087.0,3003.0,0.883301,0.110901,-0.455505,-0.001282,-5.0,4.0,1.0,6897.0,1606.0,3177.0,307.0,-8.0,-1414.0,1318.0,235.0,-547.0,0.804412,0.197085,0.560438,13476.0,2642.0,6206.0,-101.0,99.0,26.0
2843.0,2769.0,2851.0,3091.0,3003.0,0.88324,0.110596,-0.455688,-0.001221,-2.0,3.0,0.0,6847.0,1517.0,3159.0,254.0,-92.0,-1430.0,1309.0,161.0,-614.0,0.804694,0.196478,0.560231,13384.0,2494.0,6258.0,-27.0,74.0,9.0
2845.0,2783.0,2851.0,3095.0,3003.0,0.882751,0.111267,-0.456421,-0.000854,4.0,0.0,-2.0,6788.0,1465.0,3194.0,188.0,-150.0,-1381.0,1237.0,104.0,-649.0,0.805622,0.197222,0.55855,13558.0,3044.0,6604.0,99.0,6.0,-24.0
2853.0,2791.0,2862.0,3102.0,3007.0,0.882446,0.111877,-0.456909,-0.000732,4.0,-1.0,-2.0,6801.0,1508.0,3244.0,196.0,-115.0,-1322.0,1192.0,127.0,-601.0,0.806232,0.198121,0.557429,13698.0,3318.0,6796.0,105.0,-9.0,-36.0
2845.0,2778.0,2863.0,3110.0,3007.0,0.881775,0.113159,-0.457825,-0.000732,3.0,-1.0,-3.0,6856.0,1584.0,3307.0,243.0,-56.0,-1240.0,1148.0,166.0,-503.0,0.807231,0.200232,0.555119,13854.0,3362.0,6696.0,75.0,-1.0,-53.0
2853.0,2775.0,2861.0,3115.0,3003.0,0.88147,0.113708,-0.458252,-0.000854,2.0,0.0,-3.0,6868.0,1625.0,3313.0,251.0,-23.0,-1225.0,1137.0,195.0,-480.0,0.807676,0.201244,0.554065,13806.0,3526.0,6690.0,62.0,3.0,-56.0
2849.0,2774.0,2855.0,3107.0,2990.0,0.880981,0.114624,-0.458984,-0.001282,0.0,1.0,-3.0,6916.0,1735.0,3329.0,293.0,70.0,-1195.0,1129.0,276.0,-408.0,0.80842,0.20314,0.552325,14010.0,3708.0,6668.0,9.0,29.0,-64.0
2859.0,2797.0,2867.0,3101.0,3003.0,0.880859,0.114868,-0.459229,-0.001587,-1.0,2.0,-3.0,6939.0,1762.0,3325.0,314.0,92.0,-1195.0,1139.0,295.0,-386.0,0.808667,0.203823,0.55183,13986.0,3684.0,6602.0,-14.0,47.0,-60.0
2855.0,2783.0,2859.0,3071.0,3006.0,0.880676,0.115112,-0.459534,-0.002014,-2.0,3.0,-2.0,6940.0,1785.0,3307.0,313.0,108.0,-1208.0,1148.0,313.0,-390.0,0.808937,0.204605,0.551173,13830.0,3648.0,6534.0,-30.0,77.0,-27.0
2850.0,2771.0,2855.0,3095.0,2990.0,0.880615,0.115173,-0.459656,-0.002136,-2.0,3.0,-1.0,6928.0,1819.0,3302.0,300.0,141.0,-1211.0,1139.0,347.0,-395.0,0.809068,0.204811,0.550939,13788.0,3870.0,6608.0,-27.0,79.0,-8.0
2863.0,2785.0,2851.0,3103.0,2999.0,0.880432,0.115173,-0.4599,-0.002197,-2.0,2.0,0.0,6907.0,1877.0,3290.0,277.0,199.0,-1218.0,1126.0,407.0,-405.0,0.809315,0.204826,0.550393,13804.0,3906.0,6506.0,-39.0,66.0,17.0
2847.0,2787.0,2858.0,3101.0,3003.0,0.880371,0.115173,-0.460083,-0.002258,-2.0,2.0,0.0,6912.0,1899.0,3298.0,280.0,220.0,-1208.0,1118.0,425.0,-392.0,0.809567,0.204869,0.550117,13870.0,3924.0,6626.0,-34.0,65.0,18.0
2847.0,2787.0,2861.0,3071.0,3007.0,0.880188,0.115479,-0.460327,-0.002258,-1.0,3.0,0.0,6924.0,2001.0,3344.0,289.0,318.0,-1157.0,1072.0,510.0,-336.0,0.809827,0.205365,0.5495,13826.0,4438.0,6848.0,-2.0,74.0,1.0
2839.0,2783.0,2863.0,3099.0,2991.0,0.880127,0.115784,-0.460388,-0.002319,0.0,2.0,0.0,6920.0,2079.0,3370.0,285.0,391.0,-1129.0,1039.0,576.0,-308.0,0.809863,0.205944,0.549266,13822.0,4652.0,6882.0,8.0,63.0,7.0
2847.0,2771.0,2843.0,3111.0,2998.0,0.879761,0.116455,-0.460938,-0.002136,-1.0,0.0,3.0,6918.0,2294.0,3426.0,278.0,599.0,-1062.0,959.0,767.0,-232.0,0.810532,0.206875,0.547958,13874.0,5222.0,7004.0,-3.0,8.0,72.0
2859.0,2785.0,2850.0,3091.0,3007.0,0.879456,0.116516,-0.461426,-0.001892,-2.0,-1.0,4.0,6933.0,2383.0,3430.0,287.0,689.0,-1050.0,945.0,851.0,-199.0,0.811166,0.206688,0.546956,14020.0,5272.0,6862.0,-27.0,-17.0,114.0
2845.0,2789.0,2853.0,3089.0,3007.0,0.878784,0.116333,-0.46283,-0.000854,-1.0,-2.0,8.0,7006.0,2404.0,3328.0,343.0,722.0,-1132.0,1040.0,895.0,-189.0,0.813256,0.205254,0.544518,14216.0,4640.0,6168.0,-2.0,-37.0,191.0
2847.0,2765.0,2831.0,3095.0,2994.0,0.878296,0.116394,-0.463745,0.000122,2.0,-2.0,9.0,7028.0,2376.0,3227.0,354.0,702.0,-1219.0,1118.0,894.0,-229.0,0.814639,0.204344,0.542797,14194.0,4586.0,5824.0,61.0,-43.0,224.0
2839.0,2765.0,2847.0,3095.0,3009.0,0.877136,0.117188,-0.465698,0.003113,8.0,-2.0,13.0,7084.0,2395.0,3005.0,385.0,734.0,-1408.0,1283.0,967.0,-295.0,0.817691,0.20268,0.53877,14458.0,5002.0,5420.0,188.0,-38.0,311.0
2847.0,2779.0,2864.0,3103.0,2997.0,0.876526,0.117798,-0.466675,0.005127,9.0,0.0,15.0,7160.0,2486.0,2934.0,448.0,833.0,-1462.0,1348.0,1073.0,-249.0,0.819313,0.20172,0.536662,14792.0,5646.0,5486.0,229.0,2.0,364.0
2855.0,2785.0,2864.0,3111.0,3005.0,0.875854,0.118896,-0.467529,0.009827,6.0,7.0,21.0,7351.0,2895.0,2870.0,622.0,1264.0,-1508.0,1419.0,1497.0,-43.0,0.821312,0.199084,0.534498,15284.0,7302.0,5660.0,154.0,182.0,499.0
2855.0,2768.0,2867.0,3099.0,2995.0,0.875977,0.118774,-0.467285,0.01239,1.0,12.0,25.0,7444.0,3195.0,2877.0,713.0,1585.0,-1505.0,1418.0,1806.0,92.0,0.821605,0.196508,0.535026,15414.0,8212.0,5862.0,35.0,297.0,592.0
2851.0,2773.0,2828.0,3091.0,2991.0,0.87738,0.115906,-0.46521,0.018066,-11.0,24.0,37.0,7695.0,3779.0,2990.0,973.0,2250.0,-1435.0,1402.0,2429.0,442.0,0.82052,0.186578,0.540268,16372.0,9224.0,6494.0,-249.0,560.0,864.0
2852.0,2790.0,2853.0,3093.0,3005.0,0.878662,0.113281,-0.463196,0.02179,-15.0,31.0,46.0,7887.0,4074.0,3116.0,1178.0,2608.0,-1349.0,1389.0,2755.0,695.0,0.818922,0.178886,0.545139,16942.0,9872.0,7062.0,-329.0,729.0,1055.0
2845.0,2790.0,2835.0,3099.0,3003.0,0.882324,0.105591,-0.457458,0.03302,-14.0,44.0,72.0,8194.0,4262.0,3325.0,1523.0,2983.0,-1255.0,1424.0,3123.0,1004.0,0.814227,0.15612,0.559169,17004.0,8370.0,7086.0,-312.0,1030.0,1650.0
2851.0,2768.0,2851.0,3091.0,2975.0,0.884216,0.101135,-0.454041,0.041626,-6.0,48.0,86.0,8214.0,4142.0,3374.0,1567.0,2986.0,-1272.0,1432.0,3161.0,971.0,0.81136,0.141051,0.56719,16352.0,7454.0,6974.0,-124.0,1105.0,1985.0
2845.0,2769.0,2839.0,3095.0,2979.0,0.887207,0.093262,-0.447205,0.064087,13.0,45.0,104.0,7850.0,3704.0,3399.0,1251.0,2817.0,-1373.0,1258.0,3088.0,512.0,0.80548,0.108165,0.582554,14026.0,5706.0,6670.0,311.0,1039.0,2399.0
2851.0,2783.0,2855.0,3095.0,3024.0,0.888123,0.089966,-0.444092,0.076477,19.0,41.0,103.0,7566.0,3165.0,3420.0,991.0,2412.0,-1407.0,1158.0,2720.0,187.0,0.802577,0.091876,0.589299,13654.0,2192.0,7316.0,454.0,953.0,2375.0
2855.0,2747.0,2863.0,3103.0,3007.0,0.889282,0.084595,-0.437744,0.101929,31.0,38.0,94.0,6819.0,1395.0,3488.0,299.0,893.0,-1447.0,1051.0,1240.0,-579.0,0.795801,0.06122,0.602436,11174.0,-2914.0,7614.0,723.0,875.0,2168.0
2836.0,2775.0,2835.0,3095.0,2999.0,0.889587,0.081909,-0.434509,0.114136,32.0,34.0,87.0,6276.0,196.0,3698.0,-210.0,-185.0,-1289.0,897.0,110.0,-959.0,0.791766,0.046545,0.608885,8978.0,-7566.0,8918.0,741.0,796.0,1993.0
2845.0,2771.0,2827.0,3089.0,3007.0,0.889954,0.076965,-0.428467,0.135864,43.0,18.0,48.0,4505.0,-3617.0,4531.0,-1913.0,-3785.0,-555.0,436.0,-3796.0,-1921.0,0.783545,0.020565,0.620969,3108.0,-17790.0,12228.0,1004.0,427.0,1102.0
2847.0,2775.0,2825.0,3095.0,2991.0,0.891113,0.073486,-0.423218,0.146118,10.0,4.0,-2.0,3188.0,-5127.0,5541.0,-3166.0,-5186.0,372.0,-496.0,-5630.0,-2259.0,0.775745,0.00729,0.63092,3954.0,-12164.0,13476.0,233.0,95.0,-26.0
2843.0,2782.0,2855.0,3103.0,2991.0,0.891968,0.070557,-0.422302,0.145081,-15.0,-4.0,-22.0,3052.0,-5348.0,5696.0,-3287.0,-5375.0,507.0,-636.0,-5875.0,-2240.0,0.773833,0.003333,0.633337,5846.0,-11898.0,11838.0,-333.0,-83.0,-502.0
2847.0,2783.0,2861.0,3095.0,2992.0,0.893005,0.063477,-0.42395,0.136658,-31.0,-13.0,-41.0,3490.0,-5386.0,5249.0,-2854.0,-5365.0,68.0,-173.0,-5679.0,-2154.0,0.774529,-0.002502,0.632371,8906.0,-9930.0,8428.0,-691.0,-284.0,-930.0
2843.0,2763.0,2861.0,3070.0,2997.0,0.893005,0.061096,-0.425964,0.13147,-24.0,-17.0,-45.0,3844.0,-5129.0,4909.0,-2519.0,-5105.0,-248.0,131.0,-5295.0,-2098.0,0.776842,-0.002884,0.629564,9894.0,-8482.0,7848.0,-544.0,-383.0,-1012.0
2847.0,2757.0,2855.0,3099.0,2993.0,0.892761,0.062378,-0.429749,0.119751,-2.0,-16.0,-62.0,4537.0,-3949.0,4390.0,-1871.0,-4018.0,-711.0,483.0,-4018.0,-1940.0,0.782265,0.008452,0.622788,11294.0,-3438.0,7638.0,-33.0,-365.0,-1411.0
2847.0,2774.0,2837.0,3091.0,2999.0,0.8927,0.072327,-0.432129,0.105225,17.0,-15.0,-77.0,5306.0,-1893.0,4158.0,-1139.0,-2205.0,-888.0,535.0,-2080.0,-1527.0,0.786744,0.038191,0.616019,13010.0,3656.0,7874.0,393.0,-329.0,-1761.0
2847.0,2781.0,2850.0,3099.0,2999.0,0.892517,0.079529,-0.433105,0.097229,18.0,-16.0,-77.0,5742.0,-480.0,4136.0,-717.0,-953.0,-878.0,461.0,-799.0,-1157.0,0.788573,0.057741,0.612135,14164.0,7770.0,8256.0,424.0,-351.0,-1746.0
2837.0,2781.0,2853.0,3102.0,2998.0,0.891602,0.093384,-0.435425,0.081604,3.0,-16.0,-57.0,6835.0,2795.0,4353.0,349.0,2013.0,-589.0,203.0,2113.0,113.0,0.791692,0.095457,0.603297,17356.0,15634.0,9766.0,69.0,-351.0,-1304.0
2842.0,2781.0,2853.0,3093.0,3007.0,0.891174,0.098083,-0.436584,0.074646,-13.0,-12.0,-41.0,7496.0,4377.0,4517.0,1001.0,3478.0,-394.0,148.0,3514.0,938.0,0.792789,0.10964,0.599537,19000.0,17974.0,9936.0,-277.0,-267.0,-921.0
2847.0,2771.0,2838.0,3099.0,3007.0,0.89093,0.100342,-0.438171,0.064453,-40.0,3.0,-2.0,8807.0,6741.0,4607.0,2305.0,5739.0,-274.0,447.0,5702.0,2368.0,0.793695,0.122312,0.595848,21184.0,19070.0,9012.0,-900.0,78.0,-34.0
2845.0,2790.0,2849.0,3111.0,2995.0,0.891174,0.098267,-0.438477,0.061951,-46.0,10.0,17.0,9213.0,7266.0,4402.0,2711.0,6276.0,-481.0,783.0,6282.0,2623.0,0.793693,0.120817,0.596112,20428.0,16806.0,7262.0,-1034.0,243.0,412.0
2845.0,2779.0,2847.0,3103.0,2993.0,0.891235,0.090698,-0.439575,0.064453,-31.0,11.0,53.0,9233.0,6795.0,3518.0,2718.0,5934.0,-1372.0,1548.0,6181.0,1965.0,0.795221,0.105003,0.597002,17604.0,10450.0,4184.0,-708.0,268.0,1234.0
2839.0,2781.0,2865.0,3103.0,2999.0,0.889587,0.083435,-0.442322,0.077026,-4.0,4.0,79.0,8704.0,5343.0,2787.0,2151.0,4685.0,-2084.0,1909.0,5151.0,857.0,0.799821,0.080305,0.594689,15562.0,5808.0,3984.0,-79.0,92.0,1812.0
2849.0,2771.0,2831.0,3095.0,3007.0,0.888245,0.080322,-0.444031,0.086121,7.0,2.0,87.0,8375.0,4496.0,2627.0,1799.0,3953.0,-2229.0,1903.0,4478.0,384.0,0.802651,0.066211,0.59278,14744.0,3944.0,4556.0,166.0,52.0,2014.0
2847.0,2779.0,2851.0,3071.0,2993.0,0.885254,0.074585,-0.446045,0.108276,20.0,6.0,97.0,7659.0,2556.0,2697.0,1057.0,2265.0,-2143.0,1684.0,2808.0,-334.0,0.805878,0.035461,0.590879,12528.0,-1368.0,6030.0,464.0,156.0,2244.0
2853.0,2779.0,2858.0,3103.0,2999.0,0.883911,0.071411,-0.446167,0.120483,29.0,7.0,93.0,7029.0,767.0,3042.0,426.0,613.0,-1804.0,1466.0,1074.0,-712.0,0.805952,0.018731,0.591651,9746.0,-11368.0,8614.0,687.0,174.0,2142.0
2863.0,2781.0,2855.0,3099.0,3023.0,0.88147,0.068176,-0.443726,0.14624,66.0,6.0,59.0,4954.0,-3604.0,3969.0,-1617.0,-3525.0,-920.0,912.0,-3430.0,-1812.0,0.802202,-0.00959,0.596835,3146.0,-16480.0,11286.0,1534.0,159.0,1361.0
2845.0,2769.0,2855.0,3099.0,2999.0,0.880981,0.068787,-0.441345,0.155762,55.0,3.0,35.0,3954.0,-4422.0,4604.0,-2591.0,-4288.0,-318.0,221.0,-4510.0,-2191.0,0.799063,-0.01629,0.600873,2290.0,-12520.0,13166.0,1281.0,88.0,805.0
2851.0,2779.0,2850.0,3091.0,2992.0,0.88147,0.067078,-0.43866,0.161255,-4.0,-9.0,-14.0,2961.0,-5049.0,5442.0,-3551.0,-4858.0,477.0,-691.0,-5485.0,-2421.0,0.794964,-0.023218,0.60607,4846.0,-12056.0,12126.0,-80.0,-197.0,-318.0
2847.0,2781.0,2853.0,3067.0,2999.0,0.881897,0.064331,-0.439148,0.158752,-19.0,-13.0,-31.0,3040.0,-5269.0,5496.0,-3472.0,-5056.0,532.0,-657.0,-5669.0,-2306.0,0.794992,-0.025965,0.605955,7038.0,-11460.0,11038.0,-433.0,-288.0,-700.0
2847.0,2783.0,2855.0,3095.0,2967.0,0.882751,0.059753,-0.441589,0.148804,-28.0,-12.0,-47.0,3865.0,-4586.0,5293.0,-2667.0,-4373.0,354.0,-398.0,-4791.0,-1799.0,0.79741,-0.025925,0.602821,10776.0,-5176.0,9788.0,-638.0,-271.0,-1069.0
2851.0,2794.0,2847.0,3095.0,3007.0,0.883728,0.058289,-0.443909,0.135986,-20.0,-11.0,-51.0,4787.0,-3213.0,4985.0,-1770.0,-3067.0,77.0,-170.0,-3283.0,-1316.0,0.800442,-0.017709,0.599015,11884.0,-2538.0,8988.0,-457.0,-249.0,-1151.0
2849.0,2763.0,2863.0,3094.0,2993.0,0.883911,0.059692,-0.44519,0.129883,-9.0,-15.0,-53.0,5084.0,-2497.0,4869.0,-1490.0,-2414.0,-16.0,-154.0,-2574.0,-1180.0,0.802524,-0.01012,0.596411,11820.0,-490.0,9142.0,-199.0,-325.0,-1212.0
2846.0,2782.0,2854.0,3099.0,2993.0,0.883362,0.067017,-0.448792,0.116943,3.0,-28.0,-61.0,5505.0,-1019.0,4686.0,-1118.0,-1129.0,-131.0,-233.0,-1222.0,-996.0,0.808565,0.013433,0.588099,12046.0,1950.0,8694.0,89.0,-637.0,-1380.0
2843.0,2763.0,2849.0,3071.0,3003.0,0.88031,0.077698,-0.456482,0.103027,11.0,-51.0,-66.0,5785.0,-56.0,4318.0,-929.0,-406.0,-360.0,-136.0,-411.0,-984.0,0.819701,0.042736,0.571148,12348.0,2026.0,7278.0,259.0,-1151.0,-1497.0
2847.0,2795.0,2851.0,3094.0,3007.0,0.877563,0.084106,-0.462097,0.096069,18.0,-61.0,-68.0,5932.0,101.0,4062.0,-844.0,-380.0,-515.0,35.0,-322.0,-1008.0,0.827199,0.058831,0.558739,12826.0,760.0,6554.0,413.0,-1377.0,-1550.0
2847.0,2783.0,2859.0,3103.0,3003.0,0.870239,0.099976,-0.475037,0.083679,38.0,-70.0,-67.0,6346.0,248.0,3611.0,-564.0,-526.0,-719.0,407.0,-354.0,-905.0,0.843523,0.094504,0.528664,14104.0,1582.0,6028.0,889.0,-1597.0,-1534.0
2845.0,2771.0,2847.0,3091.0,2997.0,0.866028,0.109131,-0.481628,0.078186,42.0,-70.0,-66.0,6605.0,560.0,3451.0,-368.0,-371.0,-745.0,505.0,-171.0,-737.0,0.851272,0.113707,0.512242,14780.0,3232.0,6012.0,973.0,-1590.0,-1494.0
2847.0,2775.0,2850.0,3103.0,2995.0,0.857788,0.126465,-0.493591,0.067078,31.0,-61.0,-62.0,7054.0,1270.0,3219.0,-21.0,35.0,-718.0,576.0,237.0,-357.0,0.863759,0.150742,0.480674,15236.0,4192.0,5748.0,731.0,-1390.0,-1408.0
2847.0,2795.0,2853.0,3099.0,2993.0,0.854126,0.133728,-0.498779,0.061462,26.0,-55.0,-59.0,7209.0,1477.0,3090.0,94.0,107.0,-732.0,632.0,311.0,-242.0,0.868479,0.167129,0.466645,15306.0,4234.0,5408.0,600.0,-1252.0,-1340.0
2851.0,2783.0,2859.0,3103.0,2995.0,0.847839,0.145813,-0.507263,0.049988,10.0,-44.0,-54.0,7477.0,2054.0,2916.0,311.0,443.0,-711.0,647.0,614.0,44.0,0.874733,0.196538,0.442753,15596.0,5584.0,5240.0,246.0,-990.0,-1234.0
2847.0,2777.0,2862.0,3103.0,2961.0,0.845276,0.150269,-0.510803,0.043823,2.0,-39.0,-53.0,7549.0,2173.0,2771.0,366.0,458.0,-775.0,728.0,638.0,81.0,0.87671,0.209267,0.432911,15484.0,4802.0,4588.0,52.0,-886.0,-1192.0
2847.0,2773.0,2858.0,3103.0,3002.0,0.840881,0.156921,-0.517029,0.031799,-3.0,-31.0,-50.0,7663.0,2014.0,2455.0,458.0,121.0,-954.0,1006.0,348.0,33.0,0.8795,0.231022,0.416149,15718.0,3186.0,4166.0,-54.0,-692.0,-1144.0
2847.0,2785.0,2863.0,3098.0,3007.0,0.838989,0.160156,-0.519287,0.026428,1.0,-25.0,-49.0,7687.0,1872.0,2342.0,479.0,-104.0,-1010.0,1113.0,142.0,-17.0,0.879818,0.241291,0.409292,15434.0,3002.0,4066.0,45.0,-562.0,-1122.0
2847.0,2785.0,2859.0,3093.0,2999.0,0.835938,0.167847,-0.522217,0.017395,10.0,-16.0,-45.0,7576.0,2031.0,2275.0,375.0,-118.0,-987.0,1050.0,128.0,-94.0,0.878921,0.262451,0.398211,14680.0,5624.0,4718.0,250.0,-353.0,-1029.0
2850.0,2775.0,2850.0,3091.0,2995.0,0.834778,0.172119,-0.522827,0.013123,9.0,-12.0,-44.0,7501.0,2418.0,2341.0,313.0,176.0,-887.0,876.0,383.0,-26.0,0.877406,0.273641,0.394053,14556.0,7338.0,5108.0,212.0,-261.0,-991.0
2851.0,2774.0,2854.0,3102.0,3007.0,0.833374,0.178711,-0.522949,0.003662,-7.0,-8.0,-39.0,7322.0,3253.0,2465.0,170.0,844.0,-722.0,542.0,977.0,115.0,0.872934,0.294036,0.389112,14006.0,8638.0,5104.0,-155.0,-164.0,-874.0
2845.0,2791.0,2855.0,3089.0,3007.0,0.833008,0.18042,-0.522949,-0.001404,-16.0,-8.0,-35.0,7208.0,3464.0,2448.0,74.0,989.0,-729.0,484.0,1128.0,80.0,0.870735,0.302051,0.387877,13684.0,7910.0,4734.0,-346.0,-166.0,-797.0
2855.0,2783.0,2847.0,3103.0,2999.0,0.832153,0.181519,-0.523865,-0.010986,-20.0,-11.0,-27.0,7021.0,3571.0,2273.0,-88.0,1001.0,-882.0,560.0,1209.0,-102.0,0.867883,0.313613,0.385217,13634.0,7190.0,3970.0,-451.0,-244.0,-611.0
2845.0,2781.0,2837.0,3095.0,2995.0,0.831482,0.181763,-0.524719,-0.015198,-18.0,-12.0,-25.0,6988.0,3569.0,2181.0,-114.0,962.0,-958.0,630.0,1196.0,-159.0,0.867064,0.318214,0.383225,13866.0,7074.0,3844.0,-406.0,-271.0,-550.0
2847.0,2779.0,2846.0,3095.0,2994.0,0.829834,0.183228,-0.52655,-0.022278,-8.0,-10.0,-23.0,6994.0,3475.0,2018.0,-98.0,791.0,-1080.0,785.0,1062.0,-234.0,0.865735,0.327558,0.378293,14040.0,6600.0,3626.0,-163.0,-212.0,-523.0
2852.0,2779.0,2854.0,3099.0,2995.0,0.829041,0.184814,-0.527161,-0.025024,-1.0,-7.0,-23.0,6984.0,3471.0,1966.0,-100.0,744.0,-1113.0,824.0,1027.0,-257.0,0.864825,0.332821,0.37588,13842.0,7072.0,3684.0,-22.0,-151.0,-516.0
2847.0,2781.0,2847.0,3103.0,3015.0,0.827576,0.189331,-0.527527,-0.029907,3.0,-4.0,-22.0,6881.0,3750.0,1976.0,-178.0,924.0,-1068.0,727.0,1201.0,-231.0,0.861812,0.344925,0.371645,13404.0,8624.0,4134.0,80.0,-69.0,-493.0
2845.0,2775.0,2843.0,3095.0,2999.0,0.827087,0.191467,-0.527466,-0.032288,0.0,-3.0,-20.0,6828.0,3951.0,2014.0,-218.0,1077.0,-1018.0,644.0,1339.0,-186.0,0.860157,0.350782,0.370236,13352.0,9118.0,4266.0,19.0,-51.0,-446.0
2845.0,2771.0,2846.0,3099.0,3003.0,0.826355,0.19397,-0.527344,-0.036743,-8.0,-2.0,-12.0,6804.0,4175.0,2073.0,-218.0,1231.0,-945.0,563.0,1459.0,-92.0,0.857292,0.359328,0.368497,13688.0,8498.0,4234.0,-168.0,-35.0,-264.0
2855.0,2783.0,2846.0,3103.0,2997.0,0.826172,0.194214,-0.527466,-0.038513,-9.0,-2.0,-8.0,6826.0,4148.0,2072.0,-191.0,1186.0,-943.0,584.0,1408.0,-81.0,0.856595,0.361537,0.368104,13834.0,8036.0,4078.0,-203.0,-37.0,-167.0
2855.0,2783.0,2854.0,3095.0,2997.0,0.825806,0.194092,-0.527893,-0.041077,-8.0,-1.0,-5.0,6909.0,3900.0,2022.0,-102.0,918.0,-986.0,704.0,1146.0,-115.0,0.855929,0.363932,0.3673,14054.0,6786.0,3870.0,-164.0,-10.0,-110.0
2843.0,2771.0,2839.0,3071.0,2998.0,0.825623,0.194092,-0.528076,-0.041931,-5.0,0.0,-5.0,6950.0,3708.0,2006.0,-59.0,719.0,-999.0,763.0,954.0,-154.0,0.855706,0.364779,0.366875,14140.0,6256.0,3926.0,-102.0,6.0,-114.0
2845.0,2779.0,2847.0,3071.0,3007.0,0.825256,0.194946,-0.528259,-0.042969,1.0,2.0,-6.0,7003.0,3389.0,2040.0,-2.0,381.0,-956.0,797.0,615.0,-211.0,0.855145,0.367159,0.365832,14116.0,6046.0,4276.0,39.0,48.0,-121.0
2851.0,2783.0,2853.0,3099.0,3003.0,0.825134,0.195679,-0.528198,-0.043274,2.0,2.0,-5.0,7014.0,3339.0,2094.0,12.0,319.0,-899.0,760.0,539.0,-200.0,0.854733,0.368637,0.365436,14094.0,6538.0,4540.0,66.0,61.0,-111.0
2847.0,2773.0,2847.0,3099.0,3007.0,0.825073,0.196838,-0.527771,-0.043884,-1.0,3.0,-4.0,7036.0,3369.0,2245.0,43.0,328.0,-748.0,638.0,497.0,-114.0,0.853623,0.371134,0.365384,14118.0,6746.0,4914.0,-14.0,74.0,-74.0
2843.0,2773.0,2845.0,3089.0,2999.0,0.825134,0.19696,-0.527588,-0.04425,-3.0,3.0,-3.0,7044.0,3356.0,2302.0,54.0,310.0,-693.0,597.0,462.0,-92.0,0.853231,0.37173,0.365662,14134.0,6638.0,4904.0,-57.0,70.0,-48.0
2850.0,2778.0,2855.0,3103.0,2999.0,0.825378,0.196655,-0.527344,-0.045044,-5.0,2.0,-2.0,7041.0,3297.0,2380.0,54.0,248.0,-622.0,543.0,384.0,-89.0,0.8528,0.372137,0.366514,14048.0,6314.0,4922.0,-107.0,47.0,-29.0
2847.0,2779.0,2846.0,3103.0,2993.0,0.825439,0.196411,-0.527283,-0.04541,-5.0,1.0,-2.0,7021.0,3235.0,2390.0,36.0,186.0,-614.0,536.0,330.0,-125.0,0.852642,0.372139,0.366808,13932.0,6070.0,4814.0,-100.0,31.0,-29.0
2845.0,2783.0,2855.0,3103.0,2999.0,0.825256,0.196167,-0.527527,-0.046021,-2.0,-1.0,-2.0,6965.0,3114.0,2385.0,-19.0,63.0,-616.0,530.0,232.0,-218.0,0.852634,0.37233,0.3664,13798.0,5982.0,4766.0,-27.0,-4.0,-42.0
2849.0,2775.0,2847.0,3099.0,2994.0,0.825073,0.196411,-0.52771,-0.046204,0.0,-1.0,-3.0,6949.0,3084.0,2400.0,-35.0,29.0,-596.0,510.0,200.0,-237.0,0.852649,0.372871,0.365826,13808.0,6046.0,4930.0,16.0,-11.0,-54.0
2843.0,2777.0,2850.0,3095.0,3015.0,0.824646,0.197266,-0.528076,-0.046509,1.0,-1.0,-2.0,6926.0,3145.0,2455.0,-58.0,77.0,-530.0,435.0,233.0,-213.0,0.852603,0.374469,0.364426,13826.0,6574.0,5106.0,38.0,-15.0,-44.0
2851.0,2791.0,2855.0,3095.0,3013.0,0.824463,0.19751,-0.528198,-0.046692,0.0,-1.0,-2.0,6920.0,3189.0,2480.0,-63.0,116.0,-501.0,402.0,262.0,-192.0,0.852515,0.375004,0.363916,13808.0,6626.0,5082.0,5.0,-12.0,-26.0
2847.0,2783.0,2843.0,3061.0,3003.0,0.82428,0.197449,-0.528503,-0.046997,-3.0,-1.0,0.0,6908.0,3234.0,2516.0,-77.0,160.0,-460.0,354.0,295.0,-172.0,0.85271,0.375182,0.363344,13746.0,6522.0,4990.0,-60.0,-7.0,19.0
2847.0,2773.0,2843.0,3099.0,2991.0,0.824219,0.197205,-0.528687,-0.047119,-4.0,-1.0,1.0,6903.0,3229.0,2505.0,-84.0,157.0,-469.0,360.0,297.0,-183.0,0.852922,0.374902,0.363158,13810.0,6412.0,4922.0,-81.0,-11.0,23.0
2847.0,2775.0,2847.0,3099.0,2994.0,0.824097,0.196411,-0.529114,-0.047668,-6.0,-1.0,0.0,6919.0,3185.0,2461.0,-71.0,119.0,-511.0,408.0,269.0,-201.0,0.853357,0.374168,0.362869,13920.0,6150.0,4804.0,-119.0,-13.0,7.0
2851.0,2782.0,2850.0,3095.0,2991.0,0.824097,0.195984,-0.529297,-0.048035,-6.0,-1.0,-1.0,6925.0,3137.0,2435.0,-67.0,74.0,-537.0,439.0,233.0,-224.0,0.853556,0.373869,0.362878,13862.0,5960.0,4742.0,-122.0,-4.0,-5.0
2847.0,2783.0,2859.0,3102.0,2997.0,0.824036,0.19519,-0.529602,-0.048584,-4.0,0.0,-1.0,6887.0,2986.0,2392.0,-107.0,-70.0,-580.0,479.0,123.0,-327.0,0.853856,0.373148,0.362818,13580.0,5548.0,4706.0,-76.0,7.0,-10.0
2850.0,2779.0,2851.0,3091.0,2999.0,0.823975,0.195007,-0.529785,-0.048767,-2.0,-1.0,-1.0,6860.0,2986.0,2388.0,-136.0,-69.0,-582.0,468.0,132.0,-352.0,0.854039,0.373034,0.362612,13560.0,6108.0,4782.0,-43.0,-3.0,-11.0
2847.0,2773.0,2845.0,3099.0,2999.0,0.823669,0.194885,-0.530273,-0.049133,-3.0,-2.0,0.0,6825.0,3055.0,2388.0,-174.0,-1.0,-574.0,437.0,203.0,-356.0,0.854389,0.37315,0.361675,13620.0,6258.0,4766.0,-53.0,-43.0,7.0
2851.0,2779.0,2843.0,3099.0,2999.0,0.823425,0.194641,-0.530701,-0.049255,-3.0,-3.0,1.0,6822.0,3077.0,2384.0,-180.0,22.0,-572.0,430.0,225.0,-352.0,0.85481,0.372825,0.360927,13640.0,6320.0,4770.0,-58.0,-64.0,34.0
2849.0,2781.0,2845.0,3093.0,2999.0,0.822937,0.19397,-0.531677,-0.049561,-5.0,-4.0,2.0,6859.0,3158.0,2409.0,-152.0,110.0,-535.0,399.0,287.0,-281.0,0.855847,0.37195,0.359377,13880.0,6482.0,4938.0,-94.0,-75.0,55.0
2847.0,2767.0,2852.0,3091.0,2999.0,0.822754,0.19342,-0.532166,-0.049683,-6.0,-3.0,2.0,6880.0,3165.0,2410.0,-136.0,124.0,-529.0,399.0,293.0,-260.0,0.856463,0.371154,0.358781,13890.0,6366.0,4792.0,-115.0,-63.0,58.0
2851.0,2775.0,2843.0,3091.0,3007.0,0.82251,0.192139,-0.532959,-0.050171,-7.0,-2.0,1.0,6911.0,3147.0,2392.0,-113.0,119.0,-541.0,421.0,284.0,-246.0,0.857448,0.36955,0.358077,13900.0,6136.0,4700.0,-144.0,-30.0,45.0
2849.0,2779.0,2839.0,3099.0,3007.0,0.822449,0.191528,-0.533203,-0.050415,-7.0,-1.0,1.0,6924.0,3100.0,2375.0,-102.0,78.0,-557.0,446.0,246.0,-258.0,0.857753,0.368807,0.357975,13904.0,5892.0,4614.0,-141.0,-10.0,40.0
2847.0,2783.0,2852.0,3095.0,2999.0,0.822449,0.19043,-0.533569,-0.050598,-4.0,0.0,1.0,6906.0,2976.0,2318.0,-125.0,-32.0,-614.0,501.0,165.0,-338.0,0.858396,0.367233,0.358022,13674.0,5602.0,4520.0,-81.0,21.0,40.0
2846.0,2775.0,2851.0,3111.0,2993.0,0.822449,0.190125,-0.533691,-0.050476,-3.0,1.0,1.0,6875.0,2938.0,2297.0,-159.0,-65.0,-635.0,509.0,149.0,-387.0,0.858674,0.366613,0.357996,13566.0,5714.0,4466.0,-47.0,26.0,39.0
2855.0,2775.0,2850.0,3095.0,2994.0,0.822388,0.18988,-0.533936,-0.050293,-1.0,1.0,1.0,6841.0,2938.0,2288.0,-196.0,-60.0,-642.0,500.0,166.0,-419.0,0.859105,0.366017,0.357709,13640.0,5954.0,4654.0,-18.0,24.0,29.0
2849.0,2781.0,2847.0,3099.0,3003.0,0.822388,0.189819,-0.533997,-0.050232,-2.0,1.0,1.0,6842.0,2963.0,2313.0,-196.0,-34.0,-616.0,473.0,183.0,-401.0,0.859234,0.365858,0.357661,13714.0,6090.0,4774.0,-26.0,25.0,25.0
2845.0,2783.0,2861.0,3115.0,3015.0,0.822388,0.189453,-0.534119,-0.050293,-4.0,1.0,1.0,6837.0,3006.0,2343.0,-203.0,13.0,-587.0,439.0,221.0,-379.0,0.859449,0.365333,0.357676,13654.0,6096.0,4750.0,-74.0,24.0,23.0
2839.0,2779.0,2845.0,3099.0,3007.0,0.822449,0.189087,-0.534119,-0.050476,-5.0,1.0,0.0,6835.0,2998.0,2349.0,-205.0,8.0,-583.0,435.0,215.0,-381.0,0.859482,0.364949,0.357933,13662.0,5894.0,4712.0,-92.0,28.0,19.0
2851.0,2785.0,2863.0,3101.0,2998.0,0.82251,0.188416,-0.53418,-0.05072,-4.0,1.0,0.0,6819.0,2918.0,2351.0,-223.0,-64.0,-583.0,436.0,153.0,-423.0,0.859623,0.364135,0.358247,13572.0,5596.0,4682.0,-69.0,32.0,10.0
2847.0,2782.0,2863.0,3103.0,3005.0,0.822571,0.188232,-0.53418,-0.050842,-2.0,1.0,-1.0,6807.0,2885.0,2349.0,-235.0,-96.0,-587.0,438.0,128.0,-447.0,0.859661,0.363987,0.358428,13536.0,5576.0,4704.0,-43.0,27.0,-2.0
2853.0,2779.0,2859.0,3107.0,2999.0,0.822449,0.188293,-0.534302,-0.050964,0.0,0.0,-2.0,6794.0,2852.0,2371.0,-248.0,-131.0,-562.0,414.0,93.0,-462.0,0.859679,0.364184,0.358086,13578.0,5674.0,4838.0,7.0,20.0,-31.0
2850.0,2773.0,2831.0,3091.0,2999.0,0.822388,0.188538,-0.534302,-0.051025,1.0,0.0,-2.0,6800.0,2871.0,2392.0,-241.0,-116.0,-539.0,395.0,99.0,-442.0,0.859566,0.364628,0.3579,13642.0,5902.0,4910.0,24.0,19.0,-40.0
2852.0,2778.0,2855.0,3094.0,2991.0,0.822266,0.189209,-0.534241,-0.05127,0.0,1.0,-2.0,6833.0,2977.0,2442.0,-205.0,-20.0,-486.0,351.0,164.0,-357.0,0.859174,0.365941,0.357536,13840.0,6410.0,5080.0,17.0,30.0,-42.0
2854.0,2809.0,2846.0,3101.0,2991.0,0.822266,0.189453,-0.534119,-0.051514,-1.0,1.0,-2.0,6854.0,3042.0,2477.0,-181.0,38.0,-452.0,324.0,202.0,-303.0,0.858856,0.36659,0.357599,13820.0,6424.0,5136.0,-12.0,39.0,-41.0
2843.0,2783.0,2853.0,3095.0,3018.0,0.822388,0.189575,-0.533813,-0.052002,-3.0,2.0,-2.0,6880.0,3083.0,2528.0,-151.0,73.0,-405.0,290.0,214.0,-247.0,0.858287,0.367327,0.35813,13794.0,6216.0,5194.0,-47.0,47.0,-29.0
2851.0,2771.0,2843.0,3091.0,3003.0,0.82251,0.189514,-0.533691,-0.052246,-2.0,1.0,-1.0,6873.0,3080.0,2529.0,-156.0,69.0,-407.0,291.0,212.0,-254.0,0.85813,0.367521,0.35851,13690.0,6124.0,5032.0,-41.0,38.0,-15.0
2847.0,2773.0,2843.0,3095.0,3006.0,0.822388,0.189392,-0.533875,-0.052368,-1.0,-1.0,0.0,6851.0,3064.0,2527.0,-179.0,54.0,-407.0,283.0,205.0,-279.0,0.858267,0.367424,0.358173,13658.0,6026.0,5010.0,-20.0,-12.0,15.0
2855.0,2768.0,2846.0,3099.0,3005.0,0.822266,0.189392,-0.534119,-0.052368,-1.0,-2.0,0.0,6841.0,3041.0,2515.0,-192.0,31.0,-415.0,287.0,190.0,-301.0,0.858539,0.367403,0.357711,13614.0,5938.0,4976.0,-10.0,-35.0,22.0
2858.0,2795.0,2859.0,3099.0,2999.0,0.821777,0.189331,-0.534851,-0.052246,0.0,-3.0,1.0,6843.0,2994.0,2505.0,-196.0,-12.0,-412.0,288.0,150.0,-319.0,0.859273,0.367064,0.356136,13732.0,5934.0,4958.0,6.0,-61.0,24.0
2855.0,2778.0,2846.0,3095.0,2993.0,0.821533,0.189331,-0.535278,-0.052185,0.0,-3.0,0.0,6858.0,2992.0,2503.0,-184.0,-14.0,-407.0,290.0,144.0,-307.0,0.859737,0.366951,0.355271,13814.0,5962.0,5000.0,4.0,-60.0,20.0
2854.0,2771.0,2842.0,3103.0,3003.0,0.821106,0.189209,-0.535889,-0.052185,-1.0,-1.0,0.0,6900.0,3004.0,2497.0,-147.0,0.0,-402.0,299.0,144.0,-268.0,0.860295,0.366652,0.353962,13906.0,6096.0,4968.0,-21.0,-22.0,15.0
2845.0,2791.0,2855.0,3101.0,3003.0,0.821045,0.189087,-0.536072,-0.052246,-2.0,0.0,0.0,6893.0,3010.0,2485.0,-156.0,7.0,-412.0,304.0,156.0,-277.0,0.86052,0.366513,0.353718,13716.0,6038.0,4932.0,-41.0,3.0,16.0
2845.0,2769.0,2849.0,3099.0,3006.0,0.821045,0.188599,-0.536255,-0.052307,-3.0,0.0,1.0,6844.0,2974.0,2436.0,-208.0,-22.0,-461.0,330.0,156.0,-350.0,0.860849,0.365796,0.353712,13492.0,5838.0,4702.0,-55.0,12.0,44.0
2841.0,2771.0,2844.0,3091.0,2994.0,0.821045,0.188293,-0.536377,-0.052246,-3.0,0.0,2.0,6821.0,2951.0,2412.0,-233.0,-41.0,-485.0,343.0,151.0,-387.0,0.861104,0.365242,0.35369,13508.0,5760.0,4746.0,-48.0,4.0,46.0
2838.0,2779.0,2879.0,3095.0,2999.0,0.820862,0.187988,-0.536743,-0.052124,-1.0,-1.0,0.0,6798.0,2904.0,2374.0,-260.0,-82.0,-518.0,367.0,129.0,-436.0,0.861587,0.364579,0.353098,13576.0,5750.0,4684.0,-16.0,-1.0,14.0
2847.0,2783.0,2855.0,3099.0,2999.0,0.82074,0.187988,-0.536865,-0.052124,-1.0,0.0,-1.0,6797.0,2912.0,2370.0,-261.0,-74.0,-519.0,367.0,137.0,-434.0,0.861656,0.364546,0.352767,13580.0,5918.0,4716.0,-2.0,1.0,-8.0
2835.0,2787.0,2862.0,3095.0,2987.0,0.820496,0.188354,-0.537109,-0.052429,-1.0,-1.0,-2.0,6790.0,2995.0,2375.0,-268.0,1.0,-508.0,345.0,206.0,-409.0,0.861641,0.365408,0.351998,13566.0,6350.0,4794.0,-6.0,-4.0,-34.0
2845.0,2779.0,2853.0,3095.0,2991.0,0.820374,0.188538,-0.537231,-0.052734,-2.0,-1.0,-2.0,6808.0,3064.0,2395.0,-250.0,65.0,-485.0,325.0,254.0,-362.0,0.861576,0.366004,0.35163,13754.0,6552.0,4978.0,-26.0,-7.0,-28.0
2847.0,2780.0,2842.0,3089.0,2979.0,0.820312,0.188354,-0.537292,-0.053406,-4.0,0.0,-1.0,6871.0,3189.0,2449.0,-185.0,187.0,-431.0,290.0,334.0,-242.0,0.861377,0.366408,0.351604,13874.0,6630.0,5036.0,-91.0,8.0,-3.0
2857.0,2769.0,2832.0,3103.0,3003.0,0.820374,0.188049,-0.537354,-0.053772,-5.0,0.0,0.0,6876.0,3199.0,2461.0,-180.0,198.0,-420.0,281.0,340.0,-230.0,0.861438,0.36633,0.351793,13742.0,6378.0,4976.0,-114.0,6.0,12.0
2847.0,2783.0,2862.0,3088.0,2983.0,0.820312,0.186951,-0.53772,-0.054138,-5.0,-2.0,2.0,6872.0,3066.0,2463.0,-189.0,76.0,-418.0,290.0,228.0,-282.0,0.861954,0.364938,0.35175,13770.0,5588.0,4910.0,-101.0,-32.0,59.0
612.0,-295.0,-96.0,-153.0,33.0,24.0,-343.0,0.882533,0.327487,0.337577,13900.0,5220.0,5276.0,-8.0,6.0,-6.0,,,,,,,,,,,,,,
2849.0,2777.0,2847.0,3091.0,2999.0,0.817688,0.188782,-0.543457,-0.017212,-2.0,0.0,-1.0,6931.0,2609.0,2624.0,-296.0,-73.0,-144.0,20.0,43.0,-333.0,0.882258,0.327437,0.337926,13800.0,5250.0,5298.0,-28.0,19.0,-5.0
2847.0,2779.0,2849.0,3095.0,3003.0,0.81781,0.18866,-0.543396,-0.017334,-2.0,0.0,-1.0,6919.0,2600.0,2626.0,-308.0,-82.0,-144.0,17.0,37.0,-347.0,0.882249,0.327414,0.338242,13776.0,5124.0,5250.0,-37.0,21.0,-1.0
2853.0,2779.0,2851.0,3101.0,3006.0,0.817932,0.188354,-0.543274,-0.017456,-2.0,0.0,0.0,6908.0,2578.0,2642.0,-318.0,-101.0,-132.0,5.0,18.0,-358.0,0.882147,0.327089,0.338694,13804.0,5124.0,5354.0,-24.0,11.0,3.0
2847.0,2779.0,2850.0,3095.0,3003.0,0.817993,0.188293,-0.543213,-0.017517,-1.0,0.0,-1.0,6902.0,2578.0,2652.0,-324.0,-101.0,-124.0,-3.0,17.0,-360.0,0.882092,0.327077,0.338885,13770.0,5162.0,5368.0,-12.0,7.0,-1.0
2847.0,2781.0,2851.0,3095.0,3003.0,0.818054,0.188354,-0.543091,-0.017639,-1.0,0.0,-1.0,6908.0,2612.0,2676.0,-316.0,-69.0,-101.0,-26.0,38.0,-335.0,0.881911,0.327328,0.339099,13792.0,5328.0,5432.0,-7.0,2.0,-12.0
2850.0,2781.0,2855.0,3101.0,3003.0,0.818054,0.188354,-0.543091,-0.017761,-1.0,-1.0,-1.0,6906.0,2622.0,2687.0,-318.0,-60.0,-90.0,-39.0,44.0,-330.0,0.881865,0.32746,0.339103,13808.0,5292.0,5422.0,-22.0,-2.0,-14.0
2853.0,2783.0,2853.0,3103.0,3007.0,0.818115,0.188171,-0.543091,-0.018066,-2.0,-1.0,-1.0,6912.0,2594.0,2680.0,-311.0,-89.0,-99.0,-23.0,18.0,-336.0,0.881823,0.327515,0.339283,13862.0,5072.0,5298.0,-27.0,-10.0,-7.0
2847.0,2777.0,2846.0,3099.0,3006.0,0.818054,0.18811,-0.543152,-0.018127,-1.0,-1.0,-1.0,6915.0,2584.0,2669.0,-308.0,-98.0,-109.0,-11.0,12.0,-340.0,0.881835,0.327461,0.339142,13826.0,5106.0,5272.0,-14.0,-11.0,-8.0
2852.0,2779.0,2851.0,3094.0,2999.0,0.817993,0.18811,-0.543213,-0.01825,0.0,-1.0,-1.0,6921.0,2559.0,2641.0,-302.0,-124.0,-135.0,18.0,-5.0,-352.0,0.881823,0.327573,0.33898,13874.0,5032.0,5172.0,2.0,-11.0,-12.0
2855.0,2783.0,2851.0,3093.0,3006.0,0.817993,0.188171,-0.543274,-0.01825,0.0,-1.0,-1.0,6924.0,2549.0,2644.0,-300.0,-135.0,-132.0,19.0,-17.0,-353.0,0.881921,0.327675,0.338891,13878.0,5036.0,5306.0,3.0,-8.0,-9.0
2851.0,2783.0,2853.0,3099.0,3002.0,0.817932,0.188171,-0.543335,-0.01825,0.0,-1.0,0.0,6933.0,2546.0,2625.0,-291.0,-138.0,-149.0,38.0,-17.0,-352.0,0.881954,0.327654,0.338725,13894.0,5138.0,5234.0,3.0,-1.0,1.0
2853.0,2775.0,2850.0,3099.0,2999.0,0.817932,0.188171,-0.543396,-0.01825,-1.0,0.0,-1.0,6935.0,2550.0,2619.0,-290.0,-134.0,-155.0,43.0,-11.0,-352.0,0.882054,0.327656,0.338658,13872.0,5138.0,5206.0,0.0,1.0,-3.0
2847.0,2779.0,2847.0,3095.0,2999.0,0.817871,0.188232,-0.543457,-0.01825,0.0,-1.0,-1.0,6935.0,2547.0,2600.0,-291.0,-137.0,-172.0,59.0,-9.0,-359.0,0.882085,0.327735,0.338469,13862.0,5132.0,5164.0,12.0,-4.0,-6.0
2851.0,2779.0,2855.0,3099.0,3004.0,0.81781,0.188354,-0.543457,-0.01825,0.0,-1.0,-1.0,6933.0,2559.0,2603.0,-292.0,-127.0,-168.0,53.0,0.0,-356.0,0.882015,0.327912,0.338323,13866.0,5188.0,5266.0,20.0,-4.0,-9.0
2847.0,2783.0,2853.0,3133.0,3007.0,0.817749,0.188599,-0.543518,-0.018188,0.0,-1.0,-1.0,6955.0,2613.0,2611.0,-270.0,-75.0,-158.0,44.0,39.0,-316.0,0.882062,0.328224,0.338063,13980.0,5462.0,5232.0,19.0,0.0,-8.0
2850.0,2781.0,2851.0,3099.0,2999.0,0.817688,0.188721,-0.543457,-0.01825,0.0,0.0,-1.0,6963.0,2656.0,2629.0,-261.0,-34.0,-139.0,23.0,69.0,-288.0,0.881868,0.328465,0.337986,13964.0,5578.0,5388.0,1.0,3.0,-4.0
2851.0,2775.0,2851.0,3089.0,2999.0,0.81781,0.188599,-0.543335,-0.018433,-2.0,0.0,0.0,6967.0,2704.0,2660.0,-256.0,12.0,-111.0,-7.0,103.0,-259.0,0.881737,0.328506,0.338371,13960.0,5522.0,5418.0,-33.0,14.0,11.0
2849.0,2783.0,2851.0,3101.0,3003.0,0.817932,0.188416,-0.543274,-0.018433,-2.0,1.0,0.0,6966.0,2705.0,2677.0,-257.0,15.0,-97.0,-20.0,102.0,-254.0,0.881776,0.32825,0.338706,13922.0,5380.0,5432.0,-42.0,25.0,21.0
2851.0,2782.0,2851.0,3101.0,3007.0,0.818176,0.187988,-0.542969,-0.018372,-2.0,1.0,1.0,6945.0,2694.0,2707.0,-276.0,10.0,-74.0,-48.0,95.0,-265.0,0.881581,0.327565,0.339595,13824.0,5418.0,5560.0,-30.0,32.0,34.0
2850.0,2778.0,2851.0,3099.0,3003.0,0.818359,0.187805,-0.542847,-0.018311,-2.0,1.0,1.0,6930.0,2685.0,2715.0,-292.0,4.0,-71.0,-56.0,92.0,-280.0,0.88161,0.327264,0.340094,13772.0,5264.0,5490.0,-35.0,29.0,32.0
2847.0,2783.0,2847.0,3127.0,3006.0,0.818481,0.187439,-0.542725,-0.01825,-1.0,-1.0,0.0,6902.0,2627.0,2717.0,-319.0,-48.0,-72.0,-58.0,50.0,-321.0,0.881579,0.32664,0.340562,13696.0,5062.0,5482.0,-14.0,-1.0,18.0
2851.0,2786.0,2855.0,3101.0,3007.0,0.818481,0.187378,-0.542786,-0.018188,0.0,-1.0,0.0,6898.0,2596.0,2724.0,-324.0,-78.0,-65.0,-61.0,21.0,-333.0,0.881704,0.326476,0.340516,13794.0,5032.0,5534.0,4.0,-18.0,11.0
2851.0,2783.0,2853.0,3103.0,3003.0,0.818359,0.187378,-0.542969,-0.018188,0.0,-2.0,0.0,6927.0,2585.0,2756.0,-297.0,-89.0,-30.0,-79.0,-4.0,-301.0,0.881871,0.326437,0.340117,13958.0,5218.0,5564.0,6.0,-32.0,0.0
2851.0,2779.0,2850.0,3099.0,3003.0,0.818298,0.187378,-0.543091,-0.01825,-1.0,-2.0,-1.0,6950.0,2598.0,2768.0,-275.0,-76.0,-16.0,-85.0,-1.0,-272.0,0.881981,0.326484,0.339887,14058.0,5276.0,5616.0,-12.0,-29.0,-2.0
2847.0,2779.0,2847.0,3095.0,2999.0,0.818298,0.187073,-0.543152,-0.018494,-2.0,-1.0,0.0,6970.0,2595.0,2769.0,-255.0,-77.0,-15.0,-77.0,-7.0,-255.0,0.882001,0.326252,0.339944,13966.0,5102.0,5506.0,-45.0,-18.0,9.0
2852.0,2783.0,2851.0,3099.0,3003.0,0.818298,0.186768,-0.543274,-0.018555,-3.0,-1.0,0.0,6962.0,2581.0,2753.0,-264.0,-88.0,-31.0,-65.0,-11.0,-272.0,0.882189,0.325824,0.339928,13864.0,5070.0,5414.0,-49.0,-19.0,19.0
2850.0,2779.0,2849.0,3101.0,2999.0,0.818237,0.186218,-0.543518,-0.018616,-2.0,-2.0,1.0,6929.0,2549.0,2699.0,-300.0,-113.0,-84.0,-27.0,-11.0,-330.0,0.88252,0.324977,0.33977,13740.0,5016.0,5224.0,-35.0,-30.0,24.0
2851.0,2782.0,2847.0,3095.0,2999.0,0.818176,0.186035,-0.543701,-0.018616,-2.0,-2.0,0.0,6911.0,2527.0,2673.0,-320.0,-132.0,-108.0,-11.0,-17.0,-362.0,0.88276,0.324662,0.339539,13714.0,4890.0,5178.0,-24.0,-40.0,20.0
2847.0,2779.0,2847.0,3099.0,2999.0,0.817871,0.185913,-0.544189,-0.018494,0.0,-3.0,0.0,6903.0,2495.0,2625.0,-332.0,-161.0,-148.0,25.0,-30.0,-395.0,0.883277,0.324234,0.338549,13786.0,4990.0,5152.0,15.0,-49.0,19.0
2847.0,2783.0,2855.0,3095.0,3003.0,0.817688,0.185913,-0.544495,-0.018433,0.0,-3.0,0.0,6897.0,2509.0,2607.0,-341.0,-146.0,-161.0,31.0,-10.0,-403.0,0.8836,0.324111,0.337915,13750.0,5128.0,5094.0,18.0,-49.0,14.0
2851.0,2781.0,2855.0,3123.0,2999.0,0.817383,0.185913,-0.544922,-0.018433,-1.0,-2.0,0.0,6896.0,2542.0,2589.0,-345.0,-112.0,-171.0,32.0,24.0,-398.0,0.883966,0.324013,0.336951,13818.0,5156.0,5108.0,-9.0,-38.0,11.0
2847.0,2779.0,2852.0,3102.0,2999.0,0.817322,0.185852,-0.545105,-0.018494,-1.0,-2.0,0.0,6909.0,2554.0,2576.0,-334.0,-99.0,-182.0,45.0,37.0,-388.0,0.884178,0.323964,0.336676,13870.0,5156.0,5070.0,-18.0,-28.0,15.0
2851.0,2777.0,2849.0,3099.0,3005.0,0.8172,0.185608,-0.545288,-0.018494,-1.0,-1.0,0.0,6913.0,2569.0,2544.0,-331.0,-81.0,-211.0,69.0,61.0,-389.0,0.884353,0.323526,0.336368,13778.0,5192.0,5002.0,-22.0,-6.0,13.0
2847.0,2783.0,2855.0,3103.0,3003.0,0.8172,0.185547,-0.545349,-0.018555,-1.0,0.0,0.0,6918.0,2564.0,2530.0,-327.0,-86.0,-225.0,84.0,59.0,-392.0,0.884433,0.323495,0.336326,13880.0,5094.0,5004.0,-20.0,1.0,5.0
2851.0,2783.0,2858.0,3103.0,3005.0,0.817139,0.185547,-0.54541,-0.018494,0.0,0.0,0.0,6936.0,2547.0,2527.0,-309.0,-102.0,-226.0,95.0,40.0,-382.0,0.884489,0.323408,0.336158,13906.0,5128.0,5130.0,12.0,10.0,0.0
2849.0,2781.0,2843.0,3095.0,2999.0,0.817139,0.185669,-0.545349,-0.018433,0.0,0.0,0.0,6943.0,2562.0,2544.0,-302.0,-88.0,-209.0,80.0,47.0,-365.0,0.884407,0.323539,0.336177,13926.0,5222.0,5196.0,21.0,15.0,2.0
2851.0,2779.0,2849.0,3095.0,3003.0,0.8172,0.185913,-0.545227,-0.01825,1.0,0.0,0.0,6955.0,2607.0,2581.0,-289.0,-45.0,-174.0,47.0,74.0,-328.0,0.884333,0.323756,0.336312,13930.0,5358.0,5334.0,24.0,20.0,12.0
2847.0,2782.0,2855.0,3095.0,3003.0,0.817261,0.185974,-0.545166,-0.018127,0.0,0.0,0.0,6958.0,2632.0,2615.0,-286.0,-20.0,-141.0,14.0,87.0,-306.0,0.884343,0.323744,0.336451,13954.0,5424.0,5454.0,12.0,18.0,22.0
2847.0,2783.0,2855.0,3053.0,3007.0,0.817383,0.185791,-0.544983,-0.018005,-2.0,0.0,1.0,6978.0,2671.0,2655.0,-265.0,22.0,-105.0,-16.0,111.0,-262.0,0.884229,0.32335,0.336914,14046.0,5370.0,5374.0,-25.0,19.0,35.0
2851.0,2775.0,2847.0,3099.0,2995.0,0.817505,0.185547,-0.544922,-0.017944,-2.0,1.0,1.0,6991.0,2660.0,2671.0,-253.0,14.0,-91.0,-23.0,97.0,-249.0,0.884294,0.322927,0.337269,14070.0,5224.0,5422.0,-39.0,27.0,36.0
2851.0,2779.0,2847.0,3099.0,3002.0,0.81781,0.184998,-0.544617,-0.017822,-3.0,1.0,1.0,6985.0,2603.0,2691.0,-258.0,-34.0,-80.0,-27.0,50.0,-266.0,0.884192,0.321998,0.338299,13874.0,5000.0,5448.0,-52.0,39.0,29.0
2875.0,2782.0,2853.0,3101.0,2999.0,0.817993,0.184631,-0.544434,-0.017822,-3.0,1.0,1.0,6964.0,2555.0,2699.0,-278.0,-78.0,-77.0,-30.0,13.0,-296.0,0.884105,0.32146,0.338934,13804.0,4814.0,5438.0,-48.0,35.0,26.0
2847.0,2785.0,2853.0,3099.0,3005.0,0.818237,0.184265,-0.54425,-0.017578,0.0,0.0,1.0,6933.0,2482.0,2715.0,-310.0,-145.0,-67.0,-41.0,-45.0,-343.0,0.884174,0.320679,0.339659,13782.0,4886.0,5472.0,7.0,12.0,23.0
2851.0,2775.0,2853.0,3095.0,2999.0,0.818237,0.184265,-0.54425,-0.017456,0.0,-1.0,0.0,6927.0,2487.0,2728.0,-316.0,-138.0,-54.0,-56.0,-40.0,-341.0,0.884219,0.320546,0.339655,13866.0,5026.0,5548.0,17.0,-1.0,19.0
2850.0,2781.0,2851.0,3095.0,2999.0,0.818237,0.184204,-0.54425,-0.017395,-1.0,-1.0,0.0,6939.0,2521.0,2759.0,-304.0,-103.0,-23.0,-85.0,-19.0,-309.0,0.884244,0.32038,0.339675,13892.0,5058.0,5598.0,-12.0,-9.0,10.0
2851.0,2783.0,2854.0,3101.0,2999.0,0.818298,0.184082,-0.54425,-0.017395,-1.0,-1.0,0.0,6942.0,2508.0,2760.0,-302.0,-115.0,-23.0,-82.0,-31.0,-311.0,0.884314,0.320203,0.33982,13900.0,4946.0,5482.0,-18.0,-8.0,10.0
2850.0,2779.0,2855.0,3095.0,2999.0,0.818237,0.183838,-0.544373,-0.017395,-1.0,-1.0,0.0,6929.0,2487.0,2739.0,-316.0,-132.0,-43.0,-67.0,-38.0,-336.0,0.884456,0.319785,0.339677,13824.0,4960.0,5414.0,-7.0,-13.0,9.0
2847.0,2779.0,2847.0,3138.0,2999.0,0.818237,0.183838,-0.544373,-0.017395,-1.0,-1.0,0.0,6927.0,2494.0,2729.0,-318.0,-125.0,-53.0,-60.0,-28.0,-339.0,0.884456,0.319785,0.339677,13856.0,5048.0,5434.0,-7.0,-14.0,1.0
2847.0,2775.0,2847.0,3099.0,3003.0,0.818237,0.183716,-0.544434,-0.017517,-1.0,-1.0,-1.0,6917.0,2475.0,2707.0,-328.0,-144.0,-75.0,-41.0,-38.0,-361.0,0.884515,0.31972,0.33966,13788.0,4876.0,5344.0,-13.0,-12.0,-5.0
2851.0,2770.0,2855.0,3099.0,2999.0,0.818176,0.183655,-0.544495,-0.017578,-1.0,-1.0,-1.0,6906.0,2469.0,2692.0,-340.0,-149.0,-89.0,-32.0,-36.0,-378.0,0.884529,0.319666,0.339518,13762.0,4910.0,5294.0,-10.0,-17.0,-7.0
2847.0,2783.0,2851.0,3101.0,3007.0,0.818054,0.183777,-0.544678,-0.017761,0.0,-2.0,-2.0,6906.0,2497.0,2667.0,-340.0,-124.0,-110.0,-18.0,-6.0,-377.0,0.884624,0.320027,0.33908,13870.0,5128.0,5288.0,2.0,-27.0,-23.0
2850.0,2775.0,2851.0,3099.0,3002.0,0.817932,0.183838,-0.5448,-0.017944,-1.0,-2.0,-2.0,6917.0,2532.0,2662.0,-329.0,-91.0,-112.0,-17.0,22.0,-358.0,0.884621,0.320286,0.338732,13916.0,5280.0,5332.0,-9.0,-25.0,-25.0
2847.0,2775.0,2849.0,3095.0,2999.0,0.817932,0.183716,-0.544861,-0.018311,-2.0,-1.0,-1.0,6950.0,2564.0,2654.0,-296.0,-61.0,-120.0,-1.0,44.0,-322.0,0.884591,0.320488,0.338723,13990.0,5192.0,5268.0,-40.0,-9.0,-8.0
2849.0,2782.0,2853.0,3102.0,2998.0,0.817932,0.183594,-0.544922,-0.018494,-2.0,-1.0,-1.0,6960.0,2563.0,2641.0,-286.0,-62.0,-133.0,14.0,45.0,-317.0,0.884628,0.32049,0.338708,13972.0,5096.0,5194.0,-44.0,-5.0,-3.0
2847.0,2783.0,2855.0,3103.0,3007.0,0.817932,0.18335,-0.544983,-0.018738,-1.0,-1.0,-1.0,6958.0,2541.0,2604.0,-289.0,-83.0,-170.0,49.0,36.0,-339.0,0.884647,0.320359,0.338741,13874.0,5010.0,5072.0,-22.0,-6.0,-7.0
2847.0,2787.0,2849.0,3095.0,3003.0,0.817871,0.18335,-0.545044,-0.018799,-1.0,-1.0,-1.0,6959.0,2530.0,2596.0,-288.0,-94.0,-177.0,58.0,28.0,-344.0,0.884658,0.320405,0.338577,13930.0,5010.0,5116.0,-7.0,-6.0,-5.0
2850.0,2779.0,2819.0,3099.0,2999.0,0.81781,0.183289,-0.545166,-0.018799,-1.0,-1.0,0.0,6971.0,2554.0,2604.0,-277.0,-69.0,-167.0,49.0,46.0,-323.0,0.884793,0.320287,0.338366,13996.0,5200.0,5234.0,-5.0,-2.0,7.0
2851.0,2785.0,2852.0,3099.0,3007.0,0.81781,0.183289,-0.545166,-0.018799,-1.0,0.0,0.0,6973.0,2560.0,2600.0,-275.0,-63.0,-171.0,52.0,52.0,-321.0,0.884793,0.320287,0.338366,13938.0,5140.0,5182.0,-5.0,5.0,8.0
2853.0,2782.0,2855.0,3101.0,2999.0,0.81781,0.183289,-0.545166,-0.018799,-1.0,0.0,0.0,6973.0,2586.0,2595.0,-275.0,-37.0,-176.0,53.0,78.0,-314.0,0.884793,0.320287,0.338366,13974.0,5276.0,5244.0,-2.0,7.0,7.0
2850.0,2779.0,2849.0,3091.0,2998.0,0.81781,0.183289,-0.545166,-0.018738,-1.0,0.0,0.0,6980.0,2598.0,2614.0,-268.0,-25.0,-157.0,36.0,82.0,-298.0,0.884816,0.320221,0.338364,13976.0,5264.0,5336.0,-4.0,11.0,7.0
2851.0,2779.0,2853.0,3101.0,2999.0,0.817932,0.183228,-0.545044,-0.018738,-1.0,0.0,0.0,6993.0,2636.0,2646.0,-254.0,13.0,-128.0,9.0,106.0,-263.0,0.884751,0.320161,0.338719,14010.0,5396.0,5356.0,-16.0,16.0,18.0
2849.0,2782.0,2851.0,3102.0,3002.0,0.817993,0.183167,-0.544983,-0.018738,-2.0,0.0,1.0,6996.0,2641.0,2657.0,-251.0,18.0,-119.0,2.0,107.0,-256.0,0.88472,0.320081,0.338908,13990.0,5274.0,5380.0,-24.0,18.0,25.0
2853.0,2781.0,2855.0,3103.0,3007.0,0.818115,0.182922,-0.544861,-0.018494,-1.0,0.0,1.0,7000.0,2633.0,2654.0,-247.0,16.0,-125.0,9.0,106.0,-255.0,0.884752,0.319456,0.339321,13976.0,5268.0,5288.0,-1.0,17.0,40.0
2851.0,2783.0,2854.0,3094.0,3003.0,0.818115,0.182861,-0.544861,-0.018311,0.0,0.0,1.0,6995.0,2644.0,2647.0,-253.0,29.0,-132.0,11.0,121.0,-259.0,0.884821,0.319157,0.339336,13952.0,5344.0,5268.0,10.0,13.0,44.0
2847.0,2779.0,2847.0,3102.0,2999.0,0.818054,0.182861,-0.544983,-0.017822,1.0,-1.0,2.0,6996.0,2661.0,2624.0,-255.0,50.0,-153.0,25.0,147.0,-261.0,0.885133,0.318607,0.339086,14042.0,5346.0,5150.0,25.0,-4.0,58.0
2850.0,2783.0,2854.0,3099.0,2999.0,0.817993,0.182922,-0.545105,-0.017456,1.0,-1.0,2.0,7009.0,2681.0,2598.0,-244.0,73.0,-177.0,47.0,173.0,-252.0,0.885398,0.318289,0.338817,14096.0,5520.0,4982.0,42.0,-7.0,68.0
2851.0,2783.0,2853.0,3102.0,3003.0,0.817566,0.183533,-0.545593,-0.016541,4.0,-1.0,3.0,7037.0,2834.0,2439.0,-221.0,227.0,-324.0,162.0,353.0,-232.0,0.886045,0.318149,0.337331,14198.0,6434.0,4322.0,112.0,-18.0,83.0
2847.0,2778.0,2855.0,3099.0,3007.0,0.8172,0.184204,-0.545898,-0.01593,6.0,-1.0,4.0,7081.0,3060.0,2357.0,-179.0,451.0,-396.0,204.0,573.0,-148.0,0.886347,0.318456,0.336133,14484.0,7678.0,4206.0,145.0,-14.0,96.0
2851.0,2783.0,2851.0,3099.0,2999.0,0.816711,0.18573,-0.546082,-0.015076,0.0,3.0,8.0,7354.0,4142.0,2309.0,92.0,1521.0,-431.0,152.0,1518.0,423.0,0.886382,0.319841,0.334544,15884.0,12562.0,4926.0,4.0,75.0,190.0
2847.0,2783.0,2854.0,3099.0,3003.0,0.817139,0.185486,-0.545532,-0.015259,-13.0,8.0,14.0,7628.0,5009.0,2408.0,370.0,2389.0,-344.0,34.0,2237.0,976.0,0.88589,0.319784,0.335938,16932.0,15440.0,5406.0,-281.0,198.0,328.0
2849.0,2783.0,2855.0,3102.0,3003.0,0.820435,0.177917,-0.543091,-0.015442,-47.0,22.0,43.0,8284.0,6164.0,2567.0,1028.0,3635.0,-273.0,55.0,3253.0,1937.0,0.885646,0.308712,0.346749,18386.0,14044.0,5398.0,-1072.0,518.0,987.0
2845.0,2782.0,2851.0,3103.0,3007.0,0.823059,0.170349,-0.541626,-0.013245,-53.0,28.0,65.0,8412.0,6266.0,2529.0,1145.0,3851.0,-380.0,186.0,3490.0,2015.0,0.887068,0.294762,0.355224,17220.0,12790.0,4750.0,-1200.0,650.0,1494.0
2846.0,2775.0,2850.0,3095.0,2999.0,0.827942,0.151245,-0.540039,-0.001465,-41.0,23.0,107.0,8089.0,5784.0,2271.0,767.0,3719.0,-768.0,408.0,3612.0,1337.0,0.893799,0.252026,0.370973,14550.0,8836.0,3468.0,-926.0,542.0,2455.0
2851.0,2781.0,2853.0,3099.0,3003.0,0.829102,0.141846,-0.54071,0.008484,-21.0,15.0,120.0,7815.0,5244.0,2112.0,450.0,3392.0,-959.0,476.0,3426.0,811.0,0.899015,0.226034,0.374993,14086.0,7178.0,3430.0,-461.0,349.0,2769.0
2847.0,2783.0,2855.0,3101.0,3002.0,0.828369,0.128174,-0.544189,0.034424,22.0,2.0,126.0,7479.0,4383.0,1952.0,20.0,2950.0,-1118.0,426.0,3123.0,115.0,0.910404,0.174884,0.37481,14212.0,6714.0,3884.0,513.0,58.0,2908.0
2847.0,2781.0,2850.0,3099.0,3006.0,0.827148,0.123718,-0.546021,0.048584,31.0,0.0,125.0,7383.0,4086.0,2011.0,-115.0,2844.0,-1045.0,272.0,3019.0,-63.0,0.915301,0.151611,0.37309,14210.0,6474.0,4482.0,731.0,18.0,2873.0
2843.0,2782.0,2851.0,3095.0,2998.0,0.824768,0.113159,-0.548584,0.077087,19.0,8.0,131.0,7334.0,3343.0,2473.0,-221.0,2506.0,-577.0,-203.0,2567.0,-162.0,0.922355,0.102082,0.372435,15396.0,2888.0,7222.0,446.0,188.0,3016.0
2847.0,2783.0,2851.0,3107.0,2999.0,0.824585,0.105896,-0.547974,0.092041,14.0,23.0,136.0,7327.0,2586.0,2688.0,-235.0,1981.0,-399.0,-267.0,2004.0,-221.0,0.923195,0.073768,0.376923,14216.0,258.0,6100.0,332.0,527.0,3131.0
2849.0,2783.0,2851.0,3095.0,3003.0,0.825623,0.086304,-0.543701,0.123413,17.0,39.0,134.0,6487.0,-542.0,3123.0,-1042.0,-610.0,-103.0,-122.0,-668.0,-1003.0,0.919086,0.008309,0.393824,8686.0,-14396.0,8162.0,390.0,894.0,3083.0
2855.0,2781.0,2850.0,3095.0,2999.0,0.826416,0.07782,-0.539673,0.140442,41.0,43.0,113.0,5390.0,-3131.0,3483.0,-2096.0,-2942.0,162.0,-3.0,-3146.0,-1782.0,0.913847,-0.022962,0.405385,3402.0,-21868.0,9000.0,941.0,991.0,2594.0
2849.0,2775.0,2853.0,3095.0,2999.0,0.828003,0.066223,-0.531006,0.16748,32.0,20.0,51.0,2797.0,-6220.0,4272.0,-4588.0,-5661.0,771.0,-435.0,-6465.0,-3420.0,0.901531,-0.0682,0.427286,-886.0,-18114.0,11976.0,748.0,463.0,1186.0
2847.0,2783.0,2853.0,3091.0,2995.0,0.829224,0.058105,-0.527954,0.17395,-18.0,-12.0,-18.0,1914.0,-7292.0,5065.0,-5424.0,-6576.0,1495.0,-1050.0,-7784.0,-3633.0,0.895799,-0.087311,0.435759,3364.0,-17304.0,11360.0,-409.0,-252.0,-391.0
2851.0,2783.0,2847.0,3103.0,3007.0,0.829468,0.054321,-0.529053,0.170532,-33.0,-21.0,-43.0,2044.0,-7620.0,5040.0,-5297.0,-6880.0,1482.0,-954.0,-8033.0,-3482.0,0.896191,-0.090326,0.43425,5190.0,-16786.0,9478.0,-744.0,-474.0,-966.0
2847.0,2781.0,2850.0,3101.0,2997.0,0.829773,0.050232,-0.533569,0.15564,-43.0,-26.0,-77.0,2949.0,-6980.0,4722.0,-4432.0,-6302.0,1236.0,-803.0,-7180.0,-2946.0,0.901119,-0.082727,0.425527,9426.0,-9786.0,8490.0,-969.0,-575.0,-1763.0
2847.0,2778.0,2851.0,3099.0,2999.0,0.831055,0.052124,-0.537354,0.133545,-37.0,-20.0,-97.0,4146.0,-4859.0,4078.0,-3284.0,-4392.0,661.0,-630.0,-4908.0,-2453.0,0.907062,-0.056886,0.41702,12038.0,-3068.0,5804.0,-836.0,-442.0,-2219.0
2847.0,2775.0,2853.0,3095.0,2999.0,0.831726,0.05603,-0.538879,0.121155,-26.0,-16.0,-107.0,4775.0,-3629.0,3627.0,-2679.0,-3322.0,244.0,-389.0,-3636.0,-2212.0,0.909977,-0.037372,0.412916,13330.0,480.0,4424.0,-580.0,-349.0,-2440.0
2845.0,2779.0,2855.0,3095.0,2998.0,0.832886,0.069641,-0.540527,0.095947,-8.0,-9.0,-107.0,6297.0,-411.0,2926.0,-1188.0,-511.0,-399.0,2.0,-509.0,-1253.0,0.913759,0.012282,0.405885,17722.0,9884.0,4552.0,-182.0,-195.0,-2432.0
2847.0,2781.0,2848.0,3095.0,3003.0,0.83429,0.085205,-0.539612,0.074219,-7.0,5.0,-70.0,8361.0,3668.0,3050.0,881.0,3159.0,-252.0,-99.0,3162.0,898.0,0.913033,0.062073,0.403107,23342.0,20432.0,7420.0,-149.0,129.0,-1593.0
2847.0,2783.0,2855.0,3101.0,2999.0,0.835388,0.090942,-0.537964,0.06604,-16.0,14.0,-40.0,9388.0,5815.0,3314.0,1926.0,5152.0,0.0,-278.0,5045.0,2171.0,0.910829,0.08089,0.404559,24694.0,24140.0,8186.0,-356.0,329.0,-915.0
2847.0,2783.0,2861.0,3103.0,3003.0,0.838135,0.093201,-0.534241,0.057922,-35.0,21.0,32.0,10572.0,8723.0,3472.0,3147.0,7950.0,99.0,-321.0,7728.0,3642.0,0.906328,0.09434,0.411725,22994.0,23408.0,6462.0,-797.0,484.0,740.0
2843.0,2779.0,2847.0,3093.0,2997.0,0.838867,0.089661,-0.533691,0.059021,-37.0,15.0,66.0,10657.0,9113.0,3261.0,3235.0,8396.0,-133.0,-147.0,8242.0,3609.0,0.905976,0.087429,0.414316,21398.0,19280.0,5032.0,-845.0,353.0,1516.0
2845.0,2775.0,2846.0,3095.0,2993.0,0.83728,0.077271,-0.536438,0.072449,-15.0,-4.0,114.0,10146.0,7685.0,2531.0,2695.0,7261.0,-848.0,385.0,7377.0,2476.0,0.909494,0.051666,0.412551,17990.0,8872.0,2946.0,-328.0,-69.0,2616.0
2847.0,2783.0,2855.0,3103.0,3003.0,0.835022,0.070557,-0.539185,0.083862,1.0,-11.0,125.0,9697.0,6409.0,2240.0,2223.0,6184.0,-1107.0,546.0,6408.0,1745.0,0.912296,0.027398,0.408596,16638.0,4666.0,2726.0,39.0,-234.0,2886.0
2847.0,2775.0,2847.0,3103.0,3007.0,0.829651,0.059692,-0.543701,0.112,29.0,-9.0,125.0,8556.0,3378.0,2174.0,1055.0,3564.0,-1116.0,503.0,3823.0,436.0,0.915535,-0.022741,0.40169,12606.0,-3036.0,4868.0,680.0,-201.0,2868.0
2847.0,2785.0,2847.0,3101.0,2980.0,0.827026,0.055054,-0.5448,0.127136,44.0,-9.0,115.0,7662.0,1122.0,2563.0,165.0,1510.0,-716.0,288.0,1641.0,-207.0,0.915126,-0.047466,0.400299,9404.0,-12548.0,7578.0,1009.0,-186.0,2643.0
2847.0,2778.0,2850.0,3095.0,3003.0,0.823608,0.04657,-0.542786,0.157776,50.0,6.0,80.0,5203.0,-3614.0,3448.0,-2241.0,-2839.0,118.0,-31.0,-3183.0,-1720.0,0.908781,-0.094566,0.406439,2396.0,-18920.0,9572.0,1165.0,148.0,1851.0
2850.0,2782.0,2846.0,3095.0,3007.0,0.823364,0.038574,-0.53833,0.175354,7.0,4.0,21.0,3110.0,-5810.0,4312.0,-4262.0,-4783.0,892.0,-728.0,-5753.0,-2864.0,0.900012,-0.125275,0.41739,1258.0,-16556.0,10548.0,162.0,98.0,493.0
2851.0,2775.0,2855.0,3095.0,3005.0,0.824036,0.033997,-0.537231,0.176514,-20.0,0.0,-10.0,2549.0,-6576.0,4303.0,-4802.0,-5481.0,858.0,-685.0,-6558.0,-3216.0,0.897397,-0.133629,0.420418,2394.0,-17634.0,8216.0,-450.0,3.0,-226.0
2847.0,2783.0,2850.0,3107.0,3003.0,0.825195,0.025696,-0.538452,0.168518,-37.0,-9.0,-53.0,2665.0,-7314.0,4004.0,-4685.0,-6174.0,573.0,-318.0,-7116.0,-3105.0,0.897317,-0.13907,0.418755,6928.0,-15000.0,6814.0,-845.0,-197.0,-1214.0
2849.0,2779.0,2855.0,3099.0,2999.0,0.825989,0.023926,-0.53949,0.161499,-34.0,-9.0,-67.0,3002.0,-7088.0,3784.0,-4362.0,-5984.0,370.0,-171.0,-6795.0,-2960.0,0.898953,-0.134729,0.416718,7994.0,-12030.0,6058.0,-763.0,-193.0,-1533.0
2843.0,2779.0,2850.0,3095.0,2999.0,0.827393,0.026367,-0.541931,0.144897,-16.0,-17.0,-82.0,3747.0,-5547.0,3506.0,-3662.0,-4617.0,137.0,-239.0,-5217.0,-2732.0,0.904421,-0.113417,0.411189,9938.0,-5032.0,6762.0,-350.0,-371.0,-1869.0
2851.0,2775.0,2851.0,3095.0,2993.0,0.827515,0.038452,-0.54541,0.127258,11.0,-29.0,-97.0,4652.0,-3743.0,3519.0,-2822.0,-3127.0,225.0,-462.0,-3537.0,-2249.0,0.912457,-0.075177,0.402024,11868.0,-2994.0,6822.0,255.0,-655.0,-2209.0
2847.0,2783.0,2851.0,3101.0,3003.0,0.826721,0.047668,-0.547791,0.118713,27.0,-38.0,-102.0,5046.0,-3012.0,3485.0,-2466.0,-2592.0,247.0,-493.0,-2913.0,-2031.0,0.917058,-0.051243,0.395214,12334.0,-1582.0,6722.0,629.0,-848.0,-2336.0
2850.0,2779.0,2847.0,3095.0,3007.0,0.822327,0.071899,-0.555054,0.102234,47.0,-62.0,-108.0,5575.0,-1208.0,3335.0,-2023.0,-1246.0,275.0,-672.0,-1449.0,-1779.0,0.927572,0.004759,0.373419,12688.0,3680.0,6254.0,1083.0,-1410.0,-2452.0
2847.0,2783.0,2855.0,3095.0,2999.0,0.81427,0.098206,-0.565979,0.083557,32.0,-79.0,-107.0,6258.0,780.0,3222.0,-1427.0,244.0,436.0,-947.0,89.0,-1174.0,0.938131,0.065349,0.340041,15086.0,6924.0,6086.0,734.0,-1800.0,-2429.0
2843.0,2773.0,2847.0,3099.0,3007.0,0.809631,0.109314,-0.572021,0.072998,17.0,-78.0,-104.0,6742.0,1408.0,3109.0,-976.0,642.0,473.0,-913.0,503.0,-707.0,0.942212,0.093495,0.321674,16400.0,6024.0,5430.0,399.0,-1785.0,-2365.0
2847.0,2778.0,2847.0,3101.0,3007.0,0.800781,0.127563,-0.582947,0.051208,6.0,-67.0,-103.0,7411.0,1769.0,2591.0,-344.0,584.0,233.0,-457.0,523.0,-174.0,0.94669,0.144597,0.287774,16148.0,3856.0,3330.0,156.0,-1517.0,-2344.0
2843.0,2783.0,2847.0,3091.0,3005.0,0.79657,0.136536,-0.587463,0.040466,9.0,-61.0,-105.0,7541.0,1887.0,2302.0,-216.0,494.0,70.0,-242.0,476.0,-101.0,0.946961,0.169975,0.272406,15750.0,4680.0,2870.0,223.0,-1375.0,-2400.0
2837.0,2783.0,2853.0,3103.0,2995.0,0.78894,0.155029,-0.594299,0.019592,12.0,-49.0,-102.0,7690.0,2208.0,1874.0,-41.0,394.0,-137.0,30.0,417.0,14.0,0.943808,0.22133,0.245585,15668.0,5300.0,2576.0,291.0,-1103.0,-2319.0
2847.0,2774.0,2850.0,3095.0,2995.0,0.785339,0.163818,-0.596924,0.010376,15.0,-45.0,-94.0,7696.0,2392.0,1690.0,-12.0,385.0,-224.0,124.0,426.0,30.0,0.940975,0.244919,0.233711,15360.0,6004.0,2326.0,350.0,-1010.0,-2140.0
2847.0,2779.0,2847.0,3101.0,2999.0,0.778259,0.180237,-0.601501,-0.005432,16.0,-39.0,-77.0,7705.0,3061.0,1426.0,51.0,709.0,-306.0,153.0,735.0,186.0,0.93429,0.287077,0.211428,15772.0,8674.0,2338.0,387.0,-874.0,-1758.0
2847.0,2779.0,2857.0,3095.0,3003.0,0.775146,0.187622,-0.603149,-0.012451,13.0,-33.0,-71.0,7811.0,3495.0,1373.0,189.0,989.0,-281.0,110.0,950.0,421.0,0.930386,0.305889,0.202016,16282.0,9568.0,2420.0,320.0,-743.0,-1608.0
2843.0,2783.0,2854.0,3102.0,3007.0,0.770813,0.199646,-0.604431,-0.025574,-1.0,-17.0,-57.0,8041.0,4429.0,1335.0,491.0,1654.0,-218.0,2.0,1442.0,971.0,0.921595,0.338695,0.189611,16790.0,11650.0,2744.0,0.0,-369.0,-1288.0
2847.0,2775.0,2851.0,3095.0,2999.0,0.769958,0.203369,-0.603943,-0.03186,-12.0,-8.0,-48.0,8146.0,4797.0,1339.0,633.0,1916.0,-199.0,-19.0,1621.0,1216.0,0.917063,0.351655,0.187745,16844.0,11542.0,2676.0,-267.0,-173.0,-1078.0
2858.0,2779.0,2843.0,3095.0,3003.0,0.770508,0.206177,-0.601624,-0.042542,-23.0,7.0,-28.0,8096.0,4848.0,1206.0,644.0,1825.0,-358.0,180.0,1556.0,1190.0,0.909569,0.36891,0.191032,15490.0,8978.0,1846.0,-514.0,164.0,-638.0
2844.0,2787.0,2850.0,3099.0,3007.0,0.771362,0.206482,-0.60022,-0.046082,-19.0,10.0,-20.0,7889.0,4717.0,1098.0,459.0,1654.0,-493.0,299.0,1489.0,938.0,0.906944,0.373863,0.194225,14354.0,8712.0,1534.0,-418.0,235.0,-445.0
2845.0,2757.0,2853.0,3101.0,3005.0,0.772522,0.207336,-0.598022,-0.050964,-13.0,5.0,-9.0,7317.0,4888.0,994.0,-79.0,1764.0,-634.0,278.0,1793.0,475.0,0.902837,0.3813,0.198768,13082.0,10838.0,1944.0,-278.0,119.0,-205.0
2847.0,2775.0,2847.0,3089.0,3003.0,0.772705,0.207397,-0.597534,-0.053345,-16.0,0.0,-7.0,7153.0,5046.0,1035.0,-230.0,1898.0,-602.0,190.0,1954.0,401.0,0.901308,0.384265,0.199858,13540.0,10988.0,2402.0,-361.0,20.0,-142.0
2849.0,2771.0,2847.0,3099.0,3006.0,0.773315,0.205383,-0.596985,-0.058289,-24.0,0.0,-3.0,7199.0,4932.0,1131.0,-168.0,1759.0,-530.0,182.0,1786.0,422.0,0.899372,0.387247,0.202841,14882.0,8876.0,2480.0,-538.0,7.0,-47.0
2849.0,2779.0,2849.0,3101.0,3005.0,0.773865,0.203613,-0.596619,-0.060303,-24.0,3.0,-1.0,7275.0,4718.0,1158.0,-88.0,1546.0,-522.0,238.0,1562.0,412.0,0.898847,0.387094,0.205091,14932.0,8080.0,2414.0,-534.0,75.0,-8.0
2847.0,2783.0,2853.0,3103.0,2999.0,0.775574,0.200378,-0.595276,-0.063416,-21.0,9.0,-1.0,7306.0,4300.0,1131.0,-49.0,1135.0,-597.0,393.0,1191.0,268.0,0.897946,0.386316,0.211031,14578.0,7460.0,2192.0,-460.0,208.0,-14.0
2843.0,2775.0,2847.0,3094.0,3003.0,0.776611,0.198914,-0.594238,-0.064819,-20.0,11.0,-2.0,7282.0,4068.0,1117.0,-67.0,905.0,-641.0,466.0,997.0,151.0,0.897197,0.385993,0.214641,14376.0,6622.0,2132.0,-448.0,261.0,-33.0
2845.0,2783.0,2851.0,3103.0,3003.0,0.77887,0.195984,-0.592041,-0.06665,-16.0,12.0,0.0,7115.0,3380.0,1057.0,-226.0,232.0,-762.0,627.0,460.0,-282.0,0.896121,0.384211,0.222158,13640.0,4648.0,1998.0,-345.0,291.0,20.0
2851.0,2783.0,2845.0,3103.0,3006.0,0.779907,0.19458,-0.591125,-0.066895,-12.0,11.0,2.0,7021.0,3078.0,1076.0,-319.0,-56.0,-770.0,643.0,228.0,-480.0,0.896013,0.382595,0.225439,13488.0,4476.0,2338.0,-264.0,271.0,63.0
2845.0,2786.0,2850.0,3071.0,3006.0,0.781494,0.192688,-0.589661,-0.066589,-6.0,8.0,2.0,6831.0,2771.0,1199.0,-508.0,-339.0,-687.0,542.0,10.0,-742.0,0.895971,0.379699,0.230339,13224.0,5048.0,2910.0,-119.0,192.0,53.0
2847.0,2777.0,2851.0,3095.0,3011.0,0.782043,0.192261,-0.58905,-0.066589,-4.0,6.0,0.0,6789.0,2752.0,1313.0,-548.0,-354.0,-588.0,437.0,-12.0,-761.0,0.895721,0.379161,0.232082,13392.0,5520.0,3332.0,-83.0,152.0,7.0
2850.0,2779.0,2847.0,3101.0,2995.0,0.782898,0.192078,-0.587891,-0.0672,-3.0,4.0,-5.0,6856.0,2788.0,1562.0,-473.0,-323.0,-362.0,239.0,-59.0,-630.0,0.894702,0.379767,0.234936,14110.0,5582.0,3826.0,-54.0,107.0,-94.0
2847.0,2785.0,2855.0,3103.0,2999.0,0.783264,0.192322,-0.58728,-0.067566,-1.0,4.0,-6.0,6923.0,2786.0,1662.0,-400.0,-332.0,-272.0,176.0,-111.0,-548.0,0.894002,0.380638,0.236182,14248.0,5558.0,3890.0,-9.0,109.0,-123.0
2846.0,2783.0,2859.0,3099.0,2993.0,0.783875,0.193542,-0.58606,-0.067993,3.0,4.0,-6.0,7031.0,2911.0,1858.0,-280.0,-227.0,-92.0,29.0,-93.0,-358.0,0.892475,0.383122,0.238158,14262.0,6570.0,4282.0,81.0,111.0,-123.0
2847.0,2781.0,2847.0,3095.0,2999.0,0.784119,0.194336,-0.585449,-0.068237,3.0,4.0,-5.0,7042.0,3065.0,1942.0,-261.0,-86.0,-15.0,-55.0,11.0,-269.0,0.891601,0.384664,0.238981,14108.0,7072.0,4364.0,76.0,95.0,-112.0
2845.0,2780.0,2847.0,3095.0,3003.0,0.784363,0.195496,-0.584595,-0.068787,0.0,0.0,-2.0,7007.0,3346.0,2057.0,-285.0,174.0,91.0,-194.0,234.0,-164.0,0.890174,0.387104,0.239987,13884.0,7382.0,4340.0,20.0,13.0,-39.0
2847.0,2781.0,2855.0,3099.0,3001.0,0.784363,0.195679,-0.584595,-0.069031,-1.0,-2.0,0.0,6996.0,3432.0,2083.0,-295.0,256.0,117.0,-231.0,306.0,-135.0,0.890053,0.387676,0.239949,13954.0,7304.0,4286.0,-15.0,-38.0,5.0
2846.0,2783.0,2853.0,3095.0,3006.0,0.783997,0.195435,-0.585144,-0.069153,0.0,-5.0,2.0,6996.0,3358.0,2043.0,-298.0,184.0,86.0,-194.0,249.0,-173.0,0.890472,0.387369,0.238845,13968.0,6168.0,3808.0,1.0,-103.0,60.0
2847.0,2779.0,2851.0,3089.0,3003.0,0.783569,0.195374,-0.585754,-0.068848,2.0,-6.0,3.0,6990.0,3267.0,1976.0,-309.0,98.0,30.0,-134.0,186.0,-230.0,0.891056,0.386833,0.237442,13932.0,6014.0,3542.0,63.0,-126.0,73.0
2847.0,2779.0,2846.0,3099.0,3003.0,0.782288,0.196045,-0.587341,-0.067871,7.0,-8.0,2.0,6979.0,3199.0,1891.0,-330.0,33.0,-19.0,-85.0,145.0,-286.0,0.892328,0.386454,0.233177,13968.0,6436.0,3608.0,170.0,-181.0,49.0
2847.0,2783.0,2849.0,3093.0,3007.0,0.781494,0.196655,-0.588257,-0.067444,7.0,-9.0,1.0,6990.0,3216.0,1870.0,-324.0,48.0,-18.0,-85.0,157.0,-274.0,0.892912,0.386719,0.230562,14086.0,6552.0,3628.0,166.0,-198.0,31.0
2847.0,2779.0,2849.0,3103.0,2999.0,0.779968,0.197449,-0.590027,-0.066895,3.0,-9.0,1.0,7025.0,3230.0,1864.0,-298.0,60.0,15.0,-109.0,151.0,-239.0,0.893988,0.386947,0.225708,14134.0,6558.0,3750.0,89.0,-199.0,42.0
2847.0,2778.0,2850.0,3093.0,3005.0,0.779358,0.197388,-0.59082,-0.066833,0.0,-9.0,2.0,7036.0,3272.0,1869.0,-292.0,104.0,35.0,-132.0,185.0,-213.0,0.894537,0.386644,0.223835,14154.0,6862.0,3746.0,11.0,-191.0,65.0
2847.0,2783.0,2849.0,3095.0,2999.0,0.778687,0.196045,-0.592224,-0.0672,-7.0,-6.0,4.0,7135.0,3252.0,1840.0,-204.0,98.0,23.0,-93.0,153.0,-139.0,0.895966,0.38491,0.221705,14718.0,6130.0,3514.0,-152.0,-126.0,98.0
2849.0,2778.0,2855.0,3099.0,2999.0,0.778625,0.195007,-0.59259,-0.067322,-7.0,-3.0,4.0,7201.0,3167.0,1800.0,-143.0,25.0,-15.0,-30.0,74.0,-121.0,0.896555,0.383464,0.221599,14762.0,5798.0,3326.0,-158.0,-58.0,107.0
2849.0,2779.0,2850.0,3101.0,3006.0,0.77887,0.193359,-0.592834,-0.067017,-4.0,1.0,3.0,7213.0,3020.0,1670.0,-139.0,-98.0,-150.0,114.0,-10.0,-195.0,0.897565,0.380663,0.222289,14284.0,5580.0,2916.0,-74.0,44.0,86.0
2847.0,2775.0,2850.0,3099.0,3005.0,0.778992,0.192993,-0.592834,-0.06665,-1.0,2.0,3.0,7166.0,2931.0,1608.0,-189.0,-179.0,-215.0,172.0,-53.0,-285.0,0.8979,0.379705,0.222571,14040.0,5326.0,2828.0,-4.0,49.0,69.0
2845.0,2782.0,2855.0,3091.0,2999.0,0.778931,0.193359,-0.592896,-0.06543,5.0,0.0,1.0,7051.0,2873.0,1564.0,-308.0,-230.0,-255.0,182.0,-51.0,-420.0,0.898346,0.378813,0.222101,13740.0,6012.0,3156.0,134.0,18.0,45.0
2847.0,2781.0,2847.0,3095.0,3005.0,0.778809,0.193787,-0.593018,-0.064941,4.0,-1.0,1.0,7007.0,2978.0,1595.0,-353.0,-125.0,-219.0,122.0,51.0,-413.0,0.898525,0.378868,0.221537,13790.0,6672.0,3410.0,112.0,-10.0,29.0
2847.0,2775.0,2855.0,3095.0,3007.0,0.778564,0.194092,-0.593201,-0.065063,-2.0,-2.0,-1.0,7026.0,3086.0,1674.0,-333.0,-22.0,-135.0,35.0,120.0,-337.0,0.898433,0.379417,0.220837,14268.0,6138.0,3550.0,-36.0,-25.0,-7.0
2847.0,2782.0,2853.0,3099.0,3003.0,0.778625,0.19397,-0.593201,-0.065308,-3.0,-1.0,-1.0,7057.0,3034.0,1683.0,-302.0,-75.0,-127.0,43.0,60.0,-327.0,0.898427,0.379541,0.221011,14290.0,5738.0,3410.0,-53.0,-1.0,-19.0
2847.0,2779.0,2851.0,3099.0,3005.0,0.77887,0.193787,-0.592896,-0.065552,-2.0,2.0,-1.0,7086.0,2984.0,1697.0,-271.0,-125.0,-120.0,51.0,2.0,-317.0,0.89817,0.3796,0.221857,14168.0,5876.0,3468.0,-24.0,49.0,-16.0
2846.0,2783.0,2852.0,3095.0,3007.0,0.779053,0.193726,-0.592651,-0.065552,-1.0,2.0,-1.0,7079.0,2999.0,1702.0,-277.0,-110.0,-120.0,47.0,17.0,-317.0,0.898015,0.379544,0.222455,14084.0,6116.0,3432.0,-15.0,61.0,-2.0
2847.0,2775.0,2854.0,3102.0,2997.0,0.779358,0.193787,-0.592224,-0.06543,0.0,2.0,0.0,7037.0,3040.0,1708.0,-317.0,-69.0,-122.0,32.0,69.0,-338.0,0.89775,0.379556,0.223397,13970.0,6194.0,3450.0,8.0,48.0,20.0
2851.0,2783.0,2851.0,3095.0,2998.0,0.77948,0.193848,-0.592102,-0.065247,1.0,1.0,1.0,7035.0,3044.0,1723.0,-319.0,-64.0,-109.0,18.0,71.0,-335.0,0.897768,0.379466,0.223684,14112.0,6126.0,3546.0,27.0,37.0,26.0
2845.0,2778.0,2903.0,3095.0,2999.0,0.779602,0.194092,-0.591858,-0.064819,1.0,1.0,0.0,7055.0,3130.0,1752.0,-298.0,22.0,-83.0,-10.0,137.0,-277.0,0.897666,0.379356,0.224014,14232.0,6596.0,3602.0,23.0,25.0,22.0
2849.0,2783.0,2847.0,3091.0,3005.0,0.779724,0.194092,-0.591736,-0.064819,-1.0,1.0,0.0,7075.0,3171.0,1773.0,-278.0,63.0,-64.0,-28.0,164.0,-239.0,0.89762,0.379388,0.224348,14274.0,6536.0,3634.0,-13.0,27.0,10.0
2851.0,2781.0,2849.0,3095.0,2995.0,0.780029,0.193787,-0.59137,-0.065125,-4.0,1.0,0.0,7097.0,3170.0,1799.0,-253.0,62.0,-47.0,-37.0,151.0,-214.0,0.897331,0.379344,0.225416,14236.0,6248.0,3660.0,-73.0,41.0,12.0
2847.0,2781.0,2847.0,3095.0,3005.0,0.780273,0.19342,-0.591125,-0.065308,-4.0,2.0,0.0,7093.0,3140.0,1792.0,-256.0,34.0,-61.0,-21.0,129.0,-230.0,0.897215,0.379052,0.226251,14158.0,6024.0,3536.0,-89.0,51.0,22.0
2849.0,2779.0,2846.0,3095.0,3007.0,0.780762,0.192627,-0.590698,-0.06543,-3.0,2.0,1.0,7053.0,3041.0,1768.0,-296.0,-56.0,-98.0,13.0,68.0,-309.0,0.897182,0.37809,0.22784,13950.0,5784.0,3488.0,-54.0,54.0,31.0
2851.0,2779.0,2851.0,3099.0,3002.0,0.780945,0.192444,-0.590576,-0.065308,-1.0,1.0,1.0,7016.0,3004.0,1747.0,-334.0,-90.0,-123.0,29.0,54.0,-361.0,0.897279,0.377714,0.228325,13804.0,5834.0,3368.0,-20.0,41.0,39.0
2851.0,2786.0,2855.0,3095.0,2995.0,0.781006,0.192261,-0.590576,-0.06488,0.0,-1.0,1.0,6974.0,3003.0,1741.0,-378.0,-84.0,-130.0,22.0,76.0,-400.0,0.897539,0.376947,0.228435,13918.0,6052.0,3534.0,15.0,-5.0,43.0
2847.0,2779.0,2847.0,3095.0,2999.0,0.780945,0.1922,-0.590698,-0.064697,0.0,-1.0,1.0,6982.0,3006.0,1748.0,-372.0,-79.0,-121.0,15.0,76.0,-391.0,0.897736,0.376628,0.228195,14048.0,6028.0,3534.0,16.0,-22.0,40.0
2847.0,2783.0,2824.0,3091.0,2999.0,0.780762,0.192139,-0.591003,-0.064514,0.0,-2.0,0.0,6998.0,2989.0,1753.0,-359.0,-93.0,-111.0,11.0,57.0,-382.0,0.898074,0.376285,0.227549,14020.0,5858.0,3488.0,3.0,-26.0,18.0
2850.0,2775.0,2851.0,3103.0,3003.0,0.780701,0.192078,-0.591125,-0.064514,0.0,-2.0,0.0,7009.0,2976.0,1745.0,-349.0,-105.0,-117.0,21.0,44.0,-379.0,0.898201,0.376182,0.227332,14106.0,5888.0,3460.0,2.0,-26.0,7.0
2847.0,2781.0,2854.0,3099.0,3003.0,0.780579,0.192078,-0.591309,-0.064575,-1.0,-1.0,-1.0,7047.0,2981.0,1755.0,-312.0,-101.0,-104.0,20.0,32.0,-341.0,0.898319,0.376231,0.226933,14214.0,5968.0,3492.0,-9.0,-10.0,-4.0
2851.0,2778.0,2851.0,3094.0,3007.0,0.780579,0.192017,-0.591309,-0.064636,-1.0,0.0,-1.0,7068.0,2976.0,1758.0,-290.0,-105.0,-101.0,24.0,21.0,-322.0,0.898303,0.376208,0.226965,14284.0,5900.0,3516.0,-18.0,4.0,-4.0
2846.0,2778.0,2847.0,3099.0,2999.0,0.780701,0.191833,-0.591125,-0.064697,-1.0,1.0,0.0,7064.0,2941.0,1748.0,-293.0,-139.0,-115.0,40.0,-5.0,-341.0,0.898162,0.376017,0.22745,13992.0,5734.0,3414.0,-17.0,29.0,2.0
2849.0,2781.0,2854.0,3101.0,2999.0,0.780762,0.191833,-0.591064,-0.064636,-1.0,0.0,0.0,7027.0,2940.0,1736.0,-330.0,-139.0,-128.0,42.0,9.0,-377.0,0.898162,0.375961,0.227609,13820.0,5924.0,3412.0,-1.0,20.0,11.0
2852.0,2775.0,2853.0,3103.0,2999.0,0.780762,0.191711,-0.591187,-0.064575,-1.0,-1.0,1.0,6980.0,3004.0,1750.0,-379.0,-73.0,-113.0,5.0,82.0,-393.0,0.898392,0.375714,0.227504,13912.0,6252.0,3614.0,-13.0,-19.0,33.0
2847.0,2778.0,2853.0,3106.0,2999.0,0.780701,0.191528,-0.591248,-0.064575,-2.0,-2.0,1.0,6994.0,3037.0,1770.0,-366.0,-38.0,-92.0,-15.0,105.0,-364.0,0.898439,0.375412,0.227407,14122.0,6262.0,3660.0,-39.0,-24.0,36.0
2831.0,2777.0,2847.0,3099.0,2999.0,0.780762,0.190918,-0.59137,-0.064758,-3.0,-1.0,1.0,7057.0,3032.0,1783.0,-305.0,-37.0,-81.0,-7.0,83.0,-306.0,0.89871,0.374715,0.227615,14274.0,5970.0,3566.0,-66.0,-6.0,27.0
2843.0,2782.0,2890.0,3099.0,2995.0,0.780823,0.190613,-0.59137,-0.06488,-3.0,0.0,0.0,7073.0,3004.0,1769.0,-289.0,-63.0,-97.0,15.0,57.0,-305.0,0.898776,0.374406,0.227842,14214.0,5828.0,3450.0,-56.0,6.0,19.0
2850.0,2782.0,2854.0,3103.0,2997.0,0.780945,0.190247,-0.59137,-0.06488,-1.0,0.0,0.0,7083.0,2965.0,1757.0,-281.0,-97.0,-112.0,36.0,27.0,-314.0,0.898968,0.373881,0.228172,14184.0,5872.0,3492.0,-11.0,15.0,12.0
2847.0,2782.0,2851.0,3095.0,2995.0,0.781006,0.190247,-0.591309,-0.064819,0.0,0.0,0.0,7080.0,2965.0,1760.0,-284.0,-97.0,-110.0,33.0,27.0,-316.0,0.898968,0.373824,0.228332,14132.0,5934.0,3550.0,3.0,17.0,7.0
2847.0,2779.0,2853.0,3101.0,3003.0,0.781067,0.19043,-0.591187,-0.064758,0.0,0.0,-1.0,7055.0,2964.0,1764.0,-308.0,-100.0,-107.0,23.0,32.0,-338.0,0.898849,0.374045,0.228494,13996.0,5886.0,3492.0,15.0,13.0,-6.0
2854.0,2783.0,2851.0,3095.0,2999.0,0.781067,0.190552,-0.591125,-0.064697,0.0,0.0,-1.0,7035.0,2969.0,1762.0,-327.0,-96.0,-109.0,19.0,42.0,-354.0,0.898761,0.374156,0.228512,13946.0,6020.0,3532.0,20.0,2.0,-6.0
2847.0,2779.0,2847.0,3091.0,2997.0,0.780884,0.190735,-0.591248,-0.064697,0.0,-2.0,0.0,7026.0,2996.0,1769.0,-336.0,-70.0,-98.0,3.0,67.0,-350.0,0.898711,0.374388,0.228012,14104.0,6046.0,3598.0,11.0,-23.0,5.0
2847.0,2782.0,2855.0,3095.0,2999.0,0.780823,0.190735,-0.59137,-0.064697,0.0,-2.0,0.0,7036.0,3012.0,1787.0,-327.0,-54.0,-78.0,-14.0,74.0,-331.0,0.89883,0.37438,0.227772,14146.0,6166.0,3692.0,4.0,-25.0,8.0
2853.0,2777.0,2843.0,3091.0,3006.0,0.780762,0.190674,-0.591492,-0.064819,-1.0,-1.0,0.0,7062.0,3044.0,1811.0,-301.0,-23.0,-53.0,-34.0,88.0,-291.0,0.898909,0.374422,0.227571,14196.0,6118.0,3666.0,-19.0,-19.0,9.0
2850.0,2781.0,2855.0,3103.0,3003.0,0.780762,0.190552,-0.591553,-0.06488,-1.0,-1.0,0.0,7068.0,3029.0,1811.0,-296.0,-37.0,-53.0,-31.0,74.0,-292.0,0.898997,0.374311,0.227554,14188.0,5912.0,3578.0,-22.0,-11.0,14.0
2854.0,2778.0,2851.0,3103.0,2995.0,0.780701,0.190491,-0.591614,-0.064697,0.0,-1.0,1.0,7072.0,3001.0,1798.0,-293.0,-62.0,-64.0,-17.0,52.0,-301.0,0.899098,0.373984,0.227386,14064.0,6060.0,3560.0,20.0,-4.0,23.0
2847.0,2782.0,2850.0,3094.0,3005.0,0.78064,0.190552,-0.591675,-0.064575,0.0,-1.0,0.0,7058.0,3027.0,1800.0,-307.0,-36.0,-61.0,-27.0,80.0,-303.0,0.89916,0.37392,0.227179,14064.0,6240.0,3624.0,18.0,-9.0,19.0
2847.0,2779.0,2855.0,3094.0,3003.0,0.780579,0.190491,-0.591797,-0.064575,-1.0,-1.0,0.0,7058.0,3034.0,1785.0,-308.0,-28.0,-74.0,-16.0,91.0,-304.0,0.899286,0.373817,0.226963,14136.0,5998.0,3520.0,-12.0,-15.0,15.0
941025.0,0.252287,0.225165,15030.0,3984.0,3744.0,-44.0,-17.0,3.0,,,,,,,,,,,,,,,,,,,,,
2846.0,2774.0,2839.0,3071.0,2993.0,0.782715,0.159241,-0.601624,-0.002319,-3.0,0.0,0.0,7429.0,2016.0,1833.0,-280.0,-48.0,-12.0,-56.0,12.0,-278.0,0.941061,0.252071,0.225339,14920.0,3850.0,3692.0,-49.0,2.0,5.0
2835.0,2771.0,2838.0,3071.0,2990.0,0.782837,0.158875,-0.601562,-0.002319,-1.0,0.0,0.0,7395.0,1964.0,1816.0,-314.0,-96.0,-33.0,-37.0,-21.0,-327.0,0.941114,0.251536,0.22572,14640.0,3880.0,3602.0,-12.0,1.0,20.0
2850.0,2774.0,2843.0,3088.0,3055.0,0.782837,0.158752,-0.601624,-0.002258,-1.0,-1.0,1.0,7378.0,1956.0,1817.0,-332.0,-102.0,-31.0,-43.0,-24.0,-345.0,0.941229,0.251272,0.225686,14648.0,3846.0,3656.0,-2.0,-13.0,28.0
2847.0,2768.0,2843.0,3071.0,2987.0,0.782715,0.158691,-0.601807,-0.002014,0.0,-2.0,1.0,7402.0,1979.0,1835.0,-310.0,-75.0,-10.0,-61.0,-8.0,-312.0,0.941447,0.250845,0.225292,14946.0,4084.0,3754.0,13.0,-25.0,28.0
2850.0,2779.0,2843.0,3071.0,2991.0,0.782654,0.15863,-0.601868,-0.001892,0.0,-1.0,1.0,7418.0,2000.0,1836.0,-294.0,-52.0,-8.0,-63.0,9.0,-291.0,0.941508,0.250583,0.225142,14916.0,4136.0,3640.0,2.0,-18.0,25.0
2847.0,2775.0,2845.0,3071.0,2993.0,0.782593,0.158386,-0.60199,-0.001892,-2.0,-1.0,0.0,7401.0,2024.0,1812.0,-312.0,-25.0,-31.0,-51.0,44.0,-307.0,0.941626,0.250182,0.224977,14708.0,4040.0,3488.0,-27.0,-19.0,21.0
2847.0,2769.0,2851.0,3071.0,2989.0,0.782532,0.158203,-0.602112,-0.001953,-2.0,-2.0,0.0,7392.0,2020.0,1796.0,-322.0,-27.0,-45.0,-41.0,47.0,-320.0,0.941725,0.24995,0.224793,14728.0,4042.0,3482.0,-33.0,-24.0,18.0
2852.0,2773.0,2841.0,3071.0,2991.0,0.78241,0.157898,-0.602356,-0.002075,-1.0,-1.0,0.0,7395.0,1982.0,1760.0,-321.0,-62.0,-78.0,-2.0,22.0,-335.0,0.941923,0.249582,0.224405,14832.0,3816.0,3476.0,-22.0,-21.0,6.0
2847.0,2775.0,2835.0,3071.0,2987.0,0.78241,0.157837,-0.602417,-0.002136,-1.0,-1.0,0.0,7405.0,1952.0,1754.0,-311.0,-92.0,-83.0,10.0,-6.0,-334.0,0.941999,0.24956,0.224351,14852.0,3718.0,3506.0,-7.0,-6.0,4.0
2819.0,2775.0,2843.0,3071.0,2991.0,0.78241,0.157898,-0.602417,-0.001953,0.0,0.0,0.0,7396.0,1963.0,1740.0,-321.0,-80.0,-97.0,18.0,9.0,-344.0,0.942057,0.249435,0.224331,14716.0,4042.0,3532.0,15.0,10.0,8.0
2847.0,2771.0,2837.0,3071.0,2993.0,0.78241,0.157898,-0.602417,-0.001892,-1.0,0.0,0.0,7381.0,1989.0,1743.0,-336.0,-53.0,-94.0,6.0,37.0,-350.0,0.942076,0.249361,0.22433,14688.0,4108.0,3506.0,-1.0,8.0,13.0
2845.0,2771.0,2838.0,3071.0,2991.0,0.782471,0.157776,-0.602356,-0.001892,-1.0,0.0,0.0,7373.0,1998.0,1745.0,-344.0,-43.0,-94.0,2.0,48.0,-355.0,0.942055,0.249189,0.224538,14768.0,3988.0,3512.0,-10.0,7.0,19.0
2847.0,2774.0,2835.0,3071.0,2993.0,0.782532,0.157654,-0.602356,-0.001831,-1.0,0.0,0.0,7381.0,1996.0,1755.0,-337.0,-43.0,-85.0,-4.0,44.0,-347.0,0.942148,0.248944,0.224672,14830.0,3982.0,3574.0,-16.0,12.0,17.0
2847.0,2778.0,2839.0,3071.0,2991.0,0.782654,0.157471,-0.602173,-0.001892,-1.0,0.0,0.0,7367.0,2002.0,1770.0,-349.0,-35.0,-74.0,-19.0,52.0,-354.0,0.94199,0.248769,0.225141,14656.0,3994.0,3602.0,-18.0,18.0,8.0
2847.0,2771.0,2837.0,3071.0,2991.0,0.782715,0.15741,-0.602112,-0.001892,-1.0,0.0,0.0,7365.0,1992.0,1773.0,-351.0,-45.0,-72.0,-20.0,42.0,-358.0,0.941968,0.248692,0.22533,14720.0,3888.0,3562.0,-13.0,4.0,7.0
2851.0,2777.0,2839.0,3071.0,2991.0,0.782715,0.15741,-0.602173,-0.001831,1.0,-1.0,0.0,7388.0,1954.0,1778.0,-329.0,-82.0,-67.0,-11.0,1.0,-345.0,0.942083,0.248619,0.225256,14822.0,3852.0,3602.0,26.0,-4.0,0.0
2847.0,2773.0,2839.0,3071.0,2987.0,0.782654,0.157593,-0.602173,-0.001709,1.0,-1.0,-1.0,7397.0,1971.0,1788.0,-320.0,-66.0,-56.0,-22.0,12.0,-330.0,0.942047,0.248739,0.225102,14864.0,4102.0,3620.0,39.0,-5.0,-5.0
2847.0,2773.0,2842.0,3071.0,2987.0,0.782654,0.157898,-0.602051,-0.001709,0.0,0.0,-1.0,7426.0,2031.0,1817.0,-289.0,-10.0,-27.0,-52.0,52.0,-280.0,0.941855,0.249217,0.225153,14940.0,4186.0,3662.0,9.0,6.0,-9.0
2847.0,2769.0,2839.0,3071.0,2987.0,0.782715,0.157959,-0.60199,-0.00177,-1.0,0.0,-1.0,7428.0,2032.0,1819.0,-287.0,-11.0,-26.0,-52.0,51.0,-278.0,0.941813,0.249405,0.225303,14832.0,4004.0,3678.0,-9.0,16.0,-4.0
2849.0,2823.0,2838.0,3071.0,2991.0,0.782837,0.157715,-0.601868,-0.00177,-1.0,0.0,0.0,7404.0,2005.0,1807.0,-310.0,-35.0,-42.0,-39.0,36.0,-310.0,0.94177,0.249061,0.225718,14758.0,3962.0,3602.0,-19.0,12.0,16.0
2846.0,2773.0,2841.0,3087.0,2991.0,0.782898,0.157593,-0.601807,-0.00177,-1.0,0.0,0.0,7381.0,2011.0,1800.0,-333.0,-27.0,-50.0,-39.0,50.0,-331.0,0.941748,0.248889,0.225926,14624.0,4084.0,3540.0,-17.0,8.0,20.0
2852.0,2775.0,2839.0,3071.0,2990.0,0.782959,0.157349,-0.601868,-0.00177,-1.0,-1.0,1.0,7344.0,2005.0,1799.0,-372.0,-30.0,-52.0,-47.0,55.0,-369.0,0.941918,0.248526,0.226025,14610.0,4000.0,3564.0,-22.0,-12.0,23.0
2847.0,2769.0,2837.0,3071.0,2991.0,0.782898,0.157227,-0.601929,-0.00177,-1.0,-1.0,1.0,7342.0,1995.0,1797.0,-374.0,-39.0,-53.0,-45.0,47.0,-373.0,0.941941,0.248316,0.225894,14688.0,3934.0,3588.0,-20.0,-21.0,23.0
2847.0,2775.0,2839.0,3071.0,2991.0,0.782776,0.156982,-0.602173,-0.001709,0.0,-1.0,0.0,7366.0,1942.0,1768.0,-352.0,-88.0,-79.0,-5.0,3.0,-371.0,0.942196,0.247822,0.225485,14836.0,3748.0,3418.0,5.0,-19.0,13.0
2847.0,2775.0,2845.0,3071.0,2991.0,0.782715,0.157043,-0.602234,-0.001648,0.0,-1.0,0.0,7375.0,1945.0,1762.0,-343.0,-85.0,-83.0,0.0,5.0,-362.0,0.942237,0.247825,0.225297,14788.0,3930.0,3516.0,15.0,-12.0,1.0
2849.0,2773.0,2834.0,3071.0,2991.0,0.782654,0.157227,-0.602295,-0.001648,0.0,0.0,-1.0,7382.0,1941.0,1737.0,-336.0,-91.0,-106.0,24.0,3.0,-363.0,0.942259,0.248093,0.22507,14790.0,3884.0,3420.0,13.0,2.0,-12.0
2847.0,2775.0,2839.0,3088.0,2992.0,0.782654,0.157288,-0.602295,-0.001648,0.0,0.0,-1.0,7373.0,1954.0,1729.0,-345.0,-79.0,-114.0,27.0,19.0,-370.0,0.942258,0.248189,0.225051,14684.0,4026.0,3410.0,11.0,3.0,-3.0
2847.0,2771.0,2841.0,3071.0,2991.0,0.782593,0.157288,-0.602295,-0.001648,-1.0,0.0,0.0,7381.0,1995.0,1736.0,-337.0,-38.0,-106.0,14.0,54.0,-350.0,0.942185,0.248169,0.224956,14860.0,4036.0,3552.0,-17.0,2.0,14.0
2851.0,2778.0,2841.0,3071.0,2989.0,0.782654,0.157166,-0.602234,-0.001648,-1.0,0.0,0.0,7402.0,1986.0,1742.0,-316.0,-45.0,-102.0,17.0,42.0,-331.0,0.942163,0.247997,0.225163,14896.0,3912.0,3454.0,-19.0,19.0,15.0
2849.0,2773.0,2839.0,3071.0,2995.0,0.782959,0.157043,-0.601929,-0.001587,-1.0,2.0,-1.0,7423.0,1974.0,1760.0,-294.0,-56.0,-91.0,15.0,25.0,-311.0,0.942073,0.247828,0.226046,14856.0,3874.0,3526.0,-1.0,52.0,-2.0
2847.0,2771.0,2839.0,3071.0,2991.0,0.783142,0.157104,-0.601685,-0.001526,0.0,2.0,-1.0,7419.0,1977.0,1767.0,-297.0,-53.0,-89.0,11.0,28.0,-313.0,0.94193,0.247906,0.226608,14848.0,3972.0,3616.0,5.0,58.0,-6.0
2847.0,2770.0,2843.0,3071.0,2991.0,0.783508,0.157227,-0.601135,-0.001465,0.0,2.0,-1.0,7415.0,1989.0,1787.0,-298.0,-43.0,-79.0,0.0,35.0,-309.0,0.941528,0.248138,0.227804,14834.0,4054.0,3636.0,6.0,60.0,-7.0
2845.0,2775.0,2835.0,3071.0,2992.0,0.783691,0.157288,-0.600891,-0.001526,-1.0,2.0,-1.0,7405.0,2007.0,1798.0,-306.0,-27.0,-72.0,-12.0,50.0,-311.0,0.941346,0.248364,0.228365,14716.0,4104.0,3660.0,-2.0,60.0,-9.0
2849.0,2771.0,2843.0,3071.0,2993.0,0.784058,0.157166,-0.600464,-0.001831,-3.0,0.0,-1.0,7326.0,2072.0,1826.0,-382.0,35.0,-53.0,-63.0,119.0,-362.0,0.941021,0.248653,0.229492,14366.0,4284.0,3724.0,-61.0,15.0,-9.0
2847.0,2773.0,2843.0,3088.0,2991.0,0.784058,0.156921,-0.600464,-0.002258,-5.0,-2.0,-1.0,7292.0,2089.0,1836.0,-415.0,50.0,-44.0,-83.0,137.0,-388.0,0.940888,0.248783,0.22957,14406.0,4218.0,3722.0,-94.0,-30.0,-7.0
2847.0,2771.0,2843.0,3071.0,2975.0,0.783752,0.156067,-0.601135,-0.003418,-6.0,-6.0,-1.0,7273.0,2080.0,1853.0,-437.0,42.0,-19.0,-110.0,128.0,-405.0,0.941216,0.248745,0.228559,14722.0,3906.0,3750.0,-137.0,-127.0,-17.0
2849.0,2775.0,2843.0,3071.0,2995.0,0.783447,0.155579,-0.601624,-0.003906,-5.0,-6.0,-1.0,7331.0,1977.0,1845.0,-381.0,-58.0,-19.0,-76.0,23.0,-377.0,0.941465,0.248475,0.227649,15066.0,3296.0,3646.0,-100.0,-136.0,-10.0
2847.0,2774.0,2843.0,3071.0,2991.0,0.782837,0.155334,-0.602539,-0.004028,1.0,-4.0,-1.0,7488.0,1891.0,1852.0,-229.0,-141.0,3.0,-40.0,-90.0,-250.0,0.942128,0.248058,0.225668,15390.0,3820.0,3700.0,31.0,-72.0,-11.0
2849.0,2775.0,2835.0,3071.0,2991.0,0.782654,0.155518,-0.602661,-0.003967,1.0,-2.0,-2.0,7522.0,1916.0,1854.0,-195.0,-117.0,9.0,-40.0,-75.0,-210.0,0.942116,0.248215,0.225177,15168.0,3966.0,3710.0,40.0,-25.0,-23.0
2847.0,2770.0,2839.0,3071.0,2987.0,0.782654,0.155884,-0.602539,-0.004028,0.0,0.0,-1.0,7474.0,1942.0,1834.0,-242.0,-96.0,-10.0,-39.0,-41.0,-254.0,0.941903,0.248861,0.22521,14704.0,3980.0,3588.0,12.0,8.0,-19.0
2847.0,2773.0,2847.0,3071.0,2989.0,0.782715,0.155884,-0.602539,-0.004089,-1.0,-1.0,-1.0,7423.0,1946.0,1827.0,-293.0,-93.0,-18.0,-46.0,-27.0,-303.0,0.941958,0.248953,0.225306,14504.0,3880.0,3600.0,-18.0,0.0,-2.0
2847.0,2774.0,2839.0,3071.0,2991.0,0.782654,0.155396,-0.602661,-0.004272,-3.0,-2.0,1.0,7350.0,1949.0,1801.0,-367.0,-85.0,-43.0,-44.0,0.0,-376.0,0.942022,0.248391,0.225217,14604.0,3960.0,3572.0,-56.0,-29.0,29.0
2847.0,2769.0,2837.0,3071.0,2991.0,0.782654,0.155029,-0.602844,-0.004395,-3.0,-2.0,1.0,7350.0,1951.0,1795.0,-369.0,-80.0,-49.0,-40.0,6.0,-378.0,0.942274,0.247967,0.225111,14722.0,3890.0,3560.0,-59.0,-36.0,27.0
2847.0,2769.0,2838.0,3071.0,2987.0,0.782471,0.154602,-0.603149,-0.004578,-2.0,-2.0,0.0,7396.0,1926.0,1773.0,-324.0,-101.0,-66.0,-7.0,-17.0,-345.0,0.942478,0.247465,0.22459,14966.0,3842.0,3520.0,-23.0,-26.0,0.0
2849.0,2769.0,2834.0,3069.0,2991.0,0.78241,0.154602,-0.60321,-0.004639,-1.0,-1.0,-1.0,7431.0,1944.0,1769.0,-289.0,-83.0,-69.0,1.0,-6.0,-308.0,0.942481,0.24752,0.224422,15056.0,4018.0,3502.0,-5.0,-11.0,-12.0
2847.0,2771.0,2839.0,3071.0,2983.0,0.782471,0.154846,-0.603088,-0.004761,0.0,1.0,-2.0,7468.0,1973.0,1742.0,-251.0,-59.0,-97.0,33.0,15.0,-272.0,0.942324,0.248068,0.22459,14970.0,4024.0,3366.0,16.0,29.0,-24.0
2847.0,2774.0,2838.0,3071.0,2990.0,0.782532,0.155029,-0.602966,-0.004761,1.0,1.0,-1.0,7455.0,1993.0,1735.0,-263.0,-41.0,-106.0,35.0,37.0,-281.0,0.942204,0.248372,0.224776,14782.0,4132.0,3468.0,27.0,40.0,-20.0
2847.0,2771.0,2839.0,3071.0,2961.0,0.782654,0.155396,-0.602661,-0.0047,0.0,1.0,0.0,7413.0,2051.0,1713.0,-302.0,11.0,-132.0,40.0,100.0,-311.0,0.941889,0.248906,0.225221,14740.0,4304.0,3380.0,18.0,23.0,6.0
2850.0,2775.0,2838.0,3071.0,2991.0,0.782715,0.155457,-0.602661,-0.004639,0.0,0.0,0.0,7408.0,2081.0,1719.0,-308.0,41.0,-126.0,27.0,128.0,-308.0,0.941981,0.248947,0.225297,14814.0,4312.0,3492.0,5.0,10.0,19.0
2847.0,2775.0,2842.0,3071.0,2943.0,0.782715,0.155273,-0.602661,-0.004456,-1.0,0.0,1.0,7437.0,2082.0,1729.0,-280.0,46.0,-117.0,25.0,125.0,-278.0,0.94204,0.24844,0.225352,14976.0,4092.0,3524.0,-3.0,6.0,43.0
2843.0,2771.0,2838.0,3071.0,2991.0,0.782715,0.155151,-0.602661,-0.004211,0.0,0.0,2.0,7465.0,2072.0,1734.0,-252.0,40.0,-112.0,29.0,113.0,-252.0,0.942117,0.247955,0.225388,15116.0,4110.0,3486.0,8.0,22.0,51.0
2847.0,2774.0,2839.0,3071.0,2987.0,0.782959,0.155029,-0.602356,-0.003784,-1.0,2.0,2.0,7505.0,2146.0,1750.0,-212.0,119.0,-102.0,16.0,178.0,-193.0,0.942067,0.247322,0.226172,15166.0,4474.0,3594.0,-8.0,59.0,55.0
2847.0,2771.0,2843.0,3071.0,2992.0,0.783203,0.154846,-0.602112,-0.003601,-1.0,3.0,2.0,7522.0,2149.0,1751.0,-195.0,126.0,-107.0,24.0,182.0,-176.0,0.942037,0.246889,0.226904,15146.0,4286.0,3496.0,-19.0,81.0,60.0
2845.0,2775.0,2839.0,3071.0,2991.0,0.783813,0.154602,-0.601379,-0.002747,1.0,5.0,4.0,7597.0,2259.0,1756.0,-118.0,246.0,-118.0,34.0,284.0,-77.0,0.941889,0.245662,0.228812,15398.0,5238.0,3506.0,31.0,119.0,104.0
2847.0,2768.0,2845.0,3071.0,2987.0,0.78418,0.154602,-0.600952,-0.002197,1.0,5.0,6.0,7661.0,2451.0,1776.0,-54.0,443.0,-107.0,5.0,457.0,33.0,0.94183,0.245112,0.229897,15764.0,6298.0,3754.0,31.0,129.0,140.0
2847.0,2771.0,2839.0,3071.0,2987.0,0.785217,0.154175,-0.59967,-0.001648,-6.0,8.0,9.0,7973.0,3265.0,1940.0,262.0,1265.0,29.0,-184.0,1148.0,562.0,0.941235,0.244098,0.233194,17074.0,9050.0,4366.0,-131.0,190.0,220.0
2851.0,2774.0,2835.0,3089.0,2991.0,0.786133,0.153137,-0.598755,-0.001648,-11.0,10.0,13.0,8206.0,3667.0,2027.0,498.0,1678.0,93.0,-250.0,1484.0,897.0,0.940897,0.242746,0.236049,17894.0,9800.0,4616.0,-251.0,246.0,306.0
2842.0,2771.0,2835.0,3089.0,2993.0,0.78894,0.149109,-0.59613,-0.001465,-21.0,17.0,23.0,8752.0,4436.0,2252.0,1049.0,2494.0,246.0,-365.0,2136.0,1637.0,0.940186,0.237023,0.244824,19000.0,10736.0,5132.0,-459.0,411.0,538.0
2845.0,2770.0,2845.0,3071.0,2991.0,0.790771,0.145935,-0.594482,-0.000732,-23.0,21.0,31.0,8936.0,4613.0,2334.0,1235.0,2715.0,280.0,-369.0,2319.0,1860.0,0.939986,0.231673,0.250614,18868.0,10028.0,5162.0,-509.0,485.0,715.0
2843.0,2768.0,2839.0,3071.0,2991.0,0.794922,0.137146,-0.591003,0.003967,-22.0,24.0,52.0,9043.0,4655.0,2460.0,1336.0,2907.0,298.0,-366.0,2523.0,1955.0,0.940691,0.213351,0.263822,17806.0,8848.0,5058.0,-497.0,557.0,1206.0
2847.0,2775.0,2843.0,3089.0,2993.0,0.796875,0.131531,-0.5896,0.008179,-21.0,22.0,65.0,8904.0,4546.0,2469.0,1188.0,2907.0,255.0,-365.0,2581.0,1769.0,0.941826,0.199983,0.270149,16850.0,8376.0,4958.0,-471.0,521.0,1489.0
2847.0,2775.0,2850.0,3071.0,2991.0,0.799866,0.117737,-0.588196,0.02002,-21.0,15.0,87.0,8408.0,4108.0,2419.0,661.0,2757.0,122.0,-381.0,2582.0,1113.0,0.945669,0.164796,0.28035,15110.0,6760.0,4566.0,-462.0,361.0,1994.0
2847.0,2771.0,2799.0,3071.0,2991.0,0.800781,0.10968,-0.588135,0.027283,-22.0,12.0,95.0,8150.0,3779.0,2352.0,384.0,2602.0,24.0,-354.0,2497.0,744.0,0.947919,0.143568,0.284063,14838.0,5332.0,4306.0,-483.0,282.0,2184.0
2842.0,2768.0,2839.0,3039.0,2991.0,0.801819,0.091858,-0.588745,0.044434,-17.0,10.0,107.0,7693.0,2797.0,2139.0,-108.0,2018.0,-235.0,-174.0,2026.0,20.0,0.952297,0.094987,0.289829,14196.0,2526.0,3638.0,-389.0,246.0,2466.0
2842.0,2779.0,2839.0,3071.0,2991.0,0.802063,0.082642,-0.588989,0.054138,-15.0,12.0,110.0,7483.0,2246.0,2017.0,-330.0,1682.0,-379.0,-54.0,1727.0,-309.0,0.953761,0.068794,0.292498,13626.0,996.0,3236.0,-325.0,289.0,2532.0
2847.0,2775.0,2839.0,3071.0,2991.0,0.802368,0.06488,-0.58844,0.075623,2.0,18.0,109.0,7031.0,826.0,1733.0,-785.0,702.0,-716.0,297.0,790.0,-952.0,0.954104,0.015117,0.299042,12804.0,-2598.0,2676.0,64.0,417.0,2499.0
2843.0,2769.0,2837.0,3071.0,2989.0,0.80249,0.057007,-0.587524,0.087036,6.0,21.0,105.0,6813.0,157.0,1606.0,-993.0,245.0,-877.0,475.0,337.0,-1214.0,0.952888,-0.010777,0.303131,12312.0,-3720.0,2620.0,143.0,486.0,2425.0
2843.0,2769.0,2839.0,3071.0,2987.0,0.803345,0.042908,-0.583801,0.109192,12.0,28.0,92.0,6267.0,-1253.0,1632.0,-1493.0,-773.0,-945.0,612.0,-753.0,-1666.0,0.947358,-0.058553,0.314621,10426.0,-7184.0,3844.0,289.0,648.0,2110.0
2845.0,2773.0,2845.0,3071.0,2994.0,0.804016,0.036621,-0.581299,0.119568,15.0,27.0,80.0,5795.0,-2171.0,1811.0,-1934.0,-1514.0,-822.0,545.0,-1593.0,-1967.0,0.943505,-0.080121,0.321489,8430.0,-10310.0,4940.0,350.0,634.0,1837.0
2839.0,2774.0,2841.0,3071.0,2987.0,0.805847,0.02594,-0.575684,0.136047,11.0,23.0,38.0,4439.0,-4516.0,2105.0,-3219.0,-3575.0,-645.0,518.0,-3919.0,-2815.0,0.934884,-0.114833,0.335814,4788.0,-15688.0,5294.0,272.0,536.0,885.0
2843.0,2768.0,2839.0,3071.0,2989.0,0.806702,0.022095,-0.573425,0.141052,8.0,15.0,17.0,3821.0,-5299.0,2287.0,-3809.0,-4265.0,-509.0,394.0,-4760.0,-3183.0,0.931399,-0.126118,0.341359,4180.0,-14518.0,5794.0,197.0,363.0,390.0
2847.0,2771.0,2835.0,3071.0,2990.0,0.8078,0.017822,-0.571472,0.143311,-4.0,-4.0,-21.0,3224.0,-5990.0,2508.0,-4381.0,-4884.0,-327.0,191.0,-5542.0,-3521.0,0.928379,-0.135002,0.346181,5836.0,-13508.0,5146.0,-81.0,-72.0,-462.0
2843.0,2771.0,2835.0,3071.0,2991.0,0.806885,0.018372,-0.573792,0.139038,-1.0,-20.0,-45.0,3533.0,-5891.0,2404.0,-4094.0,-4826.0,-388.0,302.0,-5394.0,-3317.0,0.931076,-0.12991,0.34082,8778.0,-10404.0,4518.0,-16.0,-458.0,-1012.0
2843.0,2774.0,2839.0,3071.0,2991.0,0.805969,0.020996,-0.575867,0.135254,3.0,-25.0,-54.0,3878.0,-5520.0,2376.0,-3772.0,-4521.0,-375.0,308.0,-5011.0,-3097.0,0.933941,-0.121932,0.335817,9910.0,-8542.0,4598.0,86.0,-565.0,-1230.0
2846.0,2771.0,2839.0,3071.0,2991.0,0.804199,0.030518,-0.580322,0.124695,9.0,-27.0,-75.0,4694.0,-4278.0,2434.0,-3014.0,-3494.0,-224.0,141.0,-3833.0,-2574.0,0.941,-0.095642,0.32458,12170.0,-4440.0,5186.0,207.0,-615.0,-1708.0
2843.0,2775.0,2843.0,3071.0,3003.0,-1.21228,-0.008911,0.459106,-0.9422,-16339.0,31307.0,12309.0,-12669.0,-1748.0,-14717.0,-21925.0,5162.0,-32301.0,15440.0,-17172.0,32610.0,1.129923,-0.843534,2.146506,14684.0,-1832.0,5584.0,240.0,-408.0,-2295.0
2843.0,2770.0,2837.0,3071.0,2991.0,0.80426,0.053833,-0.583496,0.098999,9.0,-11.0,-110.0,6266.0,-2187.0,2699.0,-1510.0,-1949.0,132.0,-141.0,-2071.0,-1335.0,0.949224,-0.02894,0.31327,15736.0,366.0,6214.0,226.0,-243.0,-2508.0
2843.0,2770.0,2843.0,3071.0,2991.0,0.806213,0.071838,-0.582031,0.077698,6.0,-2.0,-109.0,7056.0,-574.0,2798.0,-723.0,-781.0,241.0,-284.0,-843.0,-631.0,0.949646,0.025389,0.312096,16004.0,3920.0,5626.0,140.0,-39.0,-2486.0
2847.0,2771.0,2842.0,3071.0,2991.0,0.807739,0.08728,-0.5802,0.057678,-6.0,-2.0,-84.0,7679.0,1471.0,2840.0,-81.0,864.0,288.0,-460.0,785.0,76.0,0.947369,0.07407,0.311519,17480.0,9652.0,5910.0,-125.0,-41.0,-1914.0
2843.0,2775.0,2839.0,3071.0,2988.0,0.80835,0.09259,-0.579346,0.048462,-18.0,-1.0,-67.0,8094.0,2552.0,2893.0,347.0,1785.0,340.0,-534.0,1665.0,601.0,0.945602,0.093538,0.311563,18822.0,11440.0,6106.0,-399.0,-12.0,-1528.0
2843.0,2775.0,2843.0,3071.0,2992.0,0.810059,0.097351,-0.577271,0.033081,-30.0,8.0,-32.0,9022.0,4364.0,2927.0,1307.0,3384.0,350.0,-453.0,3167.0,1745.0,0.941687,0.119527,0.314571,20830.0,14054.0,5892.0,-683.0,204.0,-727.0
2842.0,2771.0,2837.0,3071.0,2991.0,0.811218,0.097961,-0.575806,0.027527,-31.0,14.0,-16.0,9470.0,5347.0,2971.0,1772.0,4304.0,368.0,-425.0,4023.0,2329.0,0.939601,0.127236,0.317684,21576.0,16788.0,6272.0,-702.0,323.0,-352.0
2843.0,2768.0,2834.0,3071.0,2991.0,0.813965,0.096863,-0.572388,0.020325,-31.0,17.0,17.0,10068.0,7088.0,2923.0,2402.0,5986.0,252.0,-269.0,5636.0,3134.0,0.935744,0.134419,0.325942,21158.0,18194.0,5140.0,-697.0,397.0,391.0
2842.0,2775.0,2839.0,3071.0,2987.0,0.814697,0.094788,-0.571655,0.019897,-25.0,11.0,38.0,10076.0,7364.0,2677.0,2414.0,6285.0,-12.0,-39.0,5985.0,3081.0,0.935224,0.131697,0.328353,19892.0,15520.0,3684.0,-553.0,255.0,884.0
2843.0,2775.0,2845.0,3071.0,2991.0,0.813171,0.087585,-0.574585,0.029663,0.0,-10.0,89.0,9747.0,6760.0,2029.0,2049.0,5872.0,-627.0,400.0,5774.0,2358.0,0.939668,0.108356,0.324309,18406.0,10986.0,2498.0,12.0,-223.0,2042.0
2841.0,2770.0,2839.0,3071.0,2992.0,0.811218,0.082581,-0.577576,0.039001,5.0,-16.0,108.0,9575.0,6220.0,1887.0,1845.0,5491.0,-727.0,413.0,5470.0,1997.0,0.943521,0.088929,0.319183,18120.0,8908.0,3172.0,135.0,-346.0,2494.0
2845.0,2773.0,2839.0,3071.0,2989.0,0.807434,0.068237,-0.582703,0.062256,0.0,-7.0,130.0,9191.0,4764.0,1986.0,1412.0,4455.0,-566.0,167.0,4512.0,1331.0,0.949484,0.037641,0.311627,16942.0,4700.0,4660.0,4.0,-155.0,2998.0
2843.0,2775.0,2843.0,3071.0,2993.0,0.806335,0.058838,-0.58374,0.074463,-9.0,3.0,133.0,8830.0,3819.0,2066.0,1046.0,3753.0,-485.0,65.0,3827.0,872.0,0.950143,0.007952,0.311507,15204.0,1566.0,4392.0,-193.0,77.0,3061.0
2846.0,2771.0,2839.0,3071.0,2992.0,0.80603,0.038574,-0.58197,0.100525,0.0,24.0,127.0,7777.0,798.0,2070.0,27.0,1247.0,-548.0,259.0,1319.0,-217.0,0.945927,-0.054821,0.319613,11374.0,-7896.0,3978.0,20.0,572.0,2920.0
2846.0,2771.0,2843.0,3071.0,2992.0,0.806274,0.029236,-0.579651,0.114441,16.0,27.0,117.0,6889.0,-879.0,2202.0,-823.0,-178.0,-471.0,227.0,-212.0,-913.0,0.941407,-0.085527,0.326325,8170.0,-12140.0,5580.0,375.0,622.0,2688.0
2843.0,2768.0,2835.0,3071.0,2991.0,0.807068,0.015503,-0.573242,0.140625,29.0,22.0,70.0,4465.0,-4539.0,2426.0,-3150.0,-3423.0,-378.0,230.0,-3874.0,-2591.0,0.929651,-0.136201,0.342287,1590.0,-18750.0,5878.0,687.0,515.0,1607.0
2846.0,2773.0,2843.0,3071.0,2991.0,0.807434,0.010986,-0.570496,0.149841,25.0,13.0,40.0,3413.0,-5668.0,2643.0,-4161.0,-4412.0,-214.0,53.0,-5127.0,-3245.0,0.924568,-0.153226,0.348816,974.0,-17114.0,6708.0,588.0,313.0,931.0
2847.0,2771.0,2842.0,3071.0,2991.0,0.8078,0.006042,-0.568298,0.156311,-2.0,-8.0,-16.0,2449.0,-6539.0,2982.0,-5087.0,-5163.0,82.0,-288.0,-6175.0,-3784.0,0.920032,-0.1679,0.353975,4170.0,-14912.0,6436.0,-44.0,-170.0,-344.0
2843.0,2771.0,2839.0,3071.0,2992.0,0.807556,0.004883,-0.569092,0.154724,-10.0,-15.0,-34.0,2652.0,-6642.0,3072.0,-4890.0,-5263.0,186.0,-314.0,-6239.0,-3551.0,0.920658,-0.168218,0.352197,7124.0,-13388.0,6776.0,-209.0,-333.0,-771.0
2843.0,2772.0,2847.0,3071.0,2991.0,0.807495,0.005737,-0.571411,0.146362,-14.0,-13.0,-54.0,3854.0,-5870.0,3286.0,-3719.0,-4575.0,443.0,-427.0,-5311.0,-2561.0,0.924503,-0.158,0.346927,12034.0,-7740.0,7216.0,-319.0,-287.0,-1222.0
2843.0,2771.0,2839.0,3090.0,2993.0,0.808838,0.009644,-0.572449,0.133972,-13.0,-6.0,-62.0,5204.0,-4331.0,3526.0,-2403.0,-3202.0,704.0,-662.0,-3699.0,-1547.0,0.92862,-0.137784,0.344377,13718.0,-3968.0,7478.0,-283.0,-115.0,-1400.0
2839.0,2770.0,2835.0,3071.0,2990.0,0.343018,-0.223755,0.215942,-1.21228,-7362.0,21464.0,6591.0,4966.0,-3132.0,-21919.0,1735.0,2414.0,31407.0,21125.0,-16505.0,-19672.0,0.394363,-0.677069,1.490587,12518.0,-2454.0,6052.0,-24.0,-168.0,-1688.0
2843.0,2775.0,2843.0,3071.0,2991.0,0.811035,0.023254,-0.573608,0.112427,0.0,-16.0,-81.0,5873.0,-2476.0,3234.0,-1791.0,-1728.0,441.0,-613.0,-2034.0,-1367.0,0.935662,-0.091258,0.34085,11978.0,-1632.0,5208.0,9.0,-360.0,-1851.0
2829.0,2778.0,2842.0,3071.0,2992.0,0.809265,0.036743,-0.578491,0.095215,5.0,-37.0,-95.0,5895.0,-1840.0,2695.0,-1832.0,-1424.0,8.0,-300.0,-1600.0,-1653.0,0.943303,-0.050692,0.327974,11870.0,-2506.0,3586.0,130.0,-837.0,-2154.0
2839.0,2774.0,2839.0,3071.0,2991.0,0.804382,0.054382,-0.586426,0.077942,26.0,-50.0,-106.0,6054.0,-1797.0,2092.0,-1743.0,-1764.0,-416.0,199.0,-1765.0,-1779.0,0.951898,-0.003926,0.306253,12886.0,-3596.0,2526.0,608.0,-1125.0,-2411.0
2839.0,2770.0,2838.0,3071.0,2989.0,0.80127,0.065857,-0.590576,0.070007,41.0,-51.0,-112.0,6225.0,-1643.0,1922.0,-1603.0,-1830.0,-484.0,332.0,-1760.0,-1715.0,0.955642,0.022849,0.293817,13528.0,-1922.0,3080.0,956.0,-1155.0,-2545.0
2843.0,2771.0,2835.0,3071.0,2991.0,0.795044,0.093506,-0.596924,0.053101,48.0,-46.0,-123.0,6659.0,-380.0,2027.0,-1197.0,-1078.0,-183.0,46.0,-981.0,-1289.0,0.959092,0.085289,0.269853,14714.0,3554.0,4738.0,1107.0,-1037.0,-2814.0
2843.0,2770.0,2837.0,3071.0,2983.0,0.789734,0.119446,-0.600708,0.03363,31.0,-36.0,-118.0,7076.0,504.0,2094.0,-762.0,-710.0,48.0,-115.0,-630.0,-822.0,0.956833,0.148257,0.249693,15142.0,2210.0,3888.0,731.0,-823.0,-2683.0
2839.0,2773.0,2843.0,3071.0,2991.0,0.787231,0.130676,-0.602173,0.024963,32.0,-32.0,-108.0,7153.0,581.0,1950.0,-667.0,-858.0,-21.0,6.0,-743.0,-792.0,0.954623,0.17568,0.240668,14590.0,1490.0,2888.0,751.0,-728.0,-2466.0
2847.0,2773.0,2841.0,3071.0,2983.0,0.781921,0.152832,-0.604248,0.010559,38.0,-27.0,-97.0,7086.0,1549.0,1756.0,-681.0,-304.0,-71.0,-55.0,-157.0,-730.0,0.948177,0.226245,0.223039,14014.0,8624.0,3576.0,893.0,-614.0,-2213.0
2843.0,2771.0,2837.0,3071.0,2987.0,0.779602,0.16394,-0.604431,0.002014,24.0,-25.0,-98.0,7123.0,2639.0,1851.0,-602.0,564.0,85.0,-355.0,629.0,-406.0,0.943092,0.253182,0.21557,14650.0,11784.0,4356.0,561.0,-561.0,-2236.0
2839.0,2774.0,2839.0,3071.0,2979.0,0.776855,0.180054,-0.603088,-0.01886,-14.0,-14.0,-91.0,7537.0,4022.0,1933.0,-83.0,1543.0,231.0,-530.0,1402.0,437.0,0.930233,0.3025,0.207725,16630.0,10600.0,3734.0,-311.0,-307.0,-2073.0
2842.0,2774.0,2839.0,3087.0,2991.0,0.776367,0.185242,-0.601746,-0.028992,-20.0,-6.0,-82.0,7760.0,4203.0,1827.0,193.0,1560.0,129.0,-346.0,1365.0,708.0,0.92361,0.322522,0.207174,16740.0,9078.0,2902.0,-436.0,-124.0,-1858.0
2839.0,2770.0,2838.0,3071.0,2991.0,0.776184,0.193298,-0.598511,-0.043701,-7.0,5.0,-55.0,7876.0,4187.0,1469.0,403.0,1300.0,-241.0,128.0,1136.0,775.0,0.912214,0.352381,0.208792,15440.0,8406.0,1730.0,-154.0,119.0,-1249.0
2843.0,2773.0,2842.0,3071.0,2991.0,0.776001,0.197388,-0.597046,-0.048279,3.0,6.0,-45.0,7719.0,4231.0,1248.0,284.0,1249.0,-464.0,318.0,1172.0,615.0,0.907557,0.363995,0.209083,14324.0,8836.0,1176.0,79.0,139.0,-1008.0
2843.0,2775.0,2843.0,3071.0,2991.0,0.774902,0.206604,-0.594788,-0.054871,9.0,2.0,-35.0,7342.0,5025.0,1123.0,-23.0,1867.0,-572.0,233.0,1849.0,580.0,0.899132,0.385469,0.207027,13764.0,13574.0,2546.0,215.0,57.0,-799.0
2843.0,2775.0,2839.0,3087.0,2991.0,0.774597,0.210327,-0.593567,-0.05896,-4.0,1.0,-33.0,7266.0,5525.0,1215.0,-63.0,2282.0,-480.0,73.0,2208.0,747.0,0.894749,0.395831,0.206918,14204.0,13718.0,3026.0,-71.0,44.0,-734.0
2847.0,2775.0,2843.0,3071.0,2991.0,0.775024,0.213013,-0.591064,-0.067688,-21.0,4.0,-22.0,7274.0,5665.0,1232.0,4.0,2304.0,-492.0,127.0,2195.0,845.0,0.887342,0.410196,0.210513,14674.0,10482.0,2172.0,-470.0,102.0,-483.0
2844.0,2771.0,2839.0,3071.0,2993.0,0.775452,0.213257,-0.590088,-0.070801,-16.0,5.0,-16.0,7263.0,5422.0,1142.0,13.0,2028.0,-600.0,283.0,1966.0,724.0,0.884972,0.414298,0.212656,14340.0,9286.0,1700.0,-357.0,132.0,-353.0
2843.0,2771.0,2839.0,3071.0,2991.0,0.775452,0.21521,-0.588928,-0.073792,1.0,3.0,-9.0,7074.0,5149.0,1016.0,-148.0,1702.0,-733.0,412.0,1761.0,428.0,0.881609,0.420686,0.213619,13556.0,10084.0,1922.0,41.0,70.0,-189.0
2845.0,2771.0,2841.0,3071.0,2991.0,0.775146,0.216797,-0.588745,-0.074646,4.0,0.0,-8.0,7003.0,5139.0,1042.0,-208.0,1665.0,-701.0,368.0,1741.0,373.0,0.880361,0.423994,0.212802,13620.0,10274.0,2318.0,108.0,20.0,-165.0
2839.0,2779.0,2843.0,3087.0,2991.0,0.774292,0.219421,-0.588623,-0.075989,2.0,-2.0,-4.0,7007.0,5019.0,1206.0,-187.0,1502.0,-519.0,223.0,1540.0,371.0,0.878185,0.42925,0.21068,14216.0,9382.0,2960.0,47.0,-31.0,-82.0
2846.0,2771.0,2835.0,3071.0,2989.0,0.774109,0.219971,-0.588684,-0.076477,-1.0,-1.0,-1.0,7056.0,4892.0,1291.0,-134.0,1364.0,-430.0,175.0,1374.0,379.0,0.877766,0.430604,0.210157,14444.0,8980.0,3080.0,-10.0,-19.0,-18.0
2843.0,2771.0,2839.0,3071.0,2989.0,0.774292,0.219604,-0.588501,-0.076843,-5.0,2.0,3.0,7155.0,4552.0,1411.0,-34.0,1025.0,-316.0,145.0,1005.0,344.0,0.877593,0.430521,0.210873,14534.0,7926.0,3096.0,-101.0,58.0,73.0
2841.0,2775.0,2843.0,3071.0,2991.0,0.774658,0.219055,-0.588196,-0.076843,-5.0,4.0,4.0,7179.0,4335.0,1448.0,-10.0,814.0,-289.0,157.0,801.0,279.0,0.877636,0.429784,0.212041,14462.0,7350.0,3092.0,-112.0,103.0,96.0
2843.0,2773.0,2839.0,3087.0,2992.0,0.775757,0.217651,-0.587402,-0.076172,-4.0,6.0,4.0,7188.0,3884.0,1501.0,-6.0,384.0,-261.0,191.0,410.0,102.0,0.878205,0.427176,0.215187,14358.0,6392.0,3114.0,-86.0,156.0,112.0
2839.0,2771.0,2843.0,3056.0,2997.0,0.776306,0.217102,-0.586914,-0.075623,-2.0,7.0,4.0,7160.0,3672.0,1515.0,-35.0,183.0,-260.0,209.0,241.0,-9.0,0.878414,0.425843,0.216769,14094.0,6138.0,3124.0,-37.0,165.0,103.0
2842.0,2769.0,2835.0,3071.0,2991.0,0.777222,0.216919,-0.585999,-0.074402,2.0,5.0,1.0,7028.0,3428.0,1570.0,-169.0,-48.0,-225.0,167.0,75.0,-218.0,0.878623,0.424387,0.219161,13544.0,6398.0,3360.0,67.0,132.0,41.0
2845.0,2774.0,2843.0,3071.0,2992.0,0.777405,0.217224,-0.585632,-0.073914,3.0,3.0,0.0,6954.0,3377.0,1618.0,-242.0,-98.0,-181.0,110.0,47.0,-293.0,0.878435,0.424314,0.21967,13520.0,6472.0,3546.0,90.0,81.0,9.0
2849.0,2775.0,2845.0,3088.0,2989.0,0.777466,0.217957,-0.585388,-0.073303,4.0,-1.0,0.0,6898.0,3329.0,1793.0,-296.0,-150.0,-6.0,-63.0,-23.0,-324.0,0.878285,0.424729,0.219642,13798.0,6630.0,4182.0,92.0,-10.0,8.0
2845.0,2775.0,2846.0,3071.0,2994.0,0.777405,0.21814,-0.585449,-0.072937,3.0,-2.0,1.0,6919.0,3350.0,1893.0,-277.0,-128.0,96.0,-156.0,-36.0,-276.0,0.878441,0.424567,0.219342,14000.0,6858.0,4376.0,74.0,-35.0,34.0
2843.0,2790.0,2835.0,3071.0,2990.0,0.777344,0.217896,-0.585693,-0.072449,0.0,-3.0,3.0,6973.0,3362.0,2019.0,-227.0,-108.0,224.0,-264.0,-69.0,-196.0,0.878998,0.423625,0.218997,14070.0,6564.0,4180.0,4.0,-51.0,69.0
2843.0,2775.0,2843.0,3071.0,2993.0,0.777283,0.21759,-0.585876,-0.072144,0.0,-3.0,3.0,6985.0,3306.0,1998.0,-218.0,-157.0,205.0,-236.0,-112.0,-213.0,0.879388,0.422793,0.218776,14032.0,6228.0,3814.0,9.0,-52.0,73.0
2847.0,2774.0,2839.0,3087.0,2991.0,0.776917,0.217529,-0.586487,-0.071289,4.0,-3.0,1.0,6976.0,3223.0,1937.0,-235.0,-230.0,156.0,-184.0,-159.0,-269.0,0.880288,0.421624,0.217396,13886.0,6376.0,3742.0,99.0,-60.0,44.0
2843.0,2769.0,2839.0,3071.0,2991.0,0.776611,0.217773,-0.586792,-0.070862,4.0,-4.0,1.0,6944.0,3239.0,1915.0,-269.0,-213.0,142.0,-183.0,-128.0,-295.0,0.880555,0.421413,0.216396,13664.0,6630.0,3730.0,113.0,-74.0,28.0
2843.0,2770.0,2839.0,3087.0,2995.0,0.776001,0.218201,-0.587585,-0.070557,1.0,-5.0,1.0,6908.0,3349.0,1917.0,-310.0,-104.0,161.0,-229.0,-20.0,-282.0,0.881143,0.421564,0.214288,13794.0,7036.0,3846.0,27.0,-112.0,28.0
2845.0,2772.0,2842.0,3087.0,2995.0,0.775696,0.217957,-0.588013,-0.070679,-2.0,-6.0,1.0,6908.0,3396.0,1912.0,-312.0,-54.0,163.0,-238.0,24.0,-262.0,0.881428,0.421256,0.213435,13830.0,7076.0,3756.0,-35.0,-117.0,40.0
2847.0,2775.0,2834.0,3071.0,2993.0,0.775269,0.216919,-0.588867,-0.071289,-6.0,-6.0,1.0,6896.0,3440.0,1848.0,-330.0,-3.0,108.0,-199.0,90.0,-269.0,0.882133,0.4203,0.212305,13680.0,6876.0,3416.0,-122.0,-121.0,39.0
2847.0,2775.0,2839.0,3071.0,2993.0,0.775085,0.216248,-0.589355,-0.071777,-7.0,-6.0,1.0,6873.0,3424.0,1801.0,-356.0,-15.0,65.0,-164.0,100.0,-306.0,0.882558,0.419825,0.211807,13596.0,6736.0,3346.0,-140.0,-121.0,30.0
2839.0,2769.0,2838.0,3071.0,2990.0,0.774597,0.214966,-0.590271,-0.072693,-5.0,-6.0,0.0,6827.0,3309.0,1697.0,-408.0,-122.0,-28.0,-75.0,46.0,-417.0,0.883192,0.418841,0.210655,13510.0,6286.0,3082.0,-102.0,-123.0,21.0
2847.0,2775.0,2842.0,3087.0,2991.0,0.774292,0.2146,-0.59082,-0.072937,-3.0,-6.0,0.0,6803.0,3291.0,1649.0,-435.0,-137.0,-69.0,-42.0,53.0,-456.0,0.88363,0.418511,0.209726,13464.0,6528.0,3032.0,-54.0,-124.0,17.0
2843.0,2773.0,2842.0,3088.0,2991.0,0.773499,0.214478,-0.591858,-0.073486,-1.0,-6.0,-1.0,6770.0,3337.0,1589.0,-472.0,-93.0,-110.0,-18.0,116.0,-479.0,0.88408,0.418783,0.207404,13482.0,6772.0,3028.0,-12.0,-125.0,-20.0
2843.0,2775.0,2839.0,3071.0,2991.0,0.773071,0.2146,-0.592346,-0.073792,0.0,-6.0,-2.0,6770.0,3329.0,1556.0,-473.0,-105.0,-132.0,3.0,112.0,-489.0,0.88418,0.419222,0.206157,13572.0,6570.0,2914.0,4.0,-121.0,-30.0
2843.0,2771.0,2834.0,3071.0,2995.0,0.772217,0.215088,-0.593201,-0.07428,1.0,-5.0,-3.0,6796.0,3351.0,1521.0,-447.0,-92.0,-147.0,24.0,118.0,-463.0,0.884206,0.420315,0.203686,13630.0,6844.0,3014.0,35.0,-95.0,-46.0
2841.0,2773.0,2843.0,3071.0,2992.0,0.771851,0.215393,-0.593506,-0.074524,0.0,-4.0,-3.0,6800.0,3395.0,1513.0,-442.0,-53.0,-147.0,21.0,152.0,-442.0,0.884092,0.420963,0.202664,13636.0,7078.0,2976.0,22.0,-81.0,-55.0
2839.0,2775.0,2843.0,3071.0,2991.0,0.771423,0.215698,-0.593872,-0.0755,-3.0,-3.0,-3.0,6834.0,3473.0,1511.0,-405.0,12.0,-140.0,16.0,195.0,-381.0,0.883683,0.422465,0.201585,13808.0,7028.0,2976.0,-60.0,-58.0,-52.0
2843.0,2773.0,2839.0,3071.0,2989.0,0.771301,0.215576,-0.594055,-0.075989,-4.0,-2.0,-2.0,6871.0,3440.0,1505.0,-367.0,-23.0,-144.0,36.0,151.0,-363.0,0.883628,0.422831,0.201305,13966.0,6572.0,2996.0,-81.0,-42.0,-42.0
2839.0,2775.0,2839.0,3071.0,2992.0,0.771118,0.215515,-0.594238,-0.076294,1.0,-1.0,-2.0,6923.0,3271.0,1444.0,-315.0,-194.0,-201.0,128.0,-7.0,-400.0,0.883571,0.423049,0.200878,13930.0,6052.0,2696.0,43.0,-5.0,-29.0
2811.0,2777.0,2847.0,3089.0,2991.0,0.770874,0.216064,-0.59436,-0.075989,6.0,-1.0,-2.0,6923.0,3219.0,1432.0,-314.0,-249.0,-206.0,141.0,-55.0,-424.0,0.883517,0.423446,0.200073,13792.0,6212.0,2830.0,154.0,-1.0,-32.0
2843.0,2778.0,2843.0,3087.0,2993.0,0.770142,0.218079,-0.594788,-0.074707,11.0,-3.0,-1.0,6918.0,3305.0,1492.0,-320.0,-174.0,-124.0,52.0,-5.0,-381.0,0.883557,0.424772,0.197369,13960.0,7086.0,3308.0,261.0,-50.0,-11.0
2839.0,2773.0,2834.0,3071.0,2991.0,0.769653,0.219116,-0.595093,-0.074036,10.0,-4.0,0.0,6959.0,3383.0,1542.0,-279.0,-101.0,-61.0,-5.0,29.0,-301.0,0.883585,0.425403,0.1957,14212.0,7218.0,3366.0,235.0,-71.0,9.0
2842.0,2769.0,2836.0,3071.0,2971.0,0.768921,0.220398,-0.595642,-0.072998,5.0,-3.0,1.0,7055.0,3506.0,1642.0,-185.0,17.0,59.0,-110.0,69.0,-144.0,0.883826,0.425899,0.193203,14334.0,7390.0,3520.0,123.0,-49.0,27.0
2843.0,2771.0,2838.0,3088.0,2995.0,0.768799,0.220581,-0.595764,-0.072815,1.0,-2.0,1.0,7070.0,3563.0,1662.0,-171.0,73.0,82.0,-136.0,108.0,-104.0,0.883922,0.425926,0.192763,14210.0,7458.0,3394.0,37.0,-27.0,26.0
2839.0,2774.0,2847.0,3071.0,2990.0,0.768982,0.220093,-0.595642,-0.073364,-6.0,0.0,0.0,7045.0,3610.0,1647.0,-194.0,121.0,61.0,-130.0,165.0,-108.0,0.883782,0.425892,0.193485,13984.0,7096.0,3214.0,-123.0,1.0,11.0
2842.0,2775.0,2835.0,3071.0,2991.0,0.769165,0.219482,-0.595581,-0.073792,-7.0,0.0,0.0,7012.0,3558.0,1616.0,-228.0,72.0,25.0,-98.0,143.0,-166.0,0.883808,0.425534,0.194171,13828.0,6790.0,3026.0,-152.0,1.0,13.0
2839.0,2770.0,2843.0,3071.0,2990.0,0.769531,0.21814,-0.595581,-0.074524,-6.0,-1.0,1.0,6932.0,3379.0,1539.0,-310.0,-98.0,-61.0,-14.0,43.0,-327.0,0.884123,0.424501,0.19543,13562.0,6130.0,2766.0,-120.0,-6.0,28.0
2846.0,2779.0,2841.0,3071.0,2995.0,0.769531,0.217712,-0.595703,-0.074585,-3.0,-2.0,1.0,6877.0,3316.0,1495.0,-367.0,-156.0,-106.0,20.0,23.0,-411.0,0.884348,0.423934,0.19548,13442.0,6362.0,2762.0,-61.0,-32.0,44.0
2842.0,2779.0,2835.0,3091.0,2993.0,0.769043,0.217285,-0.596436,-0.074585,-1.0,-5.0,1.0,6812.0,3371.0,1488.0,-437.0,-95.0,-101.0,-11.0,103.0,-446.0,0.884957,0.423173,0.194042,13542.0,6876.0,2974.0,-6.0,-99.0,34.0
2839.0,2770.0,2839.0,3063.0,2991.0,0.768677,0.217224,-0.596924,-0.074646,0.0,-6.0,1.0,6821.0,3381.0,1500.0,-430.0,-84.0,-80.0,-30.0,105.0,-431.0,0.885253,0.423066,0.192932,13760.0,6842.0,3136.0,9.0,-118.0,26.0
2843.0,2771.0,2835.0,3071.0,2987.0,0.767944,0.217163,-0.5979,-0.074768,-1.0,-6.0,0.0,6882.0,3456.0,1515.0,-374.0,-8.0,-47.0,-56.0,144.0,-343.0,0.885835,0.422946,0.190684,13936.0,7194.0,3048.0,-3.0,-115.0,20.0
2843.0,2775.0,2847.0,3071.0,2991.0,0.767639,0.217041,-0.598267,-0.075073,-3.0,-5.0,0.0,6907.0,3493.0,1511.0,-350.0,27.0,-44.0,-57.0,166.0,-307.0,0.885918,0.423046,0.189876,13972.0,7154.0,2966.0,-50.0,-99.0,12.0
2847.0,2775.0,2834.0,3087.0,2992.0,0.767395,0.216187,-0.598816,-0.075867,-6.0,-3.0,0.0,6960.0,3481.0,1464.0,-300.0,18.0,-87.0,-1.0,149.0,-274.0,0.886254,0.422661,0.189334,14066.0,6914.0,2822.0,-124.0,-48.0,6.0
2842.0,2752.0,2839.0,3071.0,2991.0,0.767456,0.215698,-0.598877,-0.076355,-7.0,-1.0,-1.0,6969.0,3439.0,1435.0,-291.0,-22.0,-118.0,36.0,117.0,-289.0,0.886284,0.422532,0.18964,13942.0,6530.0,2640.0,-141.0,-16.0,-3.0
2846.0,2773.0,2839.0,3089.0,2991.0,0.767517,0.214844,-0.598999,-0.076965,-3.0,0.0,-1.0,6921.0,3307.0,1342.0,-340.0,-149.0,-214.0,132.0,45.0,-404.0,0.886413,0.421997,0.190048,13686.0,6392.0,2498.0,-67.0,1.0,-4.0
2843.0,2773.0,2845.0,3071.0,2987.0,0.767517,0.214722,-0.59906,-0.077087,-1.0,-1.0,-1.0,6890.0,3283.0,1319.0,-371.0,-173.0,-237.0,149.0,40.0,-446.0,0.886473,0.421965,0.190047,13574.0,6438.0,2510.0,-15.0,-3.0,-15.0
2839.0,2775.0,2838.0,3071.0,2993.0,0.767212,0.215027,-0.599304,-0.077209,1.0,-2.0,-1.0,6860.0,3298.0,1336.0,-401.0,-163.0,-213.0,117.0,55.0,-464.0,0.886382,0.422486,0.189173,13774.0,6738.0,2802.0,28.0,-36.0,-18.0
2840.0,2786.0,2843.0,3090.0,2992.0,0.767029,0.21521,-0.599426,-0.077271,1.0,-2.0,-1.0,6879.0,3332.0,1358.0,-381.0,-131.0,-187.0,93.0,70.0,-428.0,0.886296,0.42278,0.188677,13904.0,6870.0,2858.0,24.0,-35.0,-10.0
2835.0,2775.0,2838.0,3071.0,2991.0,0.766846,0.215393,-0.599609,-0.077454,-1.0,-1.0,-1.0,6917.0,3421.0,1421.0,-343.0,-46.0,-120.0,28.0,116.0,-346.0,0.88625,0.42323,0.188126,13956.0,7082.0,3022.0,-19.0,-18.0,-10.0
2843.0,2774.0,2846.0,3089.0,2987.0,0.766846,0.215332,-0.599609,-0.077698,-2.0,-1.0,-1.0,6944.0,3442.0,1448.0,-315.0,-26.0,-93.0,7.0,117.0,-307.0,0.886154,0.423429,0.18819,14058.0,7008.0,3026.0,-39.0,-6.0,-18.0
2847.0,2787.0,2845.0,3087.0,2993.0,0.766968,0.21521,-0.599365,-0.078308,-3.0,0.0,-2.0,6964.0,3435.0,1446.0,-291.0,-38.0,-100.0,22.0,99.0,-292.0,0.885682,0.423989,0.188818,13934.0,6724.0,2776.0,-48.0,17.0,-34.0
2843.0,2771.0,2839.0,3089.0,2991.0,0.767029,0.21521,-0.599304,-0.078491,-2.0,0.0,-2.0,6963.0,3409.0,1428.0,-291.0,-66.0,-120.0,45.0,79.0,-308.0,0.885583,0.424225,0.189013,13928.0,6688.0,2764.0,-23.0,13.0,-25.0
2843.0,2771.0,2838.0,3071.0,2991.0,0.767029,0.215393,-0.599243,-0.078491,1.0,0.0,-1.0,6959.0,3389.0,1418.0,-294.0,-88.0,-130.0,56.0,63.0,-322.0,0.885461,0.424496,0.189008,13892.0,6782.0,2856.0,27.0,11.0,-4.0
2844.0,2775.0,2833.0,3087.0,2995.0,0.766968,0.215576,-0.599243,-0.078369,1.0,0.0,-1.0,6964.0,3404.0,1425.0,-289.0,-74.0,-121.0,47.0,71.0,-310.0,0.885411,0.424604,0.188816,13982.0,6932.0,2910.0,33.0,16.0,-5.0
2845.0,2781.0,2839.0,3088.0,2994.0,0.767151,0.216003,-0.598877,-0.078308,0.0,2.0,-1.0,7000.0,3434.0,1456.0,-250.0,-49.0,-95.0,29.0,73.0,-260.0,0.885028,0.425208,0.189342,14092.0,6854.0,2970.0,17.0,56.0,-18.0
2843.0,2778.0,2847.0,3089.0,2991.0,0.767334,0.216125,-0.598633,-0.078308,-1.0,3.0,-1.0,7002.0,3448.0,1461.0,-246.0,-37.0,-94.0,27.0,82.0,-251.0,0.884854,0.425436,0.189862,14022.0,7004.0,2986.0,-4.0,71.0,-9.0
2846.0,2773.0,2839.0,3088.0,2991.0,0.767944,0.215881,-0.597961,-0.078369,-3.0,3.0,0.0,6977.0,3450.0,1470.0,-269.0,-34.0,-100.0,26.0,95.0,-271.0,0.884565,0.425293,0.191718,13828.0,6868.0,2936.0,-52.0,83.0,22.0
2843.0,2779.0,2843.0,3087.0,2989.0,0.76825,0.215637,-0.597595,-0.078308,-3.0,3.0,1.0,6948.0,3429.0,1472.0,-297.0,-51.0,-106.0,26.0,91.0,-304.0,0.884432,0.424919,0.19272,13710.0,6716.0,2946.0,-50.0,79.0,32.0
2845.0,2781.0,2843.0,3089.0,2992.0,0.768677,0.215332,-0.597168,-0.078064,-1.0,2.0,1.0,6891.0,3414.0,1467.0,-354.0,-61.0,-122.0,27.0,107.0,-362.0,0.884439,0.424276,0.19398,13616.0,6876.0,2980.0,-13.0,52.0,39.0
2846.0,2770.0,2838.0,3071.0,2993.0,0.76886,0.215271,-0.597046,-0.077942,-1.0,1.0,1.0,6872.0,3412.0,1474.0,-374.0,-62.0,-118.0,17.0,113.0,-380.0,0.884532,0.424096,0.194415,13636.0,6782.0,2994.0,-9.0,36.0,28.0
2847.0,2771.0,2839.0,3071.0,2991.0,0.768921,0.21521,-0.596924,-0.07782,0.0,0.0,0.0,6860.0,3385.0,1489.0,-385.0,-87.0,-105.0,5.0,92.0,-397.0,0.884479,0.423864,0.194662,13702.0,6694.0,3048.0,11.0,6.0,14.0
2843.0,2782.0,2847.0,3071.0,2989.0,0.768921,0.215271,-0.596924,-0.077759,0.0,-1.0,0.0,6862.0,3386.0,1502.0,-383.0,-86.0,-92.0,-6.0,89.0,-393.0,0.884496,0.423885,0.194626,13728.0,6824.0,3098.0,18.0,-3.0,6.0
2847.0,2775.0,2807.0,3091.0,2992.0,0.76886,0.215515,-0.596985,-0.07782,0.0,-1.0,-1.0,6889.0,3406.0,1515.0,-356.0,-70.0,-77.0,-15.0,89.0,-359.0,0.884453,0.424316,0.194364,13910.0,6836.0,3052.0,4.0,-4.0,-15.0
2847.0,2775.0,2838.0,3071.0,2991.0,0.76886,0.215576,-0.596924,-0.077881,0.0,0.0,-1.0,6914.0,3387.0,1525.0,-330.0,-90.0,-67.0,-14.0,59.0,-343.0,0.884323,0.424474,0.19442,13970.0,6634.0,3130.0,2.0,10.0,-18.0
2843.0,2771.0,2842.0,3071.0,2995.0,0.769043,0.215759,-0.596619,-0.07782,0.0,1.0,-1.0,6936.0,3375.0,1535.0,-306.0,-104.0,-62.0,-11.0,37.0,-326.0,0.88407,0.424714,0.194977,13902.0,6794.0,3108.0,15.0,42.0,-3.0
2847.0,2771.0,2839.0,3088.0,2990.0,0.778137,0.17804,-0.600647,-0.045349,-1.0,0.0,0.0,7252.0,2626.0,1662.0,-273.0,-90.0,-99.0,32.0,15.0,-301.0,0.918624,0.331556,0.215079,14396.0,5244.0,3318.0,-3.0,22.0,7.0
2847.0,2775.0,2843.0,3071.0,2973.0,0.778198,0.177979,-0.600525,-0.045349,-1.0,1.0,0.0,7225.0,2629.0,1653.0,-299.0,-86.0,-111.0,35.0,29.0,-327.0,0.918513,0.331472,0.215343,14274.0,5296.0,3290.0,-7.0,25.0,15.0
2847.0,2778.0,2839.0,3071.0,2993.0,0.77832,0.177856,-0.600403,-0.045227,-1.0,0.0,1.0,7187.0,2656.0,1662.0,-337.0,-56.0,-105.0,15.0,66.0,-350.0,0.918524,0.331167,0.215712,14254.0,5444.0,3364.0,-12.0,13.0,27.0
2847.0,2773.0,2838.0,3071.0,2992.0,0.778381,0.177673,-0.600403,-0.045227,-2.0,-1.0,1.0,7179.0,2670.0,1678.0,-346.0,-40.0,-90.0,-3.0,80.0,-350.0,0.918613,0.330904,0.215872,14322.0,5380.0,3458.0,-26.0,0.0,31.0
2847.0,2771.0,2815.0,3071.0,2991.0,0.778442,0.177307,-0.600464,-0.045166,-1.0,-1.0,1.0,7194.0,2621.0,1703.0,-333.0,-84.0,-66.0,-16.0,30.0,-347.0,0.918837,0.330288,0.216018,14458.0,5054.0,3438.0,-19.0,-2.0,31.0
2843.0,2775.0,2843.0,3071.0,2991.0,0.778442,0.177124,-0.600464,-0.045044,-1.0,-1.0,1.0,7201.0,2608.0,1707.0,-326.0,-94.0,-63.0,-16.0,18.0,-344.0,0.918896,0.329856,0.216072,14438.0,5176.0,3456.0,-4.0,-1.0,30.0
2847.0,2775.0,2844.0,3087.0,2991.0,0.778442,0.177063,-0.600525,-0.0448,0.0,-1.0,0.0,7211.0,2621.0,1725.0,-318.0,-78.0,-44.0,-34.0,26.0,-327.0,0.919083,0.329473,0.215998,14452.0,5342.0,3488.0,11.0,-2.0,16.0
2842.0,2771.0,2842.0,3071.0,2991.0,0.778442,0.177063,-0.600525,-0.044739,0.0,-1.0,0.0,7223.0,2627.0,1731.0,-306.0,-71.0,-38.0,-37.0,28.0,-312.0,0.919105,0.3294,0.215993,14534.0,5302.0,3478.0,9.0,-8.0,14.0
2847.0,2775.0,2845.0,3088.0,2991.0,0.778381,0.177002,-0.600647,-0.044556,0.0,-1.0,0.0,7244.0,2610.0,1728.0,-286.0,-85.0,-39.0,-29.0,9.0,-299.0,0.919292,0.329075,0.215756,14500.0,5172.0,3428.0,16.0,-12.0,22.0
2847.0,2773.0,2846.0,3071.0,2993.0,0.77832,0.177002,-0.600708,-0.044373,0.0,-1.0,1.0,7238.0,2609.0,1726.0,-293.0,-84.0,-39.0,-31.0,12.0,-305.0,0.919378,0.328838,0.215572,14452.0,5220.0,3466.0,21.0,-14.0,29.0
2846.0,2773.0,2815.0,3088.0,2991.0,0.778198,0.177002,-0.600891,-0.044006,0.0,-1.0,1.0,7217.0,2625.0,1725.0,-316.0,-65.0,-37.0,-42.0,36.0,-319.0,0.919646,0.328371,0.215129,14336.0,5348.0,3456.0,19.0,-20.0,36.0
2845.0,2774.0,2839.0,3071.0,2991.0,0.778137,0.176941,-0.601013,-0.043884,0.0,-2.0,1.0,7206.0,2632.0,1738.0,-329.0,-55.0,-22.0,-61.0,45.0,-325.0,0.919812,0.328119,0.214898,14344.0,5286.0,3564.0,7.0,-24.0,40.0
2846.0,2773.0,2838.0,3071.0,2993.0,0.778076,0.176636,-0.601257,-0.043701,-1.0,-2.0,1.0,7202.0,2616.0,1727.0,-336.0,-66.0,-31.0,-52.0,39.0,-337.0,0.92021,0.327423,0.214602,14442.0,5090.0,3448.0,-13.0,-25.0,39.0
2882.0,2778.0,2839.0,3088.0,2992.0,0.778015,0.176514,-0.601379,-0.043579,-1.0,-1.0,1.0,7209.0,2586.0,1717.0,-330.0,-93.0,-39.0,-39.0,14.0,-342.0,0.92038,0.327076,0.214392,14458.0,4956.0,3384.0,-3.0,-21.0,32.0
2846.0,2775.0,2841.0,3087.0,2993.0,0.777893,0.176453,-0.601501,-0.043274,1.0,-1.0,0.0,7217.0,2545.0,1684.0,-324.0,-130.0,-69.0,-3.0,-15.0,-355.0,0.920536,0.326581,0.214051,14428.0,5090.0,3246.0,30.0,-5.0,9.0
2845.0,2771.0,2837.0,3071.0,2987.0,0.777893,0.176575,-0.601562,-0.043152,1.0,-1.0,-1.0,7221.0,2551.0,1679.0,-321.0,-124.0,-73.0,0.0,-9.0,-351.0,0.920664,0.32663,0.213924,14468.0,5128.0,3366.0,32.0,-2.0,-2.0
2845.0,2775.0,2839.0,3071.0,2991.0,0.777771,0.176758,-0.601624,-0.04303,0.0,-1.0,0.0,7221.0,2559.0,1670.0,-320.0,-117.0,-79.0,5.0,-2.0,-349.0,0.920639,0.32673,0.213585,14458.0,5178.0,3298.0,17.0,-6.0,10.0
2843.0,2774.0,2839.0,3071.0,2991.0,0.777771,0.176758,-0.601685,-0.042908,0.0,-1.0,0.0,7223.0,2568.0,1667.0,-320.0,-107.0,-82.0,6.0,7.0,-347.0,0.920777,0.326588,0.213501,14428.0,5178.0,3332.0,8.0,-6.0,18.0
2843.0,2779.0,2843.0,3071.0,2991.0,0.77771,0.176575,-0.601746,-0.042786,-1.0,-1.0,1.0,7224.0,2575.0,1656.0,-319.0,-96.0,-92.0,14.0,19.0,-344.0,0.920857,0.32614,0.213387,14400.0,5110.0,3262.0,-16.0,-5.0,23.0
2846.0,2773.0,2845.0,3071.0,2991.0,0.77771,0.176453,-0.601807,-0.042786,-1.0,-1.0,1.0,7219.0,2559.0,1653.0,-325.0,-111.0,-94.0,17.0,7.0,-355.0,0.920963,0.325955,0.213357,14404.0,5034.0,3298.0,-11.0,-4.0,23.0
2847.0,2775.0,2841.0,3087.0,2991.0,0.77771,0.176331,-0.601868,-0.042603,0.0,0.0,0.0,7230.0,2561.0,1646.0,-315.0,-105.0,-101.0,25.0,12.0,-345.0,0.921133,0.32555,0.213311,14500.0,5140.0,3318.0,1.0,3.0,14.0
2847.0,2775.0,2839.0,3071.0,2991.0,0.77771,0.176331,-0.601868,-0.042542,0.0,0.0,0.0,7236.0,2567.0,1654.0,-310.0,-99.0,-93.0,18.0,14.0,-337.0,0.921154,0.325477,0.213305,14498.0,5190.0,3328.0,1.0,12.0,8.0
2845.0,2779.0,2845.0,3089.0,2991.0,0.777832,0.176331,-0.601685,-0.042419,0.0,0.0,0.0,7221.0,2590.0,1671.0,-324.0,-75.0,-79.0,-2.0,37.0,-339.0,0.921059,0.325357,0.213705,14370.0,5360.0,3440.0,15.0,18.0,14.0
2847.0,2778.0,2839.0,3071.0,2991.0,0.777893,0.176392,-0.601624,-0.042358,0.0,0.0,0.0,7215.0,2627.0,1694.0,-330.0,-38.0,-57.0,-30.0,69.0,-328.0,0.921054,0.325395,0.213847,14392.0,5498.0,3518.0,4.0,8.0,21.0
