flex_1,flex_2,flex_3,flex_4,flex_5,Qw,Qx,Qy,Qz,GYRx,GYRy,GYRz,ACCx,ACCy,ACCz,ACCx_real,ACCy_real,ACCz_real,ACCx_world,ACCy_world,ACCz_world,GRAx,GRAy,GRAz,ACCx_raw,ACCy_raw,ACCz_raw,GYRx_raw,GYRy_raw,GYRz_raw
2857.0,2783.0,2851.0,3099.0,2999.0,1.0,0.0,0.0,0.0,0.0,0.0,0.0,0.0,0.0,0.0,0.0,0.0,0.0,0.0,0.0,0.0,0.0,0.0,0.0,0.0,0.0,0.0,0.0,0.0,0.0
2859.0,2783.0,2854.0,3103.0,3001.0,0.857117,0.252258,-0.449097,0.003601,-1.0,0.0,-1.0,6835.0,3819.0,682.0,513.0,303.0,-3162.0,2664.0,1528.0,-958.0,0.771673,0.429195,0.46934,13632.0,7644.0,1362.0,-9.0,2.0,-1.0
2857.0,2783.0,2849.0,3101.0,3001.0,0.855652,0.253357,-0.451294,0.003479,-1.0,-1.0,-1.0,6824.0,3826.0,678.0,482.0,299.0,-3125.0,2623.0,1517.0,-949.0,0.774064,0.430431,0.464296,13650.0,7660.0,1308.0,-18.0,-2.0,-1.0
2855.0,2782.0,2849.0,3093.0,2994.0,0.854919,0.253906,-0.452332,0.003479,-1.0,0.0,0.0,6830.0,3822.0,668.0,479.0,291.0,-3115.0,2618.0,1508.0,-941.0,0.775181,0.430991,0.461827,13706.0,7618.0,1266.0,-19.0,3.0,4.0
2854.0,2781.0,2855.0,3099.0,2993.0,0.853455,0.255005,-0.454468,0.003479,-1.0,0.0,0.0,6849.0,3806.0,665.0,479.0,266.0,-3077.0,2599.0,1472.0,-918.0,0.77751,0.432108,0.456828,13730.0,7544.0,1338.0,-4.0,4.0,4.0
2855.0,2783.0,2853.0,3098.0,2991.0,0.852722,0.255554,-0.455505,0.003479,0.0,0.0,0.0,6853.0,3794.0,666.0,474.0,249.0,-3056.0,2586.0,1450.0,-911.0,0.778617,0.432664,0.454354,13718.0,7514.0,1360.0,6.0,1.0,4.0
2858.0,2785.0,2847.0,3099.0,2995.0,0.851196,0.256775,-0.457703,0.003601,0.0,-1.0,0.0,6851.0,3780.0,668.0,452.0,226.0,-3011.0,2548.0,1418.0,-901.0,0.781039,0.433835,0.449123,13690.0,7552.0,1384.0,9.0,-7.0,9.0
2860.0,2775.0,2852.0,3095.0,2999.0,0.850464,0.257324,-0.458801,0.003662,0.0,-1.0,0.0,6852.0,3773.0,665.0,443.0,214.0,-2993.0,2534.0,1403.0,-897.0,0.782273,0.43433,0.446588,13714.0,7504.0,1306.0,4.0,-9.0,9.0
2855.0,2779.0,2850.0,3091.0,2995.0,0.848938,0.258423,-0.460938,0.003784,0.0,0.0,0.0,6856.0,3767.0,651.0,428.0,201.0,-2965.0,2511.0,1386.0,-885.0,0.784571,0.435281,0.441464,13720.0,7596.0,1234.0,7.0,1.0,6.0
2854.0,2783.0,2851.0,3103.0,2999.0,0.848206,0.259033,-0.461914,0.003784,0.0,0.0,0.0,6852.0,3777.0,645.0,416.0,205.0,-2951.0,2494.0,1387.0,-879.0,0.785557,0.435931,0.439004,13690.0,7634.0,1280.0,14.0,2.0,1.0
2855.0,2783.0,2827.0,3101.0,2995.0,0.846741,0.260376,-0.463867,0.003845,0.0,0.0,-1.0,6859.0,3811.0,643.0,407.0,228.0,-2912.0,2456.0,1395.0,-843.0,0.787553,0.437375,0.434016,13728.0,7770.0,1268.0,18.0,7.0,-1.0
2855.0,2779.0,2850.0,3095.0,2999.0,0.846008,0.260986,-0.464844,0.003906,0.0,0.0,-1.0,6864.0,3837.0,648.0,404.0,249.0,-2887.0,2432.0,1405.0,-818.0,0.788562,0.437962,0.431552,13770.0,7842.0,1366.0,15.0,5.0,-1.0
2857.0,2781.0,2847.0,3094.0,3019.0,0.844604,0.262207,-0.466736,0.003906,0.0,-1.0,-1.0,6864.0,3860.0,670.0,388.0,261.0,-2826.0,2375.0,1394.0,-784.0,0.790463,0.439276,0.426777,13706.0,7738.0,1420.0,3.0,-1.0,-1.0
2861.0,2783.0,2853.0,3103.0,2999.0,0.843872,0.262756,-0.467712,0.003845,-1.0,-1.0,-1.0,6868.0,3855.0,674.0,384.0,251.0,-2802.0,2358.0,1377.0,-774.0,0.7914,0.439869,0.424339,13782.0,7666.0,1330.0,-2.0,0.0,-2.0
2855.0,2789.0,2855.0,3123.0,2993.0,0.842529,0.263855,-0.469543,0.003845,0.0,0.0,-1.0,6868.0,3836.0,676.0,369.0,223.0,-2762.0,2329.0,1340.0,-768.0,0.793237,0.441,0.41978,13682.0,7640.0,1332.0,2.0,6.0,-5.0
2858.0,2778.0,2847.0,3095.0,2995.0,0.841858,0.264404,-0.470459,0.003845,0.0,0.0,-1.0,6861.0,3839.0,667.0,355.0,221.0,-2753.0,2316.0,1339.0,-769.0,0.794153,0.441564,0.417498,13694.0,7706.0,1296.0,5.0,8.0,-3.0
2863.0,2777.0,2851.0,3098.0,2995.0,0.840515,0.265503,-0.472168,0.003784,-1.0,0.0,0.0,6846.0,3853.0,666.0,327.0,226.0,-2717.0,2274.0,1336.0,-761.0,0.795738,0.442745,0.413046,13646.0,7690.0,1362.0,-8.0,16.0,3.0
2855.0,2783.0,2853.0,3103.0,3005.0,0.839905,0.265991,-0.473022,0.003784,-1.0,0.0,0.0,6836.0,3849.0,659.0,310.0,218.0,-2707.0,2260.0,1330.0,-768.0,0.796601,0.443235,0.410953,13590.0,7668.0,1308.0,-9.0,15.0,5.0
2855.0,2783.0,2855.0,3091.0,2999.0,0.838623,0.266968,-0.474731,0.003845,-1.0,0.0,0.0,6834.0,3827.0,661.0,294.0,188.0,-2670.0,2233.0,1293.0,-767.0,0.798295,0.44412,0.406662,13660.0,7564.0,1290.0,0.0,4.0,2.0
2854.0,2783.0,2849.0,3093.0,2995.0,0.837952,0.267456,-0.475647,0.003845,0.0,0.0,0.0,6841.0,3817.0,659.0,293.0,175.0,-2653.0,2224.0,1276.0,-760.0,0.799195,0.444573,0.404405,13762.0,7614.0,1336.0,5.0,4.0,3.0
2855.0,2779.0,2858.0,3095.0,2995.0,0.836609,0.268494,-0.477417,0.003967,0.0,0.0,0.0,6855.0,3810.0,660.0,293.0,160.0,-2616.0,2201.0,1248.0,-740.0,0.800953,0.44546,0.399914,13734.0,7618.0,1332.0,8.0,1.0,7.0
2854.0,2785.0,2853.0,3103.0,2999.0,0.835938,0.268982,-0.478333,0.004028,0.0,-1.0,0.0,6853.0,3819.0,664.0,284.0,166.0,-2593.0,2178.0,1246.0,-729.0,0.801879,0.44585,0.397654,13696.0,7724.0,1346.0,7.0,0.0,5.0
2855.0,2783.0,2855.0,3095.0,2999.0,0.834656,0.27002,-0.480042,0.003967,-1.0,0.0,0.0,6855.0,3845.0,670.0,272.0,183.0,-2552.0,2137.0,1247.0,-703.0,0.803481,0.446938,0.393316,13728.0,7780.0,1384.0,-9.0,6.0,2.0
2854.0,2779.0,2849.0,3095.0,3002.0,0.834045,0.270386,-0.480835,0.003967,-1.0,0.0,0.0,6851.0,3848.0,680.0,262.0,184.0,-2525.0,2111.0,1239.0,-695.0,0.804222,0.447213,0.391337,13676.0,7686.0,1406.0,-17.0,9.0,5.0
2855.0,2783.0,2850.0,3093.0,2995.0,0.832825,0.271179,-0.482483,0.003906,-1.0,-1.0,0.0,6845.0,3844.0,684.0,244.0,174.0,-2488.0,2077.0,1219.0,-689.0,0.805766,0.44792,0.387284,13696.0,7626.0,1306.0,-15.0,0.0,7.0
2856.0,2784.0,2854.0,3102.0,2995.0,0.832214,0.271606,-0.483337,0.003906,-1.0,-1.0,0.0,6849.0,3845.0,679.0,241.0,172.0,-2476.0,2068.0,1213.0,-682.0,0.806603,0.448294,0.385211,13730.0,7684.0,1346.0,-14.0,-3.0,7.0
2859.0,2781.0,2855.0,3103.0,2995.0,0.830933,0.2724,-0.485046,0.003784,-2.0,-1.0,0.0,6841.0,3848.0,667.0,220.0,169.0,-2454.0,2043.0,1207.0,-681.0,0.808143,0.449021,0.380992,13662.0,7658.0,1350.0,-23.0,-6.0,5.0
2857.0,2780.0,2847.0,3099.0,2999.0,0.830383,0.272705,-0.485901,0.003723,-2.0,-1.0,0.0,6832.0,3839.0,663.0,204.0,158.0,-2442.0,2030.0,1196.0,-689.0,0.808999,0.449281,0.379083,13580.0,7618.0,1330.0,-30.0,-3.0,8.0
2853.0,2779.0,2850.0,3095.0,2995.0,0.829163,0.273315,-0.487549,0.00354,-2.0,-1.0,0.0,6815.0,3804.0,654.0,175.0,119.0,-2418.0,2009.0,1159.0,-711.0,0.81045,0.449794,0.375118,13602.0,7486.0,1296.0,-34.0,-6.0,2.0
2858.0,2783.0,2851.0,3095.0,2999.0,0.828613,0.273621,-0.488403,0.003479,-2.0,-1.0,0.0,6822.0,3786.0,653.0,175.0,99.0,-2404.0,2005.0,1136.0,-710.0,0.811299,0.450053,0.373206,13700.0,7486.0,1326.0,-28.0,-6.0,0.0
2859.0,2783.0,2844.0,3102.0,2999.0,0.827393,0.274231,-0.490051,0.003479,-1.0,-1.0,0.0,6835.0,3750.0,667.0,176.0,60.0,-2357.0,1981.0,1082.0,-700.0,0.812838,0.450384,0.369238,13668.0,7418.0,1350.0,-14.0,-3.0,13.0
2853.0,2781.0,2855.0,3095.0,2997.0,0.826843,0.274536,-0.490845,0.00354,-1.0,-1.0,0.0,6829.0,3744.0,667.0,163.0,53.0,-2342.0,1966.0,1073.0,-703.0,0.813647,0.450521,0.367384,13616.0,7444.0,1316.0,-6.0,-9.0,13.0
2861.0,2779.0,2852.0,3095.0,3007.0,0.825562,0.27533,-0.492554,0.003601,-1.0,-1.0,0.0,6832.0,3769.0,659.0,153.0,73.0,-2315.0,1936.0,1081.0,-683.0,0.81525,0.451056,0.363149,13682.0,7686.0,1356.0,-2.0,-9.0,8.0
2858.0,2783.0,2851.0,3103.0,2999.0,0.824951,0.275757,-0.493347,0.00354,-1.0,-1.0,0.0,6835.0,3792.0,665.0,150.0,93.0,-2293.0,1913.0,1090.0,-663.0,0.815927,0.451479,0.361124,13702.0,7718.0,1360.0,-7.0,-4.0,3.0
2859.0,2779.0,2859.0,3101.0,2995.0,0.823792,0.276489,-0.494873,0.003479,-1.0,-1.0,0.0,6850.0,3808.0,681.0,154.0,104.0,-2245.0,1875.0,1077.0,-629.0,0.817268,0.452096,0.357299,13740.0,7608.0,1422.0,-14.0,-4.0,3.0
2862.0,2783.0,2851.0,3095.0,2999.0,0.823242,0.276855,-0.495605,0.003479,-1.0,-1.0,0.0,6852.0,3805.0,690.0,151.0,99.0,-2221.0,1857.0,1063.0,-621.0,0.817933,0.45239,0.355466,13690.0,7606.0,1442.0,-10.0,-5.0,6.0
2854.0,2783.0,2863.0,3094.0,2994.0,0.822083,0.277527,-0.497131,0.003418,-1.0,-1.0,0.0,6845.0,3811.0,707.0,133.0,100.0,-2173.0,1811.0,1047.0,-609.0,0.819263,0.452902,0.351671,13694.0,7706.0,1486.0,-6.0,-10.0,8.0
2858.0,2787.0,2851.0,3099.0,2991.0,0.821472,0.277893,-0.497864,0.003418,-1.0,-1.0,0.0,6843.0,3819.0,711.0,126.0,106.0,-2154.0,1791.0,1046.0,-601.0,0.819862,0.453159,0.349735,13684.0,7700.0,1400.0,-9.0,-11.0,5.0
2857.0,2781.0,2855.0,3099.0,2994.0,0.820374,0.278564,-0.49939,0.003296,-2.0,-1.0,0.0,6842.0,3828.0,707.0,114.0,110.0,-2127.0,1764.0,1040.0,-592.0,0.821208,0.453762,0.346035,13674.0,7656.0,1394.0,-24.0,-5.0,3.0
2855.0,2747.0,2861.0,3091.0,2995.0,0.819824,0.27887,-0.500122,0.003235,-2.0,-1.0,0.0,6838.0,3825.0,696.0,105.0,105.0,-2123.0,1759.0,1037.0,-596.0,0.821829,0.454013,0.344232,13662.0,7628.0,1334.0,-25.0,-6.0,2.0
2853.0,2779.0,2857.0,3095.0,2995.0,0.818726,0.279419,-0.501526,0.003113,-1.0,-1.0,0.0,6835.0,3790.0,707.0,93.0,67.0,-2084.0,1734.0,990.0,-603.0,0.822964,0.454413,0.340718,13648.0,7438.0,1482.0,-19.0,-7.0,4.0
2859.0,2783.0,2850.0,3103.0,2999.0,0.818237,0.279724,-0.502258,0.003113,-1.0,-1.0,0.0,6838.0,3773.0,711.0,90.0,48.0,-2066.0,1725.0,967.0,-604.0,0.823674,0.454635,0.339013,13686.0,7454.0,1414.0,-12.0,-7.0,9.0
2859.0,2783.0,2855.0,3102.0,2999.0,0.817078,0.280396,-0.503723,0.003174,0.0,-1.0,0.0,6875.0,3761.0,679.0,117.0,33.0,-2067.0,1745.0,949.0,-581.0,0.824942,0.455012,0.335267,13926.0,7506.0,1222.0,3.0,-6.0,7.0
2855.0,2779.0,2855.0,3103.0,2993.0,0.816467,0.280762,-0.504456,0.003174,0.0,-1.0,0.0,6892.0,3772.0,662.0,129.0,42.0,-2068.0,1751.0,954.0,-563.0,0.825525,0.455263,0.333326,13894.0,7602.0,1216.0,7.0,-4.0,6.0
2859.0,2779.0,2851.0,3087.0,2991.0,0.815308,0.281616,-0.50592,0.003235,0.0,-1.0,-1.0,6908.0,3808.0,633.0,134.0,72.0,-2066.0,1745.0,978.0,-537.0,0.826784,0.455935,0.329474,13810.0,7750.0,1272.0,7.0,-5.0,-2.0
2860.0,2783.0,2852.0,3099.0,2999.0,0.814697,0.282043,-0.506592,0.003235,0.0,-1.0,-1.0,6899.0,3825.0,644.0,122.0,87.0,-2039.0,1713.0,982.0,-527.0,0.827263,0.456283,0.327558,13712.0,7740.0,1350.0,3.0,-5.0,-1.0
2854.0,2783.0,2855.0,3095.0,2999.0,0.81366,0.282715,-0.507874,0.003174,-1.0,-1.0,0.0,6872.0,3825.0,685.0,86.0,82.0,-1970.0,1642.0,957.0,-529.0,0.828267,0.456844,0.324189,13654.0,7602.0,1502.0,-8.0,-2.0,3.0
2855.0,2781.0,2851.0,3101.0,2995.0,0.813171,0.28302,-0.508545,0.003174,-1.0,-1.0,0.0,6860.0,3812.0,691.0,69.0,67.0,-1951.0,1623.0,941.0,-541.0,0.828865,0.45706,0.32254,13654.0,7560.0,1402.0,-5.0,-1.0,7.0
2863.0,2779.0,2847.0,3099.0,2994.0,0.812134,0.283691,-0.509827,0.003235,0.0,-1.0,0.0,6847.0,3799.0,699.0,48.0,51.0,-1915.0,1590.0,917.0,-548.0,0.82993,0.457492,0.319168,13680.0,7628.0,1356.0,8.0,0.0,11.0
2857.0,2785.0,2853.0,3103.0,3003.0,0.811584,0.284058,-0.510437,0.003296,0.0,0.0,0.0,6855.0,3812.0,692.0,52.0,62.0,-1908.0,1583.0,923.0,-534.0,0.830398,0.457709,0.317446,13750.0,7706.0,1352.0,6.0,4.0,7.0
2857.0,2783.0,2855.0,3095.0,3003.0,0.810608,0.28479,-0.511658,0.003357,0.0,0.0,0.0,6849.0,3828.0,669.0,38.0,73.0,-1904.0,1572.0,935.0,-533.0,0.83142,0.458271,0.314197,13680.0,7720.0,1270.0,1.0,2.0,5.0
2855.0,2781.0,2851.0,3094.0,2995.0,0.810059,0.285156,-0.512268,0.003357,-1.0,-1.0,0.0,6850.0,3829.0,653.0,35.0,72.0,-1906.0,1573.0,937.0,-533.0,0.831849,0.458547,0.312474,13698.0,7640.0,1210.0,-2.0,-2.0,5.0
2855.0,2778.0,2847.0,3099.0,2993.0,0.809021,0.285767,-0.51355,0.003357,-1.0,-1.0,0.0,6845.0,3814.0,664.0,22.0,54.0,-1868.0,1542.0,909.0,-534.0,0.832864,0.458934,0.30913,13672.0,7588.0,1370.0,-6.0,-7.0,8.0
2855.0,2787.0,2853.0,3103.0,2999.0,0.808533,0.286072,-0.514221,0.003357,-1.0,-1.0,0.0,6840.0,3801.0,671.0,12.0,39.0,-1847.0,1526.0,889.0,-539.0,0.83345,0.459144,0.307476,13648.0,7538.0,1410.0,-1.0,-7.0,4.0
2857.0,2783.0,2859.0,3099.0,2995.0,0.807495,0.286804,-0.515381,0.003296,-1.0,-1.0,-1.0,6837.0,3809.0,675.0,3.0,42.0,-1816.0,1496.0,881.0,-530.0,0.834226,0.459789,0.304185,13678.0,7674.0,1352.0,0.0,-3.0,-5.0
2855.0,2781.0,2853.0,3095.0,2993.0,0.807007,0.287109,-0.51593,0.003235,-1.0,-1.0,-1.0,6842.0,3819.0,675.0,5.0,50.0,-1804.0,1486.0,882.0,-518.0,0.834576,0.460061,0.302655,13732.0,7686.0,1354.0,-4.0,-1.0,-6.0
2855.0,2781.0,2847.0,3093.0,2997.0,0.80603,0.28772,-0.517151,0.003174,-1.0,-1.0,0.0,6852.0,3819.0,675.0,7.0,46.0,-1778.0,1468.0,866.0,-505.0,0.835505,0.460539,0.299467,13758.0,7564.0,1372.0,-8.0,-6.0,5.0
2855.0,2786.0,2851.0,3102.0,2999.0,0.805542,0.288025,-0.517761,0.003174,-1.0,-1.0,0.0,6848.0,3805.0,674.0,0.0,30.0,-1766.0,1460.0,850.0,-512.0,0.835985,0.460746,0.297873,13646.0,7540.0,1328.0,-4.0,-8.0,9.0
2855.0,2783.0,2851.0,3107.0,2999.0,0.804565,0.288635,-0.518982,0.003174,0.0,-1.0,0.0,6842.0,3792.0,685.0,-14.0,14.0,-1729.0,1430.0,824.0,-514.0,0.836942,0.461158,0.294683,13682.0,7516.0,1390.0,2.0,-12.0,3.0
2855.0,2777.0,2851.0,3095.0,2995.0,0.804077,0.28894,-0.519592,0.003174,0.0,-1.0,0.0,6845.0,3791.0,681.0,-15.0,11.0,-1719.0,1422.0,818.0,-511.0,0.837419,0.461363,0.293087,13736.0,7546.0,1340.0,2.0,-11.0,1.0
2857.0,2755.0,2857.0,3089.0,2995.0,0.803101,0.289551,-0.520752,0.003113,0.0,-1.0,-1.0,6852.0,3779.0,671.0,-14.0,-4.0,-1704.0,1417.0,798.0,-507.0,0.838235,0.461835,0.289958,13692.0,7534.0,1308.0,1.0,-10.0,-1.0
2858.0,2786.0,2848.0,3099.0,2999.0,0.802551,0.289856,-0.521362,0.003113,0.0,-1.0,0.0,6851.0,3775.0,660.0,-19.0,-9.0,-1701.0,1414.0,795.0,-510.0,0.838645,0.462003,0.288263,13696.0,7538.0,1220.0,5.0,-13.0,0.0
2858.0,2783.0,2855.0,3095.0,2999.0,0.801575,0.290527,-0.522522,0.003113,0.0,-1.0,-1.0,6855.0,3799.0,654.0,-22.0,10.0,-1681.0,1392.0,803.0,-493.0,0.83949,0.462506,0.285096,13726.0,7682.0,1260.0,3.0,-7.0,-1.0
2859.0,2783.0,2853.0,3099.0,2998.0,0.801086,0.290894,-0.523071,0.003052,0.0,-1.0,-1.0,6859.0,3813.0,654.0,-20.0,21.0,-1668.0,1379.0,806.0,-479.0,0.839826,0.462869,0.283526,13750.0,7700.0,1340.0,5.0,-7.0,-5.0
2854.0,2783.0,2847.0,3095.0,2994.0,0.80011,0.291504,-0.52417,0.002991,-1.0,-1.0,0.0,6868.0,3832.0,664.0,-17.0,36.0,-1633.0,1348.0,801.0,-455.0,0.840531,0.463335,0.280456,13772.0,7698.0,1390.0,-4.0,-9.0,2.0
2855.0,2787.0,2853.0,3103.0,2997.0,0.799683,0.291748,-0.524719,0.00293,-1.0,-1.0,0.0,6876.0,3830.0,668.0,-12.0,32.0,-1618.0,1339.0,790.0,-446.0,0.840927,0.463537,0.279054,13812.0,7620.0,1370.0,-11.0,-5.0,6.0
2859.0,2786.0,2855.0,3099.0,2995.0,0.798828,0.292236,-0.525757,0.00293,-1.0,-1.0,0.0,6876.0,3805.0,673.0,-19.0,5.0,-1590.0,1322.0,757.0,-453.0,0.841691,0.463813,0.276313,13748.0,7540.0,1340.0,-4.0,-1.0,2.0
2855.0,2787.0,2846.0,3103.0,2999.0,0.798401,0.29248,-0.526306,0.002991,-1.0,0.0,0.0,6876.0,3793.0,672.0,-22.0,-7.0,-1580.0,1317.0,743.0,-456.0,0.842156,0.463885,0.27491,13752.0,7526.0,1336.0,0.0,2.0,1.0
2861.0,2785.0,2845.0,3095.0,2995.0,0.797546,0.29303,-0.527283,0.003052,0.0,0.0,0.0,6882.0,3792.0,663.0,-22.0,-10.0,-1566.0,1307.0,735.0,-449.0,0.842853,0.464191,0.272196,13744.0,7666.0,1292.0,3.0,3.0,5.0
2854.0,2787.0,2851.0,3093.0,2999.0,0.797058,0.293335,-0.527771,0.003052,0.0,-1.0,0.0,6889.0,3804.0,664.0,-17.0,0.0,-1553.0,1296.0,736.0,-434.0,0.843119,0.464389,0.270723,13828.0,7704.0,1358.0,1.0,-2.0,6.0
2859.0,2783.0,2851.0,3103.0,2999.0,0.796265,0.293823,-0.528809,0.003052,-1.0,0.0,0.0,6890.0,3811.0,674.0,-23.0,4.0,-1522.0,1267.0,727.0,-425.0,0.843937,0.464695,0.268076,13754.0,7572.0,1404.0,-8.0,1.0,9.0
2859.0,2779.0,2847.0,3098.0,3001.0,0.795837,0.294006,-0.529297,0.003113,-1.0,-1.0,0.0,6889.0,3790.0,689.0,-27.0,-16.0,-1496.0,1250.0,700.0,-429.0,0.844299,0.464667,0.266772,13760.0,7436.0,1482.0,-6.0,0.0,9.0
2855.0,2783.0,2859.0,3090.0,2995.0,0.795105,0.294434,-0.530212,0.003296,0.0,0.0,0.0,6862.0,3701.0,728.0,-60.0,-105.0,-1437.0,1215.0,609.0,-479.0,0.84509,0.464716,0.264386,13644.0,7090.0,1538.0,15.0,3.0,9.0
2859.0,2786.0,2850.0,3103.0,3003.0,0.794678,0.294678,-0.53064,0.003418,1.0,0.0,0.0,6843.0,3647.0,743.0,-82.0,-159.0,-1412.0,1202.0,560.0,-514.0,0.845389,0.46472,0.263111,13580.0,6960.0,1556.0,32.0,3.0,6.0
2855.0,2831.0,2851.0,3099.0,3003.0,0.793762,0.295532,-0.531555,0.003845,3.0,-1.0,-1.0,6786.0,3559.0,741.0,-145.0,-250.0,-1390.0,1186.0,496.0,-600.0,0.84613,0.465077,0.260183,13392.0,6852.0,1488.0,70.0,-1.0,-4.0
2855.0,2783.0,2847.0,3095.0,2999.0,0.793274,0.296021,-0.532043,0.00415,3.0,-1.0,-1.0,6766.0,3519.0,741.0,-169.0,-292.0,-1377.0,1179.0,464.0,-635.0,0.84657,0.465234,0.258602,13438.0,6792.0,1478.0,85.0,-6.0,-8.0
2855.0,2784.0,2850.0,3093.0,2995.0,0.792236,0.297119,-0.532898,0.004761,4.0,-1.0,0.0,6729.0,3428.0,785.0,-211.0,-387.0,-1307.0,1134.0,368.0,-692.0,0.847191,0.465703,0.255401,13320.0,6554.0,1718.0,105.0,-8.0,3.0
2855.0,2781.0,2853.0,3103.0,2999.0,0.791748,0.297607,-0.533386,0.005249,5.0,-1.0,0.0,6697.0,3347.0,831.0,-247.0,-467.0,-1248.0,1095.0,287.0,-743.0,0.847739,0.465661,0.253821,13174.0,6146.0,1996.0,115.0,-12.0,19.0
2861.0,2783.0,2855.0,3103.0,3003.0,0.790649,0.298523,-0.534485,0.007019,9.0,-2.0,3.0,6534.0,2873.0,1026.0,-424.0,-932.0,-1025.0,988.0,-143.0,-1049.0,0.849371,0.464551,0.250386,12268.0,3854.0,2900.0,227.0,-37.0,80.0
2855.0,2783.0,2849.0,3102.0,2995.0,0.789978,0.299072,-0.535156,0.008789,15.0,-3.0,5.0,6349.0,2425.0,1205.0,-620.0,-1368.0,-829.0,888.0,-533.0,-1366.0,0.85078,0.463114,0.248306,11436.0,1870.0,3580.0,364.0,-56.0,133.0
2859.0,2782.0,2851.0,3099.0,2999.0,0.787598,0.30249,-0.53656,0.015442,44.0,-4.0,5.0,5766.0,1037.0,1629.0,-1234.0,-2730.0,-346.0,718.0,-1687.0,-2393.0,0.854529,0.45991,0.241151,9376.0,-2496.0,4546.0,1024.0,-80.0,137.0
2859.0,2783.0,2845.0,3101.0,2995.0,0.7854,0.306641,-0.537292,0.020508,64.0,-8.0,3.0,5282.0,427.0,1852.0,-1734.0,-3338.0,-69.0,533.0,-2157.0,-3035.0,0.856557,0.459634,0.234563,7384.0,-2398.0,5036.0,1482.0,-164.0,73.0
2855.0,2779.0,2855.0,3103.0,2994.0,0.778076,0.320312,-0.539429,0.030029,84.0,-29.0,-10.0,3900.0,52.0,2419.0,-3134.0,-3765.0,676.0,-381.0,-2407.0,-4301.0,0.858671,0.466058,0.212721,3228.0,290.0,6822.0,1927.0,-657.0,-225.0
2855.0,2779.0,2845.0,3095.0,2995.0,0.773193,0.328735,-0.541382,0.032166,79.0,-46.0,-22.0,3115.0,261.0,2766.0,-3916.0,-3618.0,1146.0,-1079.0,-2252.0,-4847.0,0.858334,0.473524,0.197701,1488.0,1994.0,7596.0,1824.0,-1045.0,-500.0
2855.0,2783.0,2850.0,3091.0,2995.0,0.76123,0.34552,-0.548035,0.026733,51.0,-85.0,-53.0,1664.0,649.0,3291.0,-5322.0,-3420.0,1976.0,-2294.0,-1896.0,-5920.0,0.852835,0.496739,0.16046,-548.0,1986.0,7794.0,1189.0,-1938.0,-1193.0
2861.0,2785.0,2851.0,3093.0,3003.0,0.74646,0.361389,-0.558655,0.00885,27.0,-119.0,-82.0,701.0,753.0,3484.0,-6183.0,-3585.0,2545.0,-2933.0,-1631.0,-6803.0,0.840424,0.529637,0.114583,-848.0,1560.0,7038.0,636.0,-2708.0,-1866.0
2855.0,2781.0,2855.0,3099.0,2994.0,0.737732,0.369324,-0.565063,-0.003906,21.0,-133.0,-95.0,416.0,664.0,3374.0,-6390.0,-3836.0,2648.0,-2945.0,-1516.0,-7181.0,0.830845,0.549338,0.088567,-710.0,566.0,5852.0,484.0,-3036.0,-2163.0
2855.0,2785.0,2849.0,3099.0,2999.0,0.71582,0.386414,-0.580627,-0.033081,27.0,-160.0,-110.0,116.0,89.0,2692.0,-6484.0,-4757.0,2470.0,-2304.0,-1380.0,-7971.0,0.805684,0.591621,0.027049,-460.0,-1852.0,2668.0,636.0,-3644.0,-2504.0
2863.0,2783.0,2851.0,3099.0,2997.0,0.701721,0.396545,-0.589905,-0.047913,42.0,-173.0,-113.0,4.0,-203.0,2101.0,-6466.0,-5225.0,2187.0,-1736.0,-1191.0,-8333.0,0.789898,0.613056,-0.010528,-670.0,-1966.0,324.0,977.0,-3942.0,-2583.0
2858.0,2783.0,2854.0,3101.0,2995.0,0.665894,0.421631,-0.610596,-0.076782,71.0,-194.0,-121.0,-321.0,370.0,390.0,-6452.0,-4998.0,1219.0,-572.0,250.0,-8227.0,0.748436,0.655288,-0.10129,-2138.0,5594.0,-5514.0,1641.0,-4441.0,-2756.0
2861.0,2787.0,2847.0,3099.0,2997.0,0.621704,0.450684,-0.630371,-0.113953,44.0,-215.0,-148.0,-546.0,3389.0,-1946.0,-6125.0,-2378.0,-299.0,181.0,3122.0,-5785.0,0.681095,0.704049,-0.200982,-588.0,17848.0,-10252.0,1013.0,-4906.0,-3385.0
2855.0,2785.0,2853.0,3089.0,3005.0,0.332336,-0.178711,-1.21228,1.369568,8856.0,11532.0,-12914.0,3842.0,8454.0,-9308.0,1251.0,-28907.0,-13277.0,26979.0,-11876.0,27847.0,0.316256,-3.439384,0.484603,8666.0,24466.0,-19616.0,-1373.0,-4624.0,-4195.0
2855.0,2785.0,2847.0,3099.0,2987.0,0.564209,0.489502,-0.642578,-0.170715,245.0,30.0,-85.0,3529.0,9707.0,-7548.0,-1041.0,3384.0,-5049.0,2907.0,4101.0,3570.0,0.557966,0.771759,-0.305043,15690.0,32767.0,-32768.0,5625.0,694.0,-1943.0
2857.0,2787.0,2847.0,3088.0,2998.0,0.518311,0.542908,-0.650574,-0.115845,283.0,74.0,49.0,8483.0,11303.0,-11613.0,3988.0,5457.0,-8041.0,3740.0,2111.0,9586.0,0.548612,0.713521,-0.435929,32767.0,32767.0,-32768.0,6489.0,1698.0,1127.0
2861.0,2782.0,2853.0,3099.0,2981.0,0.515625,0.544739,-0.655273,-0.089111,-47.0,33.0,54.0,8804.0,13640.0,-13284.0,4063.0,8081.0,-9578.0,2884.0,4144.0,12166.0,0.578666,0.678546,-0.452314,11810.0,32767.0,-27010.0,-1062.0,764.0,1238.0
2859.0,2775.0,2855.0,3091.0,2995.0,0.528992,0.528564,-0.654053,-0.113892,-154.0,-25.0,-23.0,6627.0,12422.0,-10217.0,1944.0,6620.0,-6822.0,1992.0,3969.0,8626.0,0.571579,0.708195,-0.414362,7472.0,14064.0,-9344.0,-3525.0,-551.0,-509.0
2859.0,2786.0,2847.0,3093.0,2995.0,0.537292,0.519836,-0.650635,-0.133301,-194.0,-31.0,-48.0,5984.0,9986.0,-8318.0,1391.0,3988.0,-5146.0,2348.0,2532.0,5691.0,0.560573,0.732069,-0.387103,7954.0,4182.0,-5464.0,-4426.0,-696.0,-1083.0
2855.0,2783.0,2847.0,3091.0,3005.0,0.554077,0.499451,-0.643372,-0.172241,-177.0,-34.0,-49.0,4819.0,3770.0,-5304.0,387.0,-2579.0,-2627.0,3533.0,-590.0,-931.0,0.540903,0.775099,-0.326709,6716.0,-11070.0,-3614.0,-4054.0,-765.0,-1104.0
2862.0,2783.0,2855.0,3095.0,2987.0,0.56012,0.491089,-0.640015,-0.188354,-35.0,-12.0,-30.0,3803.0,277.0,-3432.0,-554.0,-6204.0,-961.0,3396.0,-2009.0,-4913.0,0.531972,0.791236,-0.301576,4256.0,-2498.0,-2324.0,-781.0,-262.0,-679.0
2858.0,2785.0,2849.0,3109.0,2997.0,0.558289,0.492371,-0.640198,-0.189697,13.0,-15.0,-20.0,3356.0,669.0,-2969.0,-969.0,-5824.0,-473.0,2759.0,-1619.0,-4984.0,0.528027,0.792657,-0.304611,4260.0,5352.0,-3910.0,300.0,-328.0,-453.0
2855.0,2783.0,2851.0,3095.0,2997.0,0.549072,0.499512,-0.643982,-0.184998,64.0,-13.0,2.0,3219.0,3269.0,-3132.0,-1060.0,-3176.0,-440.0,1682.0,-339.0,-2908.0,0.522368,0.786806,-0.32852,7184.0,15728.0,-7766.0,1486.0,-297.0,62.0
2855.0,2779.0,2855.0,3095.0,3003.0,0.539124,0.507568,-0.64917,-0.17395,63.0,-2.0,19.0,3484.0,6307.0,-3844.0,-803.0,-26.0,-910.0,732.0,961.0,-114.0,0.523382,0.773131,-0.358134,7502.0,20628.0,-9866.0,1453.0,-34.0,439.0
2854.0,2783.0,2851.0,3091.0,2991.0,0.536133,0.509705,-0.651123,-0.169739,41.0,1.0,20.0,3522.0,7279.0,-4140.0,-779.0,990.0,-1129.0,433.0,1444.0,765.0,0.525144,0.76758,-0.36751,7152.0,19574.0,-9914.0,946.0,37.0,471.0
2855.0,2786.0,2853.0,3095.0,3003.0,0.534302,0.510681,-0.652771,-0.166138,1.0,6.0,10.0,3438.0,7552.0,-4375.0,-886.0,1304.0,-1312.0,417.0,1731.0,1017.0,0.527867,0.762615,-0.373825,6396.0,13792.0,-9052.0,27.0,140.0,248.0
2859.0,2788.0,2852.0,3071.0,3002.0,0.534729,0.510315,-0.65271,-0.16626,-11.0,6.0,4.0,3352.0,7123.0,-4406.0,-976.0,874.0,-1351.0,655.0,1638.0,654.0,0.528356,0.762799,-0.372874,6202.0,11338.0,-8964.0,-234.0,140.0,106.0
2859.0,2783.0,2847.0,3107.0,2993.0,0.535461,0.509399,-0.652466,-0.167603,-12.0,1.0,-1.0,3339.0,6079.0,-4423.0,-986.0,-181.0,-1388.0,1203.0,1209.0,-144.0,0.527987,0.764237,-0.37039,6970.0,9468.0,-8870.0,-269.0,41.0,-12.0
2853.0,2779.0,2851.0,3095.0,2991.0,0.535278,0.509155,-0.65271,-0.167847,-7.0,0.0,0.0,3419.0,5805.0,-4433.0,-905.0,-455.0,-1397.0,1352.0,1026.0,-307.0,0.527843,0.76419,-0.370574,7340.0,10364.0,-8912.0,-143.0,13.0,14.0
2855.0,2783.0,2852.0,3095.0,3006.0,0.534119,0.509338,-0.653625,-0.167542,0.0,-2.0,2.0,3503.0,5899.0,-4450.0,-818.0,-352.0,-1391.0,1306.0,993.0,-180.0,0.527556,0.763113,-0.373299,7080.0,12750.0,-8874.0,22.0,-28.0,63.0
2855.0,2783.0,2847.0,3095.0,2991.0,0.533386,0.50946,-0.654114,-0.167603,-1.0,-3.0,2.0,3512.0,6082.0,-4408.0,-805.0,-166.0,-1337.0,1171.0,1043.0,-49.0,0.527017,0.762741,-0.374823,7086.0,13244.0,-8490.0,-8.0,-50.0,48.0
2851.0,2783.0,2851.0,3099.0,3011.0,0.532715,0.50946,-0.654297,-0.168823,-7.0,-1.0,-2.0,3521.0,6239.0,-4215.0,-780.0,-17.0,-1139.0,930.0,1019.0,4.0,0.52509,0.763715,-0.375368,7014.0,12504.0,-7824.0,-153.0,-19.0,-27.0
2855.0,2781.0,2855.0,3101.0,2993.0,0.532715,0.50946,-0.654114,-0.1698,-9.0,-1.0,-4.0,3512.0,6166.0,-4139.0,-779.0,-100.0,-1068.0,910.0,960.0,-84.0,0.5239,0.764931,-0.374798,6978.0,11748.0,-7870.0,-186.0,-7.0,-72.0
2859.0,2781.0,2847.0,3102.0,2995.0,0.53241,0.509705,-0.653748,-0.171265,-5.0,-1.0,-4.0,3539.0,5905.0,-4002.0,-733.0,-375.0,-934.0,931.0,761.0,-320.0,0.521534,0.766671,-0.374393,7224.0,11116.0,-7724.0,-99.0,-2.0,-85.0
2854.0,2783.0,2855.0,3103.0,3015.0,0.532043,0.51001,-0.653748,-0.17157,-2.0,-1.0,-3.0,3562.0,5807.0,-3989.0,-703.0,-476.0,-917.0,968.0,688.0,-387.0,0.52064,0.767021,-0.374989,7254.0,11090.0,-7992.0,-38.0,-10.0,-55.0
2859.0,2783.0,2851.0,3091.0,2987.0,0.530579,0.51062,-0.65448,-0.171326,2.0,-3.0,1.0,3630.0,5757.0,-4092.0,-626.0,-518.0,-993.0,1062.0,630.0,-346.0,0.519542,0.766107,-0.378211,7514.0,11570.0,-8616.0,67.0,-47.0,23.0
2854.0,2781.0,2854.0,3071.0,2996.0,0.529602,0.510925,-0.655151,-0.170959,3.0,-4.0,1.0,3631.0,5778.0,-4205.0,-622.0,-490.0,-1087.0,1131.0,668.0,-284.0,0.519244,0.765183,-0.380563,7198.0,11680.0,-9194.0,90.0,-77.0,41.0
2855.0,2778.0,2853.0,3103.0,2991.0,0.527283,0.511353,-0.656738,-0.170837,0.0,-7.0,1.0,3685.0,5910.0,-4366.0,-557.0,-345.0,-1207.0,1172.0,710.0,-86.0,0.517857,0.763646,-0.385574,7634.0,12304.0,-9054.0,14.0,-139.0,45.0
2855.0,2781.0,2855.0,3103.0,2992.0,0.526428,0.51123,-0.65741,-0.171265,-4.0,-6.0,1.0,3738.0,5993.0,-4390.0,-497.0,-261.0,-1218.0,1146.0,695.0,15.0,0.517047,0.763434,-0.387086,7866.0,12470.0,-8824.0,-76.0,-133.0,26.0
2859.0,2787.0,2858.0,3103.0,3005.0,0.52594,0.510498,-0.657837,-0.173157,-13.0,-3.0,-2.0,3769.0,6112.0,-4307.0,-451.0,-153.0,-1138.0,1029.0,672.0,90.0,0.515173,0.7648,-0.386762,7478.0,12536.0,-8300.0,-275.0,-62.0,-31.0
2855.0,2782.0,2851.0,3091.0,3007.0,0.526245,0.509949,-0.657654,-0.174622,-16.0,-2.0,-3.0,3739.0,6115.0,-4243.0,-472.0,-163.0,-1088.0,991.0,669.0,51.0,0.514078,0.766397,-0.38513,7292.0,12144.0,-8046.0,-352.0,-38.0,-58.0
2857.0,2780.0,2851.0,3091.0,3005.0,0.527161,0.508728,-0.657104,-0.17749,-15.0,-1.0,-2.0,3674.0,5988.0,-4063.0,-522.0,-316.0,-940.0,934.0,599.0,-152.0,0.512211,0.769622,-0.381189,7128.0,11546.0,-7604.0,-340.0,-10.0,-42.0
2859.0,2779.0,2854.0,3099.0,3007.0,0.527588,0.508179,-0.656921,-0.178589,-12.0,-1.0,-1.0,3635.0,5934.0,-3985.0,-556.0,-380.0,-875.0,906.0,580.0,-245.0,0.511657,0.770856,-0.379548,7036.0,11564.0,-7596.0,-274.0,-3.0,-16.0
2859.0,2781.0,2843.0,3093.0,2992.0,0.527649,0.507568,-0.656982,-0.179688,-5.0,-1.0,1.0,3557.0,5863.0,-3876.0,-628.0,-459.0,-774.0,851.0,576.0,-382.0,0.510905,0.771739,-0.378551,6892.0,11606.0,-7504.0,-95.0,-14.0,26.0
2861.0,2783.0,2854.0,3095.0,2992.0,0.527344,0.507507,-0.657288,-0.17981,-1.0,-2.0,1.0,3540.0,5862.0,-3857.0,-643.0,-459.0,-750.0,830.0,582.0,-398.0,0.510724,0.771635,-0.379168,7010.0,11734.0,-7628.0,-14.0,-27.0,36.0
2859.0,2773.0,2851.0,3095.0,2993.0,0.526245,0.507812,-0.65802,-0.179382,2.0,-2.0,1.0,3581.0,5887.0,-3828.0,-599.0,-425.0,-700.0,774.0,543.0,-365.0,0.510374,0.770542,-0.381752,7322.0,11918.0,-7660.0,60.0,-24.0,42.0
2859.0,2789.0,2850.0,3095.0,3012.0,0.525696,0.508057,-0.658386,-0.179077,2.0,-1.0,1.0,3599.0,5920.0,-3838.0,-581.0,-387.0,-699.0,757.0,544.0,-326.0,0.510259,0.76997,-0.383169,7308.0,12052.0,-7782.0,68.0,-7.0,32.0
2855.0,2790.0,2850.0,3095.0,3011.0,0.52478,0.508667,-0.658752,-0.178528,1.0,1.0,0.0,3644.0,5964.0,-3889.0,-532.0,-336.0,-731.0,764.0,533.0,-247.0,0.509778,0.769088,-0.38543,7370.0,11972.0,-8006.0,39.0,24.0,6.0
2862.0,2783.0,2849.0,3091.0,2987.0,0.524414,0.508972,-0.658875,-0.178284,1.0,1.0,0.0,3649.0,5966.0,-3949.0,-525.0,-331.0,-783.0,807.0,545.0,-219.0,0.509563,0.768757,-0.386373,7330.0,11918.0,-8296.0,30.0,31.0,3.0
2858.0,2779.0,2859.0,3093.0,2997.0,0.523621,0.509521,-0.659241,-0.177795,1.0,1.0,0.0,3657.0,5962.0,-4040.0,-514.0,-329.0,-858.0,872.0,560.0,-181.0,0.509203,0.768012,-0.388421,7318.0,11924.0,-8332.0,29.0,27.0,19.0
2851.0,2786.0,2853.0,3099.0,2997.0,0.523132,0.509827,-0.659485,-0.17749,1.0,0.0,1.0,3649.0,5963.0,-4075.0,-520.0,-324.0,-882.0,890.0,575.0,-169.0,0.509017,0.767518,-0.389673,7248.0,11944.0,-8338.0,35.0,22.0,25.0
2858.0,2783.0,2851.0,3091.0,2995.0,0.522095,0.510315,-0.660034,-0.177002,1.0,-1.0,1.0,3622.0,5998.0,-4143.0,-544.0,-281.0,-930.0,910.0,628.0,-127.0,0.508547,0.76652,-0.392154,7200.0,12148.0,-8430.0,36.0,-11.0,28.0
2859.0,2783.0,2854.0,3091.0,3003.0,0.521484,0.510559,-0.660339,-0.17688,0.0,-1.0,1.0,3629.0,6036.0,-4152.0,-533.0,-239.0,-928.0,889.0,635.0,-88.0,0.508098,0.766099,-0.393486,7326.0,12340.0,-8324.0,20.0,-20.0,24.0
2857.0,2779.0,2854.0,3099.0,2993.0,0.520813,0.510742,-0.660706,-0.177124,-3.0,-1.0,-1.0,3639.0,6087.0,-4127.0,-516.0,-188.0,-893.0,835.0,631.0,-53.0,0.507279,0.766056,-0.39477,7206.0,12188.0,-8214.0,-58.0,-5.0,-6.0
2853.0,2782.0,2850.0,3089.0,2991.0,0.520569,0.510864,-0.660706,-0.177429,-4.0,0.0,-1.0,3624.0,6058.0,-4110.0,-526.0,-219.0,-873.0,832.0,621.0,-89.0,0.506601,0.766337,-0.395041,7156.0,11884.0,-8070.0,-85.0,1.0,-20.0
2863.0,2783.0,2847.0,3101.0,3011.0,0.520325,0.510864,-0.660767,-0.178101,-4.0,0.0,-1.0,3597.0,5952.0,-4038.0,-545.0,-331.0,-801.0,824.0,569.0,-212.0,0.505656,0.766996,-0.395137,7080.0,11606.0,-7870.0,-80.0,8.0,-10.0
2855.0,2779.0,2851.0,3101.0,3003.0,0.520081,0.510925,-0.660828,-0.178284,-3.0,0.0,0.0,3577.0,5910.0,-4016.0,-561.0,-373.0,-776.0,822.0,557.0,-262.0,0.505188,0.767074,-0.395469,7008.0,11606.0,-7918.0,-53.0,6.0,1.0
2849.0,2783.0,2849.0,3094.0,3007.0,0.519409,0.511169,-0.661133,-0.178284,0.0,-1.0,0.0,3524.0,5904.0,-3978.0,-609.0,-377.0,-727.0,778.0,583.0,-307.0,0.504531,0.766751,-0.39682,6854.0,11940.0,-7882.0,5.0,-5.0,22.0
2853.0,2774.0,2851.0,3099.0,2993.0,0.518982,0.511353,-0.661377,-0.178223,0.0,-1.0,1.0,3498.0,5934.0,-3980.0,-632.0,-345.0,-721.0,756.0,614.0,-296.0,0.504216,0.76651,-0.397795,6870.0,12050.0,-7990.0,22.0,-16.0,26.0
2855.0,2781.0,2855.0,3095.0,2995.0,0.518005,0.511658,-0.661926,-0.17804,1.0,-1.0,1.0,3533.0,5997.0,-3972.0,-592.0,-276.0,-695.0,703.0,600.0,-231.0,0.503572,0.765781,-0.399912,7248.0,12140.0,-7868.0,28.0,-6.0,33.0
2855.0,2783.0,2851.0,3095.0,2993.0,0.5177,0.511841,-0.662109,-0.177856,1.0,0.0,1.0,3557.0,6011.0,-3969.0,-567.0,-259.0,-686.0,689.0,583.0,-208.0,0.50348,0.765481,-0.400723,7244.0,12076.0,-7954.0,25.0,10.0,33.0
2859.0,2783.0,2851.0,3095.0,2991.0,0.516968,0.512207,-0.662476,-0.17749,1.0,0.0,0.0,3590.0,6000.0,-3995.0,-531.0,-264.0,-697.0,703.0,554.0,-188.0,0.503134,0.764755,-0.402471,7282.0,11850.0,-8072.0,30.0,9.0,13.0
2857.0,2783.0,2847.0,3099.0,2995.0,0.516479,0.512512,-0.662659,-0.177246,2.0,-1.0,0.0,3604.0,5978.0,-4005.0,-515.0,-283.0,-698.0,714.0,533.0,-193.0,0.502818,0.764311,-0.403618,7294.0,11862.0,-8114.0,46.0,0.0,6.0
2855.0,2783.0,2850.0,3088.0,3004.0,0.515381,0.513184,-0.663147,-0.176697,3.0,-1.0,0.0,3613.0,5991.0,-4023.0,-500.0,-262.0,-694.0,701.0,528.0,-169.0,0.502191,0.763322,-0.406282,7208.0,12080.0,-8106.0,75.0,-7.0,10.0
2853.0,2789.0,2847.0,3102.0,2999.0,0.514771,0.51355,-0.663391,-0.176453,3.0,-1.0,0.0,3605.0,6016.0,-4034.0,-505.0,-233.0,-694.0,687.0,544.0,-148.0,0.501754,0.762835,-0.407697,7156.0,12190.0,-8102.0,74.0,-16.0,11.0
2851.0,2783.0,2858.0,3095.0,2990.0,0.513672,0.51416,-0.663879,-0.176208,1.0,-1.0,0.0,3612.0,6039.0,-4048.0,-490.0,-204.0,-687.0,667.0,541.0,-119.0,0.500834,0.762182,-0.410188,7228.0,12112.0,-8116.0,37.0,-10.0,1.0
2853.0,2781.0,2847.0,3095.0,2987.0,0.513306,0.514404,-0.664001,-0.176147,0.0,0.0,-1.0,3610.0,6045.0,-4060.0,-489.0,-197.0,-693.0,669.0,545.0,-110.0,0.500449,0.762018,-0.410999,7214.0,12118.0,-8244.0,11.0,1.0,-3.0
2861.0,2759.0,2847.0,3095.0,3011.0,0.512695,0.514648,-0.664185,-0.176208,-2.0,0.0,0.0,3606.0,6007.0,-4091.0,-487.0,-233.0,-715.0,706.0,535.0,-126.0,0.499678,0.761786,-0.412098,7154.0,11852.0,-8254.0,-30.0,9.0,11.0
2859.0,2783.0,2857.0,3091.0,3027.0,0.512451,0.514771,-0.664368,-0.17627,-2.0,0.0,0.0,3586.0,5994.0,-4099.0,-505.0,-246.0,-718.0,715.0,546.0,-143.0,0.499435,0.761805,-0.412696,7024.0,11920.0,-8210.0,-30.0,5.0,13.0
2855.0,2787.0,2850.0,3071.0,2987.0,0.511841,0.514954,-0.664612,-0.176453,-2.0,-1.0,0.0,3559.0,5984.0,-4067.0,-525.0,-255.0,-677.0,683.0,548.0,-175.0,0.498621,0.761694,-0.41377,7124.0,11938.0,-8004.0,-25.0,-12.0,9.0
2858.0,2783.0,2852.0,3099.0,3006.0,0.511536,0.515015,-0.664795,-0.176575,-1.0,-1.0,0.0,3562.0,5987.0,-4054.0,-519.0,-252.0,-659.0,667.0,539.0,-177.0,0.498255,0.761669,-0.414345,7144.0,12022.0,-8014.0,-20.0,-16.0,5.0
2859.0,2775.0,2879.0,3099.0,3003.0,0.510864,0.515198,-0.665039,-0.176758,-1.0,-1.0,-1.0,3606.0,6006.0,-4022.0,-468.0,-232.0,-618.0,624.0,490.0,-152.0,0.497359,0.761494,-0.41548,7382.0,12022.0,-7972.0,-11.0,-16.0,-2.0
2863.0,2783.0,2847.0,3089.0,2994.0,0.510559,0.515381,-0.665161,-0.176819,-1.0,-1.0,-1.0,3621.0,6011.0,-4019.0,-450.0,-227.0,-610.0,616.0,475.0,-142.0,0.49695,0.761491,-0.416121,7362.0,12066.0,-8022.0,-7.0,-7.0,-1.0
2852.0,2783.0,2851.0,3093.0,3003.0,0.510071,0.515625,-0.665405,-0.176697,-1.0,0.0,0.0,3637.0,5983.0,-4020.0,-431.0,-252.0,-601.0,622.0,445.0,-155.0,0.496589,0.76116,-0.417239,7238.0,11824.0,-8036.0,-2.0,17.0,17.0
2859.0,2783.0,2851.0,3095.0,2983.0,0.509827,0.515747,-0.665527,-0.176514,0.0,1.0,1.0,3629.0,5963.0,-4017.0,-438.0,-269.0,-594.0,624.0,443.0,-173.0,0.496534,0.760833,-0.417841,7176.0,11828.0,-7978.0,9.0,25.0,25.0
2859.0,2751.0,2853.0,3091.0,2978.0,0.509216,0.516052,-0.665833,-0.176147,1.0,0.0,0.0,3591.0,5962.0,-4022.0,-474.0,-265.0,-586.0,614.0,473.0,-190.0,0.496303,0.760134,-0.419314,7064.0,11986.0,-8122.0,28.0,7.0,16.0
2855.0,2779.0,2855.0,3101.0,3013.0,0.508789,0.516296,-0.666016,-0.176086,1.0,-1.0,0.0,3581.0,5975.0,-4034.0,-481.0,-250.0,-591.0,610.0,487.0,-180.0,0.495897,0.759925,-0.420266,7112.0,12028.0,-8110.0,28.0,-7.0,6.0
2863.0,2783.0,2854.0,3095.0,3015.0,0.507935,0.516785,-0.66626,-0.176025,0.0,-1.0,-1.0,3592.0,6003.0,-4046.0,-462.0,-219.0,-589.0,594.0,483.0,-146.0,0.494898,0.759543,-0.421986,7220.0,12084.0,-8120.0,19.0,-12.0,-10.0
2851.0,2779.0,2847.0,3095.0,3007.0,0.507568,0.517029,-0.666382,-0.176025,0.0,-1.0,-1.0,3597.0,6007.0,-4056.0,-453.0,-214.0,-592.0,594.0,478.0,-136.0,0.494448,0.759455,-0.422773,7238.0,12036.0,-8170.0,12.0,-5.0,-10.0
2859.0,2779.0,2849.0,3107.0,2989.0,0.506958,0.517395,-0.666565,-0.176025,-1.0,0.0,0.0,3612.0,5997.0,-4072.0,-432.0,-222.0,-598.0,605.0,459.0,-128.0,0.493692,0.75926,-0.424015,7298.0,11944.0,-8144.0,-2.0,11.0,2.0
2859.0,2787.0,2849.0,3095.0,2995.0,0.506714,0.517517,-0.666687,-0.175964,-1.0,0.0,0.0,3617.0,5986.0,-4059.0,-425.0,-232.0,-580.0,595.0,443.0,-139.0,0.49351,0.759092,-0.424573,7242.0,11898.0,-8024.0,-8.0,19.0,6.0
2858.0,2783.0,2855.0,3095.0,2987.0,0.506348,0.517761,-0.666809,-0.175781,-1.0,0.0,0.0,3601.0,5956.0,-4050.0,-439.0,-259.0,-564.0,594.0,440.0,-173.0,0.493249,0.758759,-0.425424,7126.0,11792.0,-8112.0,-2.0,20.0,9.0
2855.0,2785.0,2847.0,3095.0,3007.0,0.506104,0.517883,-0.66687,-0.17572,0.0,0.0,0.0,3598.0,5944.0,-4045.0,-440.0,-270.0,-556.0,593.0,434.0,-184.0,0.493005,0.75857,-0.425901,7182.0,11822.0,-8044.0,11.0,9.0,10.0
2861.0,2788.0,2855.0,3091.0,2991.0,0.505371,0.518311,-0.667236,-0.175537,1.0,-1.0,0.0,3592.0,5963.0,-4061.0,-442.0,-247.0,-557.0,582.0,446.0,-166.0,0.492438,0.758128,-0.427637,7166.0,12036.0,-8154.0,30.0,-14.0,5.0
2858.0,2770.0,2847.0,3089.0,2983.0,0.504883,0.518494,-0.667419,-0.175476,1.0,-1.0,0.0,3599.0,5993.0,-4060.0,-431.0,-214.0,-549.0,559.0,447.0,-138.0,0.491971,0.757789,-0.428586,7278.0,12178.0,-8106.0,27.0,-18.0,3.0
2853.0,2781.0,2853.0,3091.0,3003.0,0.504272,0.51886,-0.667603,-0.175537,-1.0,0.0,-1.0,3622.0,6022.0,-4055.0,-401.0,-184.0,-534.0,532.0,429.0,-106.0,0.491149,0.757672,-0.429805,7268.0,12032.0,-8098.0,-9.0,2.0,-7.0
2855.0,2779.0,2847.0,3089.0,2997.0,0.504089,0.518982,-0.667603,-0.175537,-1.0,0.0,-1.0,3622.0,6013.0,-4048.0,-399.0,-193.0,-524.0,529.0,421.0,-116.0,0.490861,0.757605,-0.430116,7238.0,11972.0,-8046.0,-17.0,11.0,-9.0
2855.0,2783.0,2847.0,3099.0,2987.0,0.503723,0.519226,-0.667664,-0.175659,-1.0,0.0,-1.0,3614.0,5987.0,-4045.0,-401.0,-219.0,-516.0,535.0,410.0,-140.0,0.490222,0.757655,-0.430777,7186.0,11922.0,-8074.0,-20.0,11.0,-3.0
2858.0,2783.0,2858.0,3095.0,3007.0,0.50354,0.519348,-0.667725,-0.17572,-1.0,0.0,0.0,3604.0,5980.0,-4042.0,-409.0,-227.0,-510.0,534.0,412.0,-152.0,0.489932,0.757691,-0.431148,7128.0,11904.0,-8070.0,-15.0,5.0,0.0
2855.0,2787.0,2851.0,3095.0,2994.0,0.502991,0.519592,-0.667969,-0.17572,0.0,-1.0,0.0,3611.0,5971.0,-4037.0,-397.0,-234.0,-495.0,525.0,395.0,-157.0,0.489358,0.757451,-0.432281,7240.0,11978.0,-8026.0,8.0,-11.0,7.0
2861.0,2783.0,2851.0,3089.0,2987.0,0.502625,0.519714,-0.668152,-0.175659,0.0,-1.0,0.0,3616.0,5980.0,-4047.0,-390.0,-222.0,-499.0,523.0,394.0,-142.0,0.489074,0.757176,-0.433042,7276.0,12028.0,-8158.0,13.0,-13.0,10.0
2855.0,2783.0,2850.0,3090.0,3007.0,0.502014,0.519958,-0.668396,-0.175659,-1.0,-1.0,0.0,3628.0,6034.0,-4060.0,-373.0,-166.0,-502.0,497.0,403.0,-89.0,0.488418,0.756873,-0.434236,7306.0,12190.0,-8122.0,-3.0,-5.0,3.0
2857.0,2781.0,2851.0,3088.0,3003.0,0.501831,0.52002,-0.668457,-0.17572,-1.0,0.0,-1.0,3633.0,6043.0,-4055.0,-365.0,-157.0,-495.0,487.0,397.0,-81.0,0.488149,0.756847,-0.434543,7296.0,12112.0,-8108.0,-22.0,5.0,-2.0
2855.0,2783.0,2847.0,3095.0,3003.0,0.501526,0.520203,-0.668518,-0.175964,-2.0,0.0,-1.0,3611.0,6007.0,-4058.0,-382.0,-194.0,-494.0,505.0,397.0,-118.0,0.487484,0.757061,-0.435036,7170.0,11816.0,-8060.0,-37.0,7.0,-8.0
2859.0,2783.0,2845.0,3095.0,2982.0,0.501343,0.520264,-0.668518,-0.176086,-2.0,0.0,-1.0,3600.0,5972.0,-4038.0,-390.0,-230.0,-472.0,505.0,384.0,-158.0,0.487091,0.757095,-0.43524,7120.0,11740.0,-7922.0,-26.0,9.0,-5.0
2855.0,2783.0,2849.0,3090.0,2981.0,0.500916,0.520569,-0.668701,-0.176025,0.0,0.0,0.0,3570.0,5937.0,-4023.0,-416.0,-263.0,-449.0,501.0,387.0,-205.0,0.486659,0.756939,-0.436252,7018.0,11812.0,-8052.0,17.0,1.0,7.0
2863.0,2783.0,2854.0,3091.0,3003.0,0.500549,0.520691,-0.668823,-0.175903,1.0,-1.0,0.0,3566.0,5946.0,-4020.0,-418.0,-251.0,-440.0,487.0,391.0,-200.0,0.486376,0.756559,-0.436952,7142.0,11980.0,-8030.0,30.0,-4.0,11.0
2858.0,2781.0,2859.0,3101.0,3007.0,0.499878,0.521118,-0.669128,-0.175659,1.0,-1.0,0.0,3590.0,6000.0,-4042.0,-390.0,-193.0,-449.0,466.0,392.0,-138.0,0.485887,0.756068,-0.438563,7246.0,12188.0,-8200.0,32.0,-2.0,6.0
2858.0,2781.0,2851.0,3101.0,2983.0,0.499573,0.521301,-0.66925,-0.175598,0.0,0.0,0.0,3604.0,6023.0,-4069.0,-374.0,-169.0,-470.0,472.0,394.0,-102.0,0.4856,0.755894,-0.439244,7310.0,12162.0,-8312.0,22.0,2.0,1.0
2855.0,2783.0,2851.0,3099.0,2989.0,0.499023,0.521667,-0.669373,-0.175537,-1.0,0.0,-1.0,3612.0,6040.0,-4093.0,-360.0,-150.0,-485.0,476.0,393.0,-74.0,0.484921,0.755648,-0.440359,7226.0,12104.0,-8172.0,-2.0,3.0,-7.0
2854.0,2783.0,2853.0,3093.0,2971.0,0.498779,0.52179,-0.669434,-0.175598,-1.0,0.0,-1.0,3612.0,6028.0,-4080.0,-357.0,-162.0,-469.0,468.0,381.0,-88.0,0.484549,0.755618,-0.44079,7224.0,11956.0,-8068.0,-15.0,3.0,-8.0
2858.0,2781.0,2867.0,3095.0,2997.0,0.498474,0.521912,-0.669556,-0.17572,-1.0,0.0,0.0,3598.0,5969.0,-4051.0,-367.0,-221.0,-435.0,470.0,357.0,-152.0,0.484092,0.755628,-0.441343,7122.0,11786.0,-8008.0,-16.0,4.0,4.0
855.0,3095.0,2995.0,0.710754,0.316406,-0.627808,-0.022949,0.0,-1.0,-1.0,6911.0,3716.0,143.0,-280.0,-204.0,49.0,-29.0,-63.0,-342.0,0.877912,0.47859,0.011443,13790.0,7486.0,164.0,8.0,-4.0,-11.0,,
2851.0,2783.0,2847.0,3095.0,2993.0,0.710693,0.316528,-0.627808,-0.02301,0.0,-1.0,-1.0,6920.0,3758.0,122.0,-270.0,-164.0,29.0,-23.0,-27.0,-315.0,0.877791,0.478801,0.011282,13892.0,7688.0,150.0,4.0,-4.0,-12.0
2855.0,2783.0,2847.0,3093.0,2995.0,0.710693,0.316528,-0.627808,-0.023071,-1.0,-1.0,-1.0,6926.0,3787.0,109.0,-264.0,-135.0,16.0,-20.0,0.0,-296.0,0.877752,0.478878,0.011285,13884.0,7750.0,146.0,-2.0,-2.0,-9.0
2858.0,2781.0,2847.0,3103.0,2995.0,0.710693,0.316589,-0.627808,-0.023193,-1.0,-1.0,0.0,6917.0,3818.0,99.0,-272.0,-106.0,6.0,-24.0,29.0,-289.0,0.877672,0.479118,0.011252,13788.0,7682.0,220.0,-5.0,-3.0,0.0
2855.0,2782.0,2846.0,3099.0,2987.0,0.710693,0.316589,-0.627808,-0.023254,-1.0,-1.0,0.0,6910.0,3823.0,109.0,-279.0,-102.0,16.0,-36.0,31.0,-293.0,0.877633,0.479194,0.011255,13808.0,7652.0,292.0,-3.0,-8.0,5.0
2853.0,2782.0,2854.0,3095.0,2993.0,0.710693,0.316528,-0.627869,-0.023254,0.0,-1.0,0.0,6891.0,3822.0,151.0,-299.0,-102.0,59.0,-79.0,22.0,-310.0,0.877723,0.479111,0.011217,13720.0,7628.0,482.0,1.0,-14.0,17.0
2859.0,2779.0,2850.0,3093.0,2995.0,0.710693,0.316406,-0.627869,-0.023193,-1.0,-1.0,0.0,6878.0,3813.0,175.0,-312.0,-109.0,82.0,-100.0,12.0,-325.0,0.877767,0.47886,0.011291,13678.0,7582.0,462.0,-2.0,-16.0,20.0
2863.0,2781.0,2861.0,3099.0,2995.0,0.710693,0.316284,-0.627991,-0.023254,-1.0,-1.0,0.0,6858.0,3800.0,196.0,-333.0,-122.0,104.0,-119.0,2.0,-349.0,0.877908,0.478769,0.011218,13714.0,7570.0,428.0,-11.0,-19.0,6.0
2859.0,2783.0,2847.0,3093.0,2995.0,0.710693,0.316162,-0.627991,-0.023376,-1.0,-1.0,0.0,6864.0,3797.0,186.0,-327.0,-124.0,93.0,-107.0,2.0,-345.0,0.877836,0.478749,0.011301,13804.0,7578.0,266.0,-22.0,-15.0,6.0
2857.0,2783.0,2851.0,3103.0,2998.0,0.710754,0.315918,-0.628052,-0.023499,-2.0,-1.0,0.0,6896.0,3765.0,146.0,-296.0,-155.0,52.0,-53.0,-18.0,-333.0,0.877934,0.478597,0.011471,13910.0,7386.0,124.0,-28.0,-5.0,1.0
2855.0,2783.0,2847.0,3107.0,2995.0,0.710754,0.315796,-0.628113,-0.02356,-1.0,-1.0,0.0,6918.0,3748.0,111.0,-274.0,-171.0,17.0,-10.0,-25.0,-322.0,0.877988,0.478503,0.011474,13990.0,7416.0,0.0,-21.0,-9.0,0.0
2858.0,2785.0,2854.0,3095.0,3003.0,0.710693,0.315674,-0.628235,-0.023621,-1.0,-1.0,0.0,6959.0,3760.0,64.0,-234.0,-158.0,-28.0,33.0,-13.0,-281.0,0.878052,0.478373,0.011314,13970.0,7558.0,46.0,-14.0,-6.0,5.0
2854.0,2779.0,2853.0,3094.0,2994.0,0.710693,0.315613,-0.628296,-0.023682,-1.0,-1.0,0.0,6955.0,3766.0,60.0,-238.0,-152.0,-32.0,34.0,-5.0,-282.0,0.878103,0.478366,0.011279,13892.0,7562.0,90.0,-18.0,-6.0,8.0
2858.0,2783.0,2854.0,3103.0,2997.0,0.710693,0.315369,-0.628357,-0.023743,-1.0,-1.0,0.0,6943.0,3767.0,80.0,-250.0,-149.0,-13.0,13.0,-6.0,-290.0,0.878163,0.478099,0.011359,13864.0,7548.0,286.0,-17.0,-5.0,8.0
2855.0,2782.0,2847.0,3099.0,3003.0,0.710754,0.315308,-0.628357,-0.023804,-1.0,-1.0,0.0,6945.0,3765.0,101.0,-249.0,-151.0,6.0,-2.0,-16.0,-290.0,0.878204,0.478127,0.011487,13900.0,7508.0,318.0,-14.0,0.0,5.0
2851.0,2783.0,2858.0,3099.0,2994.0,0.710815,0.315186,-0.628357,-0.023804,-1.0,-1.0,0.0,6944.0,3749.0,131.0,-250.0,-166.0,35.0,-23.0,-39.0,-298.0,0.878286,0.477992,0.011651,13878.0,7398.0,440.0,-13.0,0.0,6.0
2851.0,2779.0,2823.0,3095.0,2991.0,0.710876,0.315063,-0.628357,-0.023743,-1.0,-1.0,0.0,6925.0,3723.0,155.0,-270.0,-190.0,58.0,-40.0,-60.0,-327.0,0.878407,0.47778,0.011812,13794.0,7406.0,418.0,-1.0,-6.0,9.0
2854.0,2783.0,2851.0,3095.0,2999.0,0.710876,0.315002,-0.628357,-0.023682,0.0,-1.0,0.0,6912.0,3730.0,158.0,-284.0,-182.0,60.0,-47.0,-48.0,-335.0,0.878449,0.477617,0.011847,13758.0,7524.0,302.0,3.0,-8.0,7.0
2859.0,2783.0,2851.0,3091.0,3003.0,0.710815,0.315002,-0.628418,-0.023743,-1.0,-1.0,0.0,6909.0,3767.0,143.0,-287.0,-145.0,47.0,-50.0,-12.0,-320.0,0.87842,0.477658,0.011687,13820.0,7652.0,200.0,-2.0,-8.0,5.0
2859.0,2783.0,2850.0,3102.0,2995.0,0.710815,0.314941,-0.628418,-0.023743,-1.0,-1.0,0.0,6907.0,3778.0,138.0,-289.0,-134.0,41.0,-49.0,0.0,-317.0,0.878423,0.477571,0.011725,13810.0,7578.0,260.0,-10.0,-4.0,6.0
2855.0,2787.0,2847.0,3095.0,2991.0,0.710938,0.314819,-0.628418,-0.023865,-1.0,-1.0,0.0,6903.0,3772.0,135.0,-293.0,-140.0,36.0,-43.0,-1.0,-323.0,0.878506,0.477628,0.011981,13780.0,7462.0,294.0,-19.0,-1.0,7.0
2854.0,2783.0,2847.0,3103.0,2999.0,0.710938,0.314697,-0.628418,-0.023865,-1.0,-1.0,0.0,6907.0,3752.0,136.0,-289.0,-159.0,37.0,-36.0,-18.0,-329.0,0.878511,0.477454,0.012058,13842.0,7388.0,234.0,-15.0,-4.0,7.0
2853.0,2783.0,2847.0,3094.0,2995.0,0.710938,0.314636,-0.628479,-0.023865,0.0,-1.0,-1.0,6934.0,3740.0,121.0,-263.0,-170.0,22.0,-13.0,-32.0,-311.0,0.878601,0.47737,0.01202,13972.0,7488.0,192.0,5.0,-7.0,-1.0
2859.0,2783.0,2851.0,3099.0,2997.0,0.710876,0.314636,-0.62854,-0.023804,0.0,-1.0,0.0,6954.0,3745.0,109.0,-243.0,-164.0,11.0,-1.0,-31.0,-291.0,0.87865,0.477258,0.011853,14022.0,7514.0,148.0,7.0,-4.0,5.0
2855.0,2782.0,2847.0,3095.0,2992.0,0.710876,0.314514,-0.628601,-0.023682,-1.0,-1.0,0.0,6965.0,3773.0,116.0,-234.0,-134.0,18.0,-16.0,-14.0,-269.0,0.878819,0.476934,0.011848,13884.0,7628.0,260.0,-6.0,-4.0,17.0
2859.0,2781.0,2851.0,3099.0,2992.0,0.710938,0.314453,-0.628601,-0.023682,-1.0,-1.0,0.0,6955.0,3776.0,124.0,-244.0,-130.0,25.0,-26.0,-9.0,-276.0,0.878899,0.476886,0.011973,13834.0,7560.0,300.0,-15.0,-2.0,14.0
2862.0,2783.0,2855.0,3091.0,2998.0,0.710999,0.31427,-0.628601,-0.023804,-1.0,-1.0,0.0,6921.0,3775.0,123.0,-279.0,-131.0,23.0,-31.0,5.0,-307.0,0.878907,0.476817,0.012181,13752.0,7554.0,216.0,-19.0,0.0,1.0
2854.0,2785.0,2847.0,3091.0,2995.0,0.71106,0.314209,-0.628601,-0.023865,-1.0,-1.0,0.0,6906.0,3772.0,119.0,-294.0,-134.0,18.0,-29.0,11.0,-322.0,0.878949,0.476845,0.012309,13738.0,7528.0,216.0,-15.0,-1.0,3.0
2859.0,2781.0,2852.0,3099.0,2993.0,0.71106,0.314087,-0.628601,-0.023926,-1.0,0.0,0.0,6907.0,3760.0,119.0,-293.0,-145.0,17.0,-24.0,2.0,-326.0,0.878916,0.476749,0.012388,13802.0,7498.0,284.0,-7.0,1.0,5.0
2855.0,2787.0,2855.0,3093.0,2993.0,0.711121,0.314026,-0.628601,-0.023926,-1.0,-1.0,0.0,6908.0,3749.0,119.0,-292.0,-156.0,16.0,-19.0,-6.0,-330.0,0.878996,0.4767,0.012513,13848.0,7410.0,224.0,-7.0,-2.0,4.0
2855.0,2783.0,2846.0,3103.0,2991.0,0.711121,0.313904,-0.628601,-0.023926,-1.0,-1.0,0.0,6928.0,3722.0,125.0,-272.0,-181.0,21.0,-10.0,-37.0,-325.0,0.879002,0.476526,0.01259,13940.0,7354.0,262.0,-9.0,-4.0,6.0
2858.0,2781.0,2847.0,3094.0,3027.0,0.711121,0.313782,-0.628662,-0.023926,-1.0,-1.0,0.0,6934.0,3710.0,129.0,-267.0,-192.0,25.0,-9.0,-49.0,-325.0,0.879094,0.476356,0.01259,13914.0,7350.0,292.0,-13.0,-2.0,6.0
2859.0,2783.0,2853.0,3099.0,2991.0,0.711243,0.313599,-0.628662,-0.023804,-1.0,0.0,0.0,6936.0,3695.0,128.0,-267.0,-204.0,22.0,-2.0,-58.0,-331.0,0.879333,0.476018,0.012873,13846.0,7364.0,240.0,-3.0,4.0,12.0
2855.0,2775.0,2854.0,3099.0,2989.0,0.711243,0.313538,-0.628662,-0.023743,0.0,0.0,0.0,6935.0,3691.0,124.0,-268.0,-207.0,18.0,2.0,-58.0,-333.0,0.879374,0.475855,0.012908,13874.0,7358.0,236.0,7.0,9.0,11.0
2859.0,2784.0,2847.0,3093.0,2995.0,0.711304,0.313599,-0.628601,-0.023499,0.0,0.0,0.0,6935.0,3713.0,125.0,-269.0,-183.0,18.0,-6.0,-39.0,-323.0,0.879514,0.47567,0.013022,13884.0,7498.0,226.0,13.0,11.0,12.0
2862.0,2779.0,2847.0,3099.0,2994.0,0.711304,0.313599,-0.628601,-0.023438,0.0,0.0,0.0,6926.0,3729.0,120.0,-279.0,-167.0,13.0,-9.0,-20.0,-324.0,0.879553,0.475593,0.013019,13806.0,7570.0,178.0,7.0,6.0,12.0
2847.0,2779.0,2847.0,3095.0,3003.0,0.711365,0.313477,-0.628601,-0.023315,-1.0,0.0,0.0,6921.0,3730.0,117.0,-285.0,-163.0,9.0,-8.0,-12.0,-328.0,0.879712,0.475305,0.013177,13812.0,7418.0,188.0,-1.0,6.0,13.0
2851.0,2781.0,2853.0,3091.0,2995.0,0.711365,0.313477,-0.628601,-0.023254,0.0,0.0,0.0,6912.0,3729.0,128.0,-294.0,-164.0,20.0,-20.0,-14.0,-336.0,0.87975,0.475228,0.013174,13774.0,7480.0,354.0,6.0,4.0,9.0
2854.0,2778.0,2851.0,3095.0,3011.0,0.711487,0.313416,-0.62854,-0.023193,-1.0,0.0,0.0,6917.0,3757.0,145.0,-290.0,-135.0,34.0,-42.0,1.0,-318.0,0.879858,0.475138,0.01346,13834.0,7584.0,252.0,-9.0,6.0,6.0
2861.0,2783.0,2845.0,3099.0,2991.0,0.711487,0.313354,-0.628479,-0.023254,-1.0,0.0,0.0,6917.0,3763.0,143.0,-289.0,-129.0,31.0,-42.0,6.0,-315.0,0.879735,0.475125,0.013577,13858.0,7562.0,298.0,-8.0,3.0,6.0
2859.0,2779.0,2851.0,3099.0,2995.0,0.711548,0.313293,-0.628479,-0.023254,-1.0,0.0,0.0,6945.0,3784.0,149.0,-262.0,-107.0,36.0,-48.0,10.0,-280.0,0.879815,0.475076,0.013702,13968.0,7678.0,316.0,-9.0,4.0,4.0
2855.0,2781.0,2859.0,3103.0,2999.0,0.711609,0.313232,-0.628418,-0.023315,-1.0,0.0,0.0,6958.0,3792.0,147.0,-249.0,-100.0,33.0,-45.0,12.0,-266.0,0.879769,0.475102,0.013907,13996.0,7606.0,234.0,-11.0,3.0,3.0
2851.0,2785.0,2859.0,3103.0,3007.0,0.71167,0.31311,-0.628418,-0.023438,-1.0,-1.0,0.0,6967.0,3804.0,127.0,-240.0,-88.0,11.0,-28.0,27.0,-252.0,0.879775,0.47512,0.014076,13940.0,7678.0,230.0,-20.0,-2.0,2.0
2854.0,2778.0,2845.0,3095.0,2995.0,0.71167,0.313049,-0.628418,-0.023499,-2.0,-1.0,0.0,6970.0,3808.0,126.0,-236.0,-84.0,10.0,-28.0,29.0,-247.0,0.87974,0.475109,0.014117,13954.0,7628.0,266.0,-25.0,-2.0,0.0
2858.0,2781.0,2847.0,3099.0,2992.0,0.711853,0.312805,-0.628357,-0.023743,-2.0,0.0,-1.0,6957.0,3809.0,148.0,-249.0,-83.0,28.0,-47.0,28.0,-258.0,0.879742,0.47518,0.014619,13824.0,7592.0,390.0,-36.0,10.0,-2.0
2838.0,2783.0,2853.0,3103.0,2999.0,0.711975,0.312683,-0.628235,-0.023926,-2.0,0.0,-1.0,6938.0,3806.0,166.0,-267.0,-87.0,42.0,-62.0,26.0,-275.0,0.879613,0.475307,0.015031,13762.0,7592.0,468.0,-45.0,13.0,-7.0
2859.0,2782.0,2855.0,3095.0,2994.0,0.712341,0.312378,-0.627991,-0.024414,-3.0,0.0,-1.0,6921.0,3792.0,205.0,-283.0,-104.0,73.0,-88.0,7.0,-297.0,0.879435,0.475703,0.016074,13804.0,7508.0,476.0,-66.0,11.0,-19.0
2861.0,2781.0,2851.0,3099.0,2999.0,0.712524,0.312134,-0.627869,-0.024719,-4.0,0.0,-1.0,6919.0,3769.0,206.0,-284.0,-129.0,69.0,-76.0,-10.0,-309.0,0.879312,0.475847,0.016656,13834.0,7416.0,378.0,-71.0,11.0,-18.0
2861.0,2781.0,2847.0,3095.0,2995.0,0.712891,0.311646,-0.627686,-0.025269,-4.0,0.0,-1.0,6902.0,3739.0,198.0,-300.0,-160.0,52.0,-53.0,-21.0,-339.0,0.879193,0.47606,0.017739,13758.0,7434.0,358.0,-72.0,9.0,-19.0
2855.0,2783.0,2855.0,3099.0,2991.0,0.713013,0.311462,-0.627625,-0.025574,-4.0,0.0,-1.0,6899.0,3726.0,200.0,-302.0,-175.0,51.0,-48.0,-32.0,-347.0,0.879078,0.476255,0.01812,13776.0,7384.0,424.0,-70.0,5.0,-21.0
2857.0,2786.0,2854.0,3094.0,2991.0,0.713257,0.311096,-0.627502,-0.026062,-3.0,-1.0,-1.0,6911.0,3703.0,196.0,-289.0,-200.0,41.0,-27.0,-54.0,-348.0,0.878925,0.476491,0.018874,13828.0,7368.0,390.0,-50.0,-5.0,-22.0
2855.0,2781.0,2851.0,3099.0,2995.0,0.713318,0.310974,-0.627502,-0.026245,-2.0,-1.0,-1.0,6919.0,3699.0,196.0,-280.0,-205.0,39.0,-22.0,-61.0,-343.0,0.878894,0.476585,0.019047,13888.0,7376.0,424.0,-39.0,-3.0,-16.0
2855.0,2783.0,2852.0,3095.0,2995.0,0.71344,0.310791,-0.627441,-0.026367,-1.0,0.0,-1.0,6915.0,3686.0,208.0,-284.0,-217.0,48.0,-27.0,-73.0,-352.0,0.878894,0.476549,0.019418,13770.0,7342.0,468.0,-10.0,5.0,-4.0
2859.0,2785.0,2847.0,3094.0,2991.0,0.713501,0.310791,-0.62738,-0.026428,-1.0,0.0,-1.0,6902.0,3683.0,215.0,-297.0,-221.0,54.0,-34.0,-73.0,-365.0,0.878846,0.47666,0.019585,13740.0,7352.0,454.0,-2.0,1.0,-2.0
2858.0,2787.0,2863.0,3103.0,2992.0,0.713501,0.310791,-0.62738,-0.026428,0.0,-1.0,-1.0,6882.0,3698.0,215.0,-317.0,-206.0,54.0,-43.0,-52.0,-375.0,0.878846,0.47666,0.019585,13730.0,7404.0,416.0,3.0,-12.0,-8.0
2857.0,2781.0,2851.0,3099.0,2994.0,0.71344,0.310852,-0.627441,-0.026489,0.0,-1.0,-1.0,6878.0,3707.0,211.0,-321.0,-198.0,52.0,-45.0,-43.0,-375.0,0.878815,0.476789,0.019387,13740.0,7516.0,360.0,4.0,-14.0,-14.0
2855.0,2783.0,2851.0,3095.0,2997.0,0.713379,0.310974,-0.627441,-0.026733,-1.0,-1.0,-1.0,6889.0,3725.0,214.0,-308.0,-184.0,56.0,-51.0,-39.0,-357.0,0.87858,0.477232,0.019237,13844.0,7466.0,430.0,-2.0,-17.0,-21.0
2855.0,2787.0,2850.0,3093.0,3003.0,0.713318,0.311035,-0.627441,-0.026794,0.0,-1.0,-1.0,6890.0,3732.0,201.0,-306.0,-178.0,44.0,-42.0,-30.0,-352.0,0.878462,0.477358,0.019115,13792.0,7550.0,292.0,2.0,-20.0,-19.0
2857.0,2783.0,2851.0,3094.0,2995.0,0.713135,0.311096,-0.627625,-0.026917,0.0,-2.0,0.0,6902.0,3742.0,168.0,-293.0,-169.0,15.0,-15.0,-16.0,-337.0,0.878414,0.477494,0.018592,13826.0,7522.0,268.0,2.0,-24.0,3.0
2861.0,2783.0,2847.0,3095.0,2993.0,0.713074,0.311035,-0.627747,-0.026917,0.0,-2.0,0.0,6901.0,3743.0,164.0,-295.0,-167.0,13.0,-15.0,-13.0,-338.0,0.878515,0.477375,0.01839,13788.0,7496.0,316.0,7.0,-26.0,12.0
2855.0,2781.0,2847.0,3101.0,3003.0,0.71283,0.311096,-0.627991,-0.026855,0.0,-2.0,0.0,6886.0,3765.0,180.0,-311.0,-144.0,35.0,-46.0,3.0,-341.0,0.878591,0.477247,0.017694,13768.0,7600.0,412.0,17.0,-34.0,4.0
2858.0,2783.0,2851.0,3095.0,3003.0,0.712708,0.311218,-0.628052,-0.026855,1.0,-2.0,0.0,6887.0,3769.0,185.0,-309.0,-141.0,42.0,-53.0,1.0,-338.0,0.878519,0.477348,0.017367,13802.0,7554.0,414.0,24.0,-35.0,2.0
2859.0,2783.0,2851.0,3091.0,2999.0,0.712402,0.31134,-0.628357,-0.026794,1.0,-2.0,0.0,6878.0,3774.0,185.0,-319.0,-135.0,50.0,-64.0,7.0,-343.0,0.878602,0.477272,0.01647,13734.0,7560.0,408.0,25.0,-39.0,4.0
2854.0,2781.0,2845.0,3095.0,2995.0,0.71228,0.311401,-0.628479,-0.026794,0.0,-2.0,0.0,6873.0,3768.0,190.0,-324.0,-141.0,58.0,-70.0,1.0,-351.0,0.878619,0.47729,0.016104,13702.0,7478.0,390.0,18.0,-40.0,1.0
2859.0,2781.0,2851.0,3101.0,2995.0,0.712036,0.311462,-0.628662,-0.026917,0.0,-2.0,-1.0,6855.0,3725.0,213.0,-341.0,-185.0,86.0,-84.0,-37.0,-386.0,0.878493,0.477388,0.015495,13676.0,7244.0,566.0,2.0,-34.0,-5.0
2855.0,2783.0,2855.0,3095.0,3002.0,0.711975,0.311462,-0.628784,-0.026917,0.0,-2.0,-1.0,6847.0,3674.0,224.0,-350.0,-236.0,99.0,-79.0,-79.0,-418.0,0.87859,0.477356,0.015255,13628.0,7048.0,498.0,8.0,-28.0,-3.0
2859.0,2783.0,2851.0,3091.0,2999.0,0.711792,0.311584,-0.628906,-0.026794,1.0,-2.0,-1.0,6811.0,3592.0,220.0,-386.0,-317.0,99.0,-58.0,-129.0,-488.0,0.878603,0.477269,0.014758,13538.0,6946.0,440.0,39.0,-29.0,-13.0
2855.0,2781.0,2855.0,3099.0,2994.0,0.71167,0.311707,-0.629028,-0.026672,2.0,-2.0,-1.0,6803.0,3562.0,220.0,-395.0,-347.0,102.0,-51.0,-151.0,-511.0,0.878693,0.47722,0.014348,13522.0,6948.0,462.0,49.0,-30.0,-17.0
2859.0,2769.0,2849.0,3103.0,3001.0,0.711365,0.312134,-0.62915,-0.02655,2.0,-2.0,-2.0,6768.0,3536.0,252.0,-428.0,-375.0,141.0,-83.0,-175.0,-553.0,0.878536,0.47749,0.013487,13388.0,7008.0,656.0,48.0,-33.0,-31.0
2859.0,2783.0,2851.0,3103.0,2991.0,0.711243,0.312317,-0.62915,-0.02655,1.0,-2.0,-2.0,6742.0,3512.0,283.0,-453.0,-401.0,174.0,-109.0,-198.0,-587.0,0.878373,0.477674,0.013199,13288.0,6858.0,768.0,41.0,-38.0,-39.0
2857.0,2785.0,2854.0,3095.0,2999.0,0.710938,0.312622,-0.629333,-0.026489,2.0,-3.0,-2.0,6659.0,3369.0,387.0,-535.0,-545.0,285.0,-176.0,-324.0,-726.0,0.878271,0.477851,0.012341,12998.0,6178.0,1230.0,59.0,-61.0,-27.0
2855.0,2785.0,2853.0,3099.0,2999.0,0.710815,0.312805,-0.629456,-0.026306,4.0,-3.0,-2.0,6580.0,3270.0,489.0,-615.0,-644.0,391.0,-253.0,-412.0,-843.0,0.878396,0.477811,0.011889,12634.0,5892.0,1692.0,94.0,-66.0,-25.0
2858.0,2779.0,2853.0,3097.0,2995.0,0.710449,0.313538,-0.629517,-0.025391,8.0,-4.0,-2.0,6297.0,2860.0,846.0,-900.0,-1051.0,757.0,-497.0,-768.0,-1284.0,0.878557,0.477473,0.010786,11546.0,4004.0,3050.0,198.0,-79.0,-34.0
2859.0,2783.0,2851.0,3094.0,2995.0,0.710266,0.314026,-0.629517,-0.024414,11.0,-4.0,-2.0,6081.0,2476.0,1089.0,-1119.0,-1430.0,1005.0,-629.0,-1082.0,-1655.0,0.878915,0.476822,0.010171,10636.0,2422.0,3620.0,268.0,-78.0,-30.0
2855.0,2783.0,2851.0,3099.0,2995.0,0.709045,0.315796,-0.630127,-0.021301,24.0,-13.0,-4.0,5206.0,1330.0,1514.0,-2003.0,-2558.0,1461.0,-794.0,-1802.0,-2967.0,0.880124,0.474672,0.006412,6922.0,-916.0,4120.0,554.0,-297.0,-71.0
2857.0,2779.0,2847.0,3095.0,2995.0,0.706665,0.317993,-0.631714,-0.019897,32.0,-29.0,-9.0,4477.0,852.0,1675.0,-2733.0,-3035.0,1678.0,-934.0,-1955.0,-3846.0,0.880166,0.474568,-0.000411,4294.0,-878.0,4260.0,740.0,-660.0,-206.0
2858.0,2781.0,2847.0,3095.0,2992.0,0.696228,0.326233,-0.638977,-0.022644,34.0,-80.0,-35.0,3022.0,480.0,2134.0,-4145.0,-3478.0,2375.0,-1563.0,-1885.0,-5377.0,0.874973,0.483203,-0.029473,2228.0,534.0,5806.0,794.0,-1819.0,-794.0
2859.0,2783.0,2849.0,3095.0,2994.0,0.678467,0.337219,-0.651672,-0.035706,23.0,-126.0,-61.0,2212.0,401.0,2573.0,-4834.0,-3728.0,3202.0,-2166.0,-1827.0,-6283.0,0.860195,0.504121,-0.076802,2794.0,386.0,6042.0,531.0,-2876.0,-1393.0
2859.0,2783.0,2851.0,3095.0,2994.0,0.66748,0.342834,-0.659485,-0.045166,18.0,-141.0,-69.0,2055.0,214.0,2645.0,-4903.0,-4023.0,3504.0,-2235.0,-1943.0,-6613.0,0.849418,0.517243,-0.104886,3376.0,-954.0,5586.0,417.0,-3222.0,-1569.0
2859.0,2781.0,2855.0,3093.0,2993.0,0.641663,0.355225,-0.676697,-0.064636,34.0,-155.0,-78.0,1965.0,-426.0,2365.0,-4772.0,-4877.0,3742.0,-1843.0,-2294.0,-7204.0,0.822501,0.543347,-0.168194,3616.0,-2816.0,3226.0,790.0,-3542.0,-1769.0
2859.0,2781.0,2853.0,3099.0,2995.0,0.609253,0.37439,-0.694397,-0.080566,74.0,-163.0,-91.0,1742.0,-477.0,1643.0,-4695.0,-5130.0,3647.0,-1248.0,-1979.0,-7495.0,0.7858,0.568086,-0.244675,2722.0,364.0,856.0,1700.0,-3712.0,-2078.0
2855.0,2783.0,2849.0,3099.0,2995.0,0.590576,0.387024,-0.702576,-0.088196,85.0,-166.0,-102.0,1644.0,47.0,1172.0,-4594.0,-4713.0,3521.0,-1077.0,-1423.0,-7247.0,0.761581,0.581063,-0.286841,2778.0,3854.0,-610.0,1962.0,-3786.0,-2320.0
2855.0,2783.0,2853.0,3095.0,2997.0,0.551086,0.415833,-0.715393,-0.10791,74.0,-164.0,-130.0,1400.0,2133.0,-100.0,-4324.0,-2886.0,2925.0,-992.0,377.0,-5870.0,0.698742,0.612716,-0.369363,1358.0,12484.0,-5510.0,1700.0,-3749.0,-2969.0
2859.0,2783.0,2850.0,3095.0,2998.0,0.510254,0.446228,-0.721313,-0.142212,15.0,-171.0,-169.0,1044.0,5416.0,-2706.0,-3946.0,4.0,888.0,-448.0,2892.0,-2790.0,0.609188,0.660538,-0.438829,2266.0,20720.0,-13558.0,362.0,-3905.0,-3863.0
2853.0,2783.0,2847.0,3103.0,2991.0,0.491028,0.459534,-0.721252,-0.165833,-24.0,-170.0,-182.0,1253.0,6923.0,-4099.0,-3300.0,1266.0,-308.0,-53.0,3451.0,-817.0,0.555899,0.690502,-0.462768,4050.0,22534.0,-16750.0,-540.0,-3882.0,-4155.0
2859.0,2783.0,2855.0,3103.0,2991.0,0.456665,0.47876,-0.717896,-0.216431,-66.0,-169.0,-155.0,4510.0,5465.0,-7974.0,836.0,-662.0,-3966.0,3642.0,-534.0,1819.0,0.448439,0.748015,-0.4892,32767.0,-18032.0,-32768.0,-1511.0,-3850.0,-3541.0
2861.0,2785.0,2854.0,3095.0,2991.0,0.412415,0.498596,-0.744751,-0.163269,448.0,48.0,101.0,8578.0,4982.0,-11844.0,4879.0,-379.0,-6875.0,4779.0,-3295.0,6124.0,0.451482,0.654446,-0.60651,26660.0,32767.0,-32768.0,10278.0,1108.0,2321.0
2855.0,2779.0,2847.0,3095.0,2983.0,0.394714,0.513123,-0.754089,-0.110657,440.0,105.0,93.0,7529.0,8006.0,-13048.0,3582.0,3320.0,-7609.0,2534.0,217.0,8676.0,0.481739,0.571964,-0.663901,5060.0,32767.0,-32768.0,10088.0,2407.0,2145.0
2855.0,2773.0,2847.0,3095.0,2992.0,0.363281,0.535156,-0.759827,-0.066101,126.0,-31.0,5.0,4969.0,11860.0,-13895.0,1026.0,7851.0,-7936.0,-1232.0,4690.0,10107.0,0.481313,0.489275,-0.727386,9256.0,32767.0,-23138.0,2899.0,-693.0,134.0
2859.0,2779.0,2853.0,3095.0,2993.0,0.367859,0.535034,-0.755127,-0.090637,-161.0,-25.0,-43.0,5969.0,13229.0,-10890.0,2212.0,8882.0,-5049.0,-3636.0,3012.0,9326.0,0.458572,0.530519,-0.712943,14466.0,24648.0,-15212.0,-3668.0,-564.0,-977.0
2859.0,2786.0,2851.0,3099.0,2993.0,0.382507,0.530212,-0.748047,-0.114075,-228.0,7.0,-62.0,6319.0,11679.0,-9874.0,2621.0,6958.0,-4292.0,-2317.0,1565.0,8117.0,0.451299,0.576287,-0.681374,13982.0,12000.0,-14562.0,-5211.0,164.0,-1412.0
2859.0,2781.0,2853.0,3095.0,2999.0,0.413635,0.517639,-0.731689,-0.159973,-253.0,11.0,-59.0,5513.0,5715.0,-9738.0,1911.0,289.0,-4768.0,3262.0,-655.0,3924.0,0.439688,0.662329,-0.606634,7702.0,-9272.0,-18124.0,-5774.0,259.0,-1350.0
2859.0,2785.0,2847.0,3094.0,2999.0,0.433716,0.504028,-0.721558,-0.193054,-165.0,-2.0,-32.0,4267.0,1271.0,-7834.0,733.0,-4592.0,-3334.0,5221.0,-2043.0,-1139.0,0.431292,0.71581,-0.549311,5064.0,-5298.0,-8000.0,-3775.0,-42.0,-720.0
2851.0,2783.0,2847.0,3093.0,2991.0,0.440002,0.499084,-0.718079,-0.204285,-118.0,-4.0,-25.0,3833.0,610.0,-6421.0,326.0,-5391.0,-2084.0,4599.0,-2244.0,-2706.0,0.428002,0.732582,-0.529388,5346.0,-1534.0,-4238.0,-2689.0,-88.0,-560.0
2851.0,2783.0,2853.0,3094.0,3007.0,0.446533,0.495667,-0.71344,-0.214294,-25.0,4.0,-14.0,3127.0,1214.0,-4268.0,-352.0,-4917.0,-95.0,2655.0,-1719.0,-3781.0,0.424712,0.748435,-0.509368,4062.0,6452.0,-3664.0,-558.0,101.0,-319.0
2855.0,2781.0,2848.0,3095.0,2989.0,0.446167,0.497681,-0.712524,-0.213318,26.0,3.0,0.0,2512.0,2930.0,-3225.0,-957.0,-3198.0,959.0,947.0,-596.0,-3287.0,0.423481,0.748086,-0.510808,3554.0,11378.0,-4140.0,606.0,91.0,8.0
2858.0,2789.0,2857.0,3099.0,2999.0,0.444641,0.499451,-0.713135,-0.210449,38.0,3.0,5.0,2323.0,3765.0,-3004.0,-1150.0,-2332.0,1223.0,313.0,-103.0,-2854.0,0.42396,0.74431,-0.516018,3592.0,12278.0,-5008.0,876.0,81.0,136.0
2858.0,2783.0,2851.0,3095.0,2995.0,0.43988,0.50293,-0.715942,-0.202454,49.0,0.0,12.0,2071.0,4835.0,-3258.0,-1420.0,-1164.0,1092.0,-127.0,629.0,-2037.0,0.426218,0.732348,-0.53103,3500.0,12392.0,-8408.0,1133.0,5.0,277.0
2855.0,2781.0,2847.0,3101.0,2991.0,0.436279,0.504761,-0.717957,-0.198364,48.0,-8.0,11.0,2049.0,5218.0,-3709.0,-1442.0,-723.0,719.0,-37.0,885.0,-1527.0,0.426206,0.725267,-0.540557,4184.0,12560.0,-10354.0,1114.0,-161.0,253.0
2855.0,2782.0,2851.0,3095.0,2991.0,0.427734,0.507812,-0.722961,-0.190979,45.0,-14.0,10.0,2556.0,5649.0,-4600.0,-921.0,-171.0,-3.0,209.0,756.0,-510.0,0.424508,0.710559,-0.561117,7170.0,12522.0,-11528.0,1046.0,-317.0,240.0
2854.0,2779.0,2853.0,3095.0,2995.0,0.424072,0.50885,-0.725342,-0.187378,40.0,-11.0,11.0,2913.0,5866.0,-4891.0,-564.0,103.0,-220.0,186.0,583.0,-41.0,0.4245,0.703405,-0.570101,7938.0,13040.0,-11292.0,937.0,-251.0,256.0
2855.0,2782.0,2855.0,3099.0,2995.0,0.419739,0.510071,-0.728455,-0.181641,23.0,-3.0,8.0,3335.0,6370.0,-5087.0,-156.0,694.0,-322.0,-133.0,479.0,601.0,0.426222,0.692827,-0.581644,7424.0,14276.0,-10328.0,531.0,-55.0,194.0
2859.0,2782.0,2851.0,3095.0,3003.0,0.419067,0.510254,-0.729004,-0.180481,10.0,-1.0,5.0,3399.0,6606.0,-5091.0,-97.0,946.0,-310.0,-301.0,529.0,793.0,0.426821,0.690804,-0.583615,7100.0,14550.0,-10174.0,245.0,0.0,116.0
2854.0,2779.0,2846.0,3093.0,2998.0,0.420166,0.509888,-0.728271,-0.181885,-14.0,2.0,-2.0,3450.0,6825.0,-5052.0,-43.0,1144.0,-294.0,-434.0,560.0,945.0,0.426508,0.693398,-0.580743,6970.0,13802.0,-9990.0,-305.0,55.0,-42.0
2858.0,2785.0,2853.0,3101.0,2999.0,0.421509,0.509399,-0.727356,-0.183838,-21.0,3.0,-5.0,3451.0,6747.0,-5036.0,-37.0,1038.0,-308.0,-357.0,512.0,885.0,0.42588,0.696864,-0.577068,6892.0,12840.0,-9952.0,-460.0,75.0,-94.0
2852.0,2779.0,2851.0,3101.0,2993.0,0.424622,0.508301,-0.725281,-0.187866,-21.0,4.0,-6.0,3443.0,6273.0,-4929.0,-38.0,504.0,-269.0,-69.0,284.0,491.0,0.424955,0.704182,-0.568805,6798.0,10738.0,-9452.0,-470.0,96.0,-119.0
2855.0,2783.0,2855.0,3093.0,2999.0,0.425842,0.507935,-0.724487,-0.189209,-16.0,4.0,-5.0,3417.0,5947.0,-4847.0,-63.0,157.0,-212.0,88.0,154.0,204.0,0.424823,0.706759,-0.565738,6634.0,9916.0,-9184.0,-357.0,94.0,-100.0
2851.0,2779.0,2849.0,3095.0,2993.0,0.42688,0.507812,-0.723694,-0.190063,-3.0,1.0,-2.0,3275.0,5429.0,-4687.0,-205.0,-376.0,-72.0,298.0,40.0,-312.0,0.424827,0.708645,-0.563256,6074.0,9726.0,-8946.0,-62.0,42.0,-39.0
2861.0,2785.0,2849.0,3095.0,2999.0,0.426697,0.507996,-0.723755,-0.189941,1.0,0.0,-1.0,3208.0,5326.0,-4638.0,-270.0,-477.0,-19.0,321.0,48.0,-441.0,0.424669,0.708462,-0.563733,6062.0,10200.0,-9010.0,43.0,3.0,-19.0
2850.0,2783.0,2847.0,3095.0,2990.0,0.425476,0.508606,-0.724243,-0.189087,6.0,-3.0,0.0,3137.0,5370.0,-4643.0,-336.0,-419.0,-2.0,283.0,129.0,-437.0,0.423955,0.706689,-0.566424,6106.0,11234.0,-9506.0,157.0,-48.0,10.0
2857.0,2779.0,2847.0,3091.0,2999.0,0.424683,0.508911,-0.724609,-0.18866,7.0,-3.0,1.0,3133.0,5499.0,-4689.0,-335.0,-281.0,-35.0,231.0,190.0,-320.0,0.423436,0.705661,-0.568101,6296.0,11844.0,-9610.0,164.0,-64.0,28.0
2857.0,2779.0,2854.0,3099.0,2991.0,0.423523,0.509216,-0.72522,-0.188171,3.0,-2.0,1.0,3175.0,5838.0,-4737.0,-287.0,68.0,-63.0,46.0,295.0,-37.0,0.422655,0.704261,-0.570465,6520.0,12714.0,-9532.0,77.0,-40.0,39.0
2853.0,2783.0,2851.0,3103.0,2983.0,0.423401,0.509155,-0.725281,-0.188293,-1.0,-1.0,1.0,3204.0,5983.0,-4741.0,-256.0,213.0,-67.0,-37.0,327.0,80.0,0.422428,0.704285,-0.570549,6588.0,12766.0,-9486.0,-8.0,-12.0,37.0
2854.0,2783.0,2847.0,3093.0,2999.0,0.424316,0.508545,-0.724915,-0.189148,-7.0,2.0,1.0,3245.0,6043.0,-4682.0,-218.0,261.0,-26.0,-102.0,307.0,106.0,0.422806,0.7058,-0.568298,6504.0,11892.0,-9186.0,-155.0,56.0,31.0
2853.0,2779.0,2850.0,3093.0,2986.0,0.425049,0.508179,-0.724609,-0.189697,-8.0,3.0,1.0,3228.0,5975.0,-4642.0,-238.0,183.0,0.0,-76.0,288.0,28.0,0.423189,0.706914,-0.566653,6302.0,11492.0,-9026.0,-173.0,72.0,24.0
2853.0,2777.0,2847.0,3095.0,2999.0,0.426025,0.507751,-0.724121,-0.190491,-4.0,1.0,-1.0,3142.0,5787.0,-4587.0,-327.0,-17.0,36.0,20.0,280.0,-170.0,0.423544,0.708507,-0.564379,6046.0,11070.0,-9052.0,-79.0,34.0,-2.0
2857.0,2779.0,2850.0,3099.0,3005.0,0.426025,0.507812,-0.72406,-0.190613,-1.0,0.0,-1.0,3129.0,5728.0,-4569.0,-339.0,-77.0,53.0,42.0,264.0,-227.0,0.423345,0.708712,-0.564306,6224.0,11148.0,-9060.0,-2.0,2.0,-9.0
2859.0,2787.0,2855.0,3103.0,2991.0,0.425415,0.508301,-0.724182,-0.190308,4.0,-1.0,-1.0,3147.0,5750.0,-4563.0,-315.0,-50.0,70.0,10.0,251.0,-208.0,0.422689,0.708112,-0.565615,6378.0,11750.0,-9216.0,103.0,-13.0,-4.0
2855.0,2783.0,2847.0,3095.0,2995.0,0.425049,0.508606,-0.724243,-0.190002,4.0,-1.0,-1.0,3167.0,5811.0,-4584.0,-293.0,14.0,56.0,-17.0,260.0,-145.0,0.422405,0.707581,-0.566441,6448.0,12008.0,-9310.0,101.0,0.0,-7.0
2854.0,2779.0,2850.0,3095.0,2999.0,0.424927,0.509033,-0.724121,-0.189697,0.0,2.0,-1.0,3228.0,5890.0,-4621.0,-231.0,95.0,23.0,-45.0,242.0,-43.0,0.422272,0.707331,-0.566918,6538.0,11898.0,-9382.0,15.0,53.0,-7.0
2859.0,2785.0,2854.0,3095.0,2995.0,0.425171,0.509155,-0.723938,-0.189636,-2.0,3.0,-1.0,3231.0,5867.0,-4654.0,-230.0,70.0,-12.0,-3.0,237.0,-40.0,0.422486,0.707526,-0.566593,6474.0,11532.0,-9512.0,-26.0,70.0,-3.0
2855.0,2783.0,2855.0,3103.0,3001.0,0.42572,0.509216,-0.723572,-0.189575,-2.0,2.0,0.0,3198.0,5745.0,-4725.0,-267.0,-54.0,-90.0,135.0,232.0,-100.0,0.423009,0.70791,-0.565681,6172.0,11066.0,-9740.0,-35.0,63.0,7.0
2858.0,2783.0,2847.0,3099.0,2999.0,0.425659,0.509277,-0.723572,-0.189514,0.0,1.0,0.0,3135.0,5684.0,-4795.0,-329.0,-114.0,-159.0,233.0,274.0,-129.0,0.422959,0.707811,-0.565818,5858.0,11066.0,-10072.0,2.0,31.0,10.0
2859.0,2783.0,2850.0,3091.0,3007.0,0.424744,0.509583,-0.723938,-0.189331,2.0,-3.0,0.0,3106.0,5687.0,-4838.0,-351.0,-104.0,-188.0,253.0,302.0,-114.0,0.422017,0.707012,-0.567507,6378.0,11588.0,-9552.0,62.0,-49.0,15.0
2859.0,2783.0,2855.0,3099.0,3007.0,0.424316,0.509644,-0.724121,-0.18927,2.0,-3.0,0.0,3148.0,5737.0,-4801.0,-305.0,-51.0,-146.0,184.0,276.0,-81.0,0.421592,0.706609,-0.56822,6560.0,11796.0,-9402.0,54.0,-52.0,16.0
2859.0,2787.0,2853.0,3102.0,2991.0,0.42395,0.509521,-0.724426,-0.189392,-1.0,-2.0,1.0,3257.0,5792.0,-4721.0,-193.0,4.0,-61.0,70.0,184.0,-43.0,0.421243,0.706425,-0.568802,6866.0,11616.0,-9148.0,-9.0,-31.0,23.0
2853.0,2783.0,2847.0,3091.0,2991.0,0.424011,0.509338,-0.724487,-0.189453,-2.0,-1.0,1.0,3289.0,5802.0,-4687.0,-163.0,14.0,-28.0,34.0,156.0,-42.0,0.42139,0.706443,-0.568629,6752.0,11644.0,-9176.0,-27.0,-8.0,30.0
2855.0,2781.0,2851.0,3103.0,2993.0,0.424316,0.508972,-0.724487,-0.189697,-2.0,0.0,1.0,3278.0,5811.0,-4648.0,-176.0,20.0,4.0,6.0,165.0,-62.0,0.421722,0.706797,-0.567905,6456.0,11588.0,-9220.0,-43.0,12.0,35.0
2855.0,2782.0,2855.0,3103.0,2994.0,0.424438,0.50885,-0.724548,-0.189819,-2.0,0.0,1.0,3241.0,5807.0,-4649.0,-214.0,15.0,1.0,16.0,198.0,-80.0,0.421873,0.707018,-0.567719,6224.0,11604.0,-9358.0,-31.0,6.0,36.0
2863.0,2783.0,2847.0,3095.0,2995.0,0.424255,0.508667,-0.72467,-0.190125,0.0,-2.0,1.0,3167.0,5869.0,-4639.0,-285.0,75.0,12.0,-17.0,284.0,-73.0,0.42147,0.707165,-0.567749,6208.0,12016.0,-9154.0,2.0,-24.0,24.0
2851.0,2782.0,2853.0,3095.0,2994.0,0.424072,0.508667,-0.72467,-0.190308,0.0,-2.0,0.0,3157.0,5916.0,-4615.0,-291.0,122.0,36.0,-63.0,305.0,-56.0,0.421019,0.707244,-0.567835,6284.0,12112.0,-9092.0,1.0,-25.0,11.0
2861.0,2783.0,2850.0,3095.0,2999.0,0.42395,0.508667,-0.72467,-0.190735,-1.0,-1.0,-1.0,3171.0,5921.0,-4590.0,-272.0,123.0,61.0,-86.0,285.0,-61.0,0.420407,0.707739,-0.567776,6392.0,11712.0,-9100.0,-14.0,-11.0,-2.0
2855.0,2781.0,2855.0,3103.0,2994.0,0.424011,0.508667,-0.724609,-0.190918,-1.0,0.0,0.0,3179.0,5877.0,-4570.0,-263.0,76.0,79.0,-75.0,255.0,-101.0,0.420258,0.708043,-0.567566,6414.0,11446.0,-9040.0,-14.0,3.0,0.0
2861.0,2786.0,2855.0,3099.0,2983.0,0.42395,0.508728,-0.724548,-0.190918,0.0,0.0,0.0,3184.0,5750.0,-4578.0,-257.0,-50.0,71.0,2.0,199.0,-183.0,0.420094,0.708009,-0.567591,6374.0,11182.0,-9282.0,13.0,11.0,10.0
2859.0,2783.0,2851.0,3095.0,2995.0,0.423889,0.508789,-0.724609,-0.190796,1.0,0.0,0.0,3188.0,5718.0,-4619.0,-253.0,-80.0,32.0,51.0,189.0,-181.0,0.420158,0.707845,-0.56784,6396.0,11264.0,-9492.0,27.0,10.0,16.0
2855.0,2783.0,2851.0,3099.0,2991.0,0.423523,0.50885,-0.724854,-0.19043,1.0,-1.0,1.0,3206.0,5721.0,-4707.0,-236.0,-71.0,-48.0,108.0,190.0,-122.0,0.420184,0.707087,-0.568706,6480.0,11580.0,-9688.0,32.0,0.0,24.0
2857.0,2783.0,2849.0,3099.0,2992.0,0.42334,0.508911,-0.724976,-0.190308,1.0,-1.0,1.0,3213.0,5742.0,-4738.0,-228.0,-48.0,-75.0,116.0,196.0,-87.0,0.420123,0.706821,-0.569147,6468.0,11642.0,-9616.0,25.0,-3.0,24.0
2858.0,2783.0,2855.0,3099.0,2999.0,0.423157,0.508911,-0.725098,-0.190247,0.0,-1.0,0.0,3225.0,5802.0,-4754.0,-215.0,13.0,-88.0,90.0,212.0,-31.0,0.420023,0.706593,-0.569502,6466.0,11756.0,-9520.0,3.0,-7.0,15.0
2855.0,2783.0,2852.0,3095.0,2991.0,0.423035,0.508911,-0.725159,-0.190369,-1.0,-1.0,0.0,3228.0,5823.0,-4750.0,-210.0,33.0,-83.0,74.0,215.0,-17.0,0.419773,0.706669,-0.569647,6478.0,11762.0,-9456.0,-11.0,-8.0,6.0
2855.0,2783.0,2854.0,3095.0,2999.0,0.423096,0.508789,-0.725098,-0.190674,-2.0,0.0,0.0,3234.0,5810.0,-4713.0,-202.0,17.0,-49.0,54.0,196.0,-44.0,0.419546,0.707047,-0.569266,6450.0,11514.0,-9304.0,-32.0,5.0,8.0
2855.0,2786.0,2847.0,3094.0,2999.0,0.423157,0.508728,-0.725037,-0.190796,-2.0,0.0,0.0,3222.0,5777.0,-4701.0,-214.0,-16.0,-39.0,67.0,191.0,-78.0,0.419482,0.707211,-0.569018,6364.0,11328.0,-9360.0,-28.0,7.0,13.0
2854.0,2782.0,2853.0,3101.0,2986.0,0.423096,0.508667,-0.725159,-0.190796,0.0,-1.0,1.0,3186.0,5697.0,-4683.0,-250.0,-95.0,-20.0,102.0,188.0,-160.0,0.41952,0.707144,-0.569184,6262.0,11208.0,-9368.0,15.0,-3.0,25.0
2857.0,2782.0,2853.0,3095.0,2995.0,0.422852,0.508667,-0.725342,-0.190613,1.0,-1.0,1.0,3168.0,5695.0,-4696.0,-268.0,-94.0,-28.0,110.0,206.0,-162.0,0.419507,0.7067,-0.569726,6258.0,11448.0,-9496.0,44.0,-14.0,29.0
2854.0,2778.0,2845.0,3095.0,2993.0,0.422241,0.508789,-0.725647,-0.190369,2.0,-1.0,1.0,3176.0,5773.0,-4707.0,-257.0,-10.0,-30.0,62.0,231.0,-97.0,0.419081,0.705944,-0.570902,6420.0,11834.0,-9394.0,46.0,-22.0,23.0
2863.0,2786.0,2853.0,3098.0,3003.0,0.422119,0.508789,-0.725769,-0.190369,1.0,-1.0,0.0,3197.0,5815.0,-4697.0,-235.0,32.0,-17.0,24.0,227.0,-66.0,0.419007,0.705867,-0.571182,6536.0,11882.0,-9316.0,24.0,-16.0,18.0
2858.0,2786.0,2855.0,3103.0,2995.0,0.422119,0.508667,-0.725769,-0.190613,-2.0,-1.0,0.0,3236.0,5850.0,-4673.0,-194.0,65.0,4.0,-16.0,200.0,-37.0,0.418805,0.706118,-0.570965,6516.0,11706.0,-9276.0,-35.0,-1.0,12.0
2857.0,2783.0,2842.0,3089.0,2993.0,0.422241,0.508606,-0.725708,-0.190857,-3.0,0.0,0.0,3238.0,5826.0,-4663.0,-192.0,38.0,11.0,-6.0,186.0,-59.0,0.418706,0.706522,-0.570618,6490.0,11460.0,-9280.0,-49.0,6.0,12.0
2859.0,2783.0,2847.0,3125.0,2983.0,0.422363,0.508362,-0.725708,-0.191101,-1.0,-1.0,0.0,3238.0,5756.0,-4671.0,-192.0,-34.0,0.0,43.0,158.0,-104.0,0.418728,0.706794,-0.570173,6450.0,11326.0,-9406.0,-17.0,-4.0,16.0
2855.0,2783.0,2858.0,3095.0,2999.0,0.42218,0.508362,-0.72583,-0.191101,0.0,-1.0,0.0,3226.0,5735.0,-4688.0,-202.0,-53.0,-14.0,67.0,162.0,-114.0,0.418565,0.706654,-0.570505,6386.0,11362.0,-9488.0,11.0,-21.0,17.0
2855.0,2787.0,2851.0,3095.0,2995.0,0.421631,0.508362,-0.726135,-0.190979,1.0,-2.0,0.0,3236.0,5759.0,-4688.0,-189.0,-24.0,-6.0,42.0,161.0,-92.0,0.418149,0.706035,-0.571459,6536.0,11728.0,-9272.0,43.0,-36.0,20.0
2854.0,2782.0,2846.0,3099.0,2991.0,0.421448,0.508362,-0.726257,-0.190979,1.0,-2.0,0.0,3249.0,5800.0,-4677.0,-175.0,17.0,7.0,6.0,163.0,-65.0,0.417986,0.705896,-0.57179,6586.0,11850.0,-9310.0,25.0,-27.0,19.0
2859.0,2783.0,2850.0,3095.0,3003.0,0.42157,0.50824,-0.726257,-0.191223,-3.0,0.0,0.0,3285.0,5866.0,-4677.0,-138.0,80.0,4.0,-31.0,156.0,-3.0,0.417962,0.706272,-0.57147,6618.0,11840.0,-9384.0,-48.0,12.0,8.0
2857.0,2782.0,2891.0,3095.0,2995.0,0.421814,0.508118,-0.726135,-0.191528,-4.0,0.0,0.0,3279.0,5860.0,-4694.0,-144.0,69.0,-17.0,-7.0,160.0,-1.0,0.41795,0.706813,-0.570846,6528.0,11610.0,-9456.0,-77.0,22.0,6.0
2859.0,2783.0,2854.0,3101.0,3019.0,0.422241,0.507812,-0.725952,-0.192078,-4.0,0.0,0.0,3255.0,5788.0,-4702.0,-169.0,-9.0,-35.0,55.0,153.0,-57.0,0.417975,0.707717,-0.569699,6440.0,11396.0,-9400.0,-72.0,13.0,10.0
2855.0,2781.0,2853.0,3095.0,2993.0,0.422363,0.50769,-0.725891,-0.192261,-3.0,0.0,0.0,3240.0,5761.0,-4687.0,-183.0,-38.0,-23.0,63.0,152.0,-90.0,0.417962,0.70798,-0.569313,6378.0,11354.0,-9258.0,-56.0,4.0,9.0
2857.0,2782.0,2850.0,3095.0,3006.0,0.422424,0.507507,-0.725891,-0.192566,-1.0,-1.0,0.0,3222.0,5725.0,-4648.0,-200.0,-77.0,12.0,60.0,146.0,-144.0,0.417811,0.708331,-0.568958,6390.0,11382.0,-9210.0,-18.0,-6.0,10.0
2861.0,2786.0,2853.0,3095.0,2993.0,0.422363,0.507507,-0.725891,-0.192627,0.0,-1.0,0.0,3210.0,5726.0,-4638.0,-211.0,-76.0,23.0,52.0,155.0,-155.0,0.41766,0.708357,-0.568986,6378.0,11486.0,-9190.0,4.0,-12.0,9.0
2855.0,2781.0,2831.0,3102.0,2991.0,0.422119,0.507568,-0.726013,-0.192566,1.0,-1.0,0.0,3212.0,5756.0,-4640.0,-207.0,-44.0,24.0,32.0,164.0,-131.0,0.417447,0.708119,-0.569455,6464.0,11632.0,-9340.0,27.0,-1.0,11.0
2861.0,2783.0,2853.0,3101.0,2997.0,0.421997,0.507629,-0.726074,-0.192444,1.0,0.0,0.0,3215.0,5764.0,-4661.0,-204.0,-35.0,6.0,41.0,168.0,-113.0,0.417422,0.707893,-0.569755,6466.0,11542.0,-9462.0,29.0,7.0,15.0
2851.0,2781.0,2849.0,3091.0,2995.0,0.421875,0.50769,-0.726135,-0.1922,0.0,0.0,0.0,3221.0,5771.0,-4691.0,-199.0,-24.0,-20.0,55.0,172.0,-88.0,0.417521,0.70749,-0.570103,6432.0,11572.0,-9472.0,18.0,13.0,19.0
2858.0,2774.0,2855.0,3099.0,2993.0,0.421814,0.507751,-0.726196,-0.192139,0.0,0.0,0.0,3228.0,5765.0,-4698.0,-192.0,-30.0,-25.0,62.0,164.0,-87.0,0.417522,0.707414,-0.570328,6508.0,11488.0,-9422.0,10.0,8.0,15.0
2835.0,2790.0,2854.0,3101.0,3003.0,0.421692,0.507751,-0.726318,-0.192017,0.0,0.0,0.0,3239.0,5746.0,-4688.0,-181.0,-47.0,-13.0,60.0,145.0,-101.0,0.417572,0.70716,-0.570655,6464.0,11442.0,-9292.0,14.0,1.0,16.0
2855.0,2779.0,2855.0,3098.0,2989.0,0.421631,0.507751,-0.726379,-0.191956,1.0,-1.0,0.0,3238.0,5748.0,-4669.0,-182.0,-44.0,7.0,43.0,144.0,-111.0,0.417596,0.707033,-0.570819,6458.0,11546.0,-9218.0,25.0,-4.0,16.0
2859.0,2783.0,2851.0,3093.0,2994.0,0.421326,0.507812,-0.72644,-0.191895,1.0,-1.0,0.0,3238.0,5794.0,-4671.0,-180.0,4.0,8.0,14.0,162.0,-76.0,0.417243,0.706709,-0.57125,6458.0,11718.0,-9426.0,28.0,-8.0,6.0
2855.0,2783.0,2853.0,3091.0,3003.0,0.421204,0.507935,-0.726501,-0.191833,1.0,-1.0,0.0,3245.0,5816.0,-4672.0,-172.0,27.0,10.0,-1.0,164.0,-58.0,0.417132,0.706622,-0.571589,6540.0,11750.0,-9332.0,23.0,-4.0,5.0
2855.0,2779.0,2853.0,3099.0,2995.0,0.421204,0.507935,-0.726501,-0.191833,0.0,0.0,0.0,3248.0,5834.0,-4665.0,-169.0,45.0,17.0,-17.0,167.0,-48.0,0.417132,0.706622,-0.571589,6498.0,11780.0,-9292.0,12.0,5.0,6.0
2855.0,2781.0,2843.0,3095.0,2994.0,0.421265,0.507935,-0.72644,-0.191895,-1.0,0.0,0.0,3242.0,5816.0,-4672.0,-174.0,26.0,9.0,0.0,165.0,-59.0,0.417108,0.70675,-0.571426,6442.0,11498.0,-9376.0,-14.0,14.0,7.0
2851.0,2789.0,2851.0,3095.0,2995.0,0.421265,0.507935,-0.726379,-0.191956,-1.0,0.0,0.0,3235.0,5789.0,-4681.0,-181.0,-1.0,0.0,23.0,162.0,-76.0,0.416994,0.706815,-0.571314,6432.0,11404.0,-9406.0,-15.0,9.0,6.0
2861.0,2786.0,2855.0,3099.0,2993.0,0.421265,0.507935,-0.72644,-0.191956,0.0,0.0,0.0,3239.0,5742.0,-4668.0,-177.0,-48.0,12.0,40.0,137.0,-114.0,0.417046,0.706838,-0.571402,6456.0,11460.0,-9264.0,7.0,2.0,11.0
2855.0,2779.0,2847.0,3095.0,2983.0,0.421143,0.507996,-0.72644,-0.191895,0.0,-1.0,0.0,3232.0,5743.0,-4669.0,-183.0,-46.0,13.0,39.0,143.0,-116.0,0.416907,0.706677,-0.571591,6404.0,11520.0,-9346.0,19.0,-1.0,10.0
2855.0,2779.0,2851.0,3095.0,2996.0,0.420898,0.508118,-0.726562,-0.191833,0.0,-1.0,0.0,3234.0,5785.0,-4678.0,-179.0,-2.0,8.0,17.0,159.0,-80.0,0.41667,0.70649,-0.572121,6460.0,11742.0,-9396.0,22.0,-8.0,0.0
2862.0,2783.0,2853.0,3103.0,2992.0,0.420776,0.508179,-0.726562,-0.191895,0.0,-1.0,-1.0,3240.0,5801.0,-4685.0,-171.0,13.0,2.0,13.0,158.0,-63.0,0.416407,0.706506,-0.572262,6510.0,11666.0,-9378.0,12.0,-9.0,-5.0
2861.0,2783.0,2855.0,3099.0,3003.0,0.420654,0.508301,-0.726501,-0.192078,-1.0,-1.0,-1.0,3238.0,5813.0,-4718.0,-169.0,23.0,-29.0,31.0,165.0,-37.0,0.415946,0.706727,-0.57233,6436.0,11640.0,-9648.0,-7.0,-2.0,-9.0
2853.0,2779.0,2847.0,3095.0,2993.0,0.420593,0.508301,-0.72644,-0.1922,-2.0,-1.0,-1.0,3233.0,5825.0,-4738.0,-172.0,34.0,-50.0,42.0,176.0,-18.0,0.415681,0.706819,-0.572246,6462.0,11740.0,-9548.0,-23.0,-3.0,-7.0
2854.0,2779.0,2849.0,3095.0,2992.0,0.420837,0.508179,-0.726318,-0.192688,-4.0,0.0,0.0,3259.0,5816.0,-4719.0,-144.0,19.0,-36.0,36.0,142.0,-25.0,0.415484,0.707627,-0.571551,6586.0,11586.0,-9328.0,-78.0,15.0,1.0
2855.0,2783.0,2851.0,3099.0,3003.0,0.421204,0.507996,-0.726135,-0.193054,-5.0,0.0,-1.0,3262.0,5794.0,-4693.0,-142.0,-8.0,-18.0,37.0,127.0,-54.0,0.41556,0.708306,-0.57065,6526.0,11422.0,-9188.0,-103.0,22.0,-1.0
2855.0,2783.0,2854.0,3099.0,2993.0,0.421753,0.50769,-0.725891,-0.193665,-3.0,0.0,-1.0,3251.0,5694.0,-4658.0,-154.0,-117.0,5.0,82.0,90.0,-149.0,0.41565,0.709399,-0.569286,6448.0,11046.0,-9272.0,-68.0,14.0,-6.0
2858.0,2783.0,2849.0,3099.0,2991.0,0.421753,0.507629,-0.72583,-0.193726,-1.0,0.0,0.0,3246.0,5652.0,-4651.0,-158.0,-159.0,11.0,102.0,75.0,-184.0,0.41556,0.709412,-0.569112,6456.0,11134.0,-9316.0,-14.0,5.0,1.0
2855.0,2782.0,2847.0,3094.0,2995.0,0.421509,0.507812,-0.726013,-0.193359,2.0,-1.0,0.0,3252.0,5678.0,-4625.0,-153.0,-128.0,43.0,58.0,79.0,-178.0,0.415661,0.708858,-0.569911,6524.0,11568.0,-9194.0,64.0,0.0,16.0
2863.0,2783.0,2854.0,3099.0,2994.0,0.421265,0.507935,-0.726135,-0.193115,3.0,-1.0,0.0,3249.0,5728.0,-4638.0,-155.0,-75.0,35.0,34.0,103.0,-137.0,0.41561,0.708405,-0.570513,6440.0,11776.0,-9394.0,71.0,-1.0,16.0
301.0,0.869255,0.494011,0.019246,13760.0,7846.0,640.0,1.0,-3.0,13.0,,,,,,,,,,,,,,,,,,,,
2853.0,2787.0,2854.0,3102.0,2995.0,0.712891,0.312256,-0.626648,-0.038818,-1.0,-1.0,-1.0,6851.0,3888.0,233.0,-269.0,-157.0,73.0,-71.0,-34.0,-309.0,0.86922,0.493859,0.019529,13696.0,7710.0,352.0,-17.0,-1.0,-3.0
2847.0,2783.0,2847.0,3094.0,2995.0,0.712952,0.312256,-0.626648,-0.038818,-1.0,-1.0,-1.0,6859.0,3872.0,208.0,-262.0,-174.0,47.0,-40.0,-41.0,-312.0,0.869297,0.493898,0.019616,13774.0,7648.0,256.0,-7.0,-1.0,-4.0
2855.0,2779.0,2847.0,3091.0,2995.0,0.712891,0.312256,-0.62677,-0.038757,0.0,-1.0,0.0,6855.0,3869.0,191.0,-267.0,-176.0,32.0,-26.0,-34.0,-318.0,0.869433,0.493792,0.019371,13684.0,7812.0,352.0,14.0,-12.0,4.0
2862.0,2789.0,2854.0,3103.0,2993.0,0.712769,0.312317,-0.626831,-0.038757,0.0,-1.0,0.0,6856.0,3897.0,192.0,-265.0,-148.0,35.0,-38.0,-14.0,-302.0,0.869362,0.493808,0.019082,13718.0,7954.0,424.0,17.0,-18.0,4.0
2851.0,2783.0,2857.0,3095.0,2998.0,0.712646,0.312378,-0.626892,-0.038818,0.0,-1.0,-1.0,6849.0,3941.0,195.0,-271.0,-105.0,41.0,-59.0,20.0,-286.0,0.869253,0.4939,0.018798,13698.0,7990.0,428.0,1.0,-19.0,-1.0
2853.0,2777.0,2849.0,3091.0,2999.0,0.712646,0.312378,-0.626953,-0.038879,-1.0,-1.0,0.0,6851.0,3955.0,200.0,-270.0,-91.0,46.0,-68.0,29.0,-278.0,0.869302,0.493981,0.018726,13724.0,7978.0,446.0,-9.0,-18.0,3.0
2855.0,2781.0,2847.0,3091.0,2999.0,0.712646,0.312195,-0.627014,-0.039001,-1.0,-1.0,0.0,6842.0,3956.0,201.0,-279.0,-89.0,47.0,-72.0,34.0,-285.0,0.869327,0.493878,0.018774,13670.0,7860.0,436.0,-16.0,-13.0,11.0
2863.0,2783.0,2853.0,3103.0,2998.0,0.712646,0.312073,-0.627014,-0.039062,-1.0,-1.0,0.0,6837.0,3944.0,219.0,-284.0,-101.0,64.0,-84.0,20.0,-295.0,0.869298,0.493781,0.018855,13640.0,7824.0,536.0,-19.0,-7.0,11.0
2857.0,2781.0,2833.0,3101.0,2995.0,0.712769,0.31189,-0.627014,-0.039124,-1.0,-1.0,0.0,6834.0,3890.0,236.0,-288.0,-154.0,79.0,-81.0,-26.0,-324.0,0.869428,0.493672,0.019148,13682.0,7568.0,536.0,-11.0,-7.0,8.0
2854.0,2781.0,2853.0,3095.0,2995.0,0.712769,0.311768,-0.627075,-0.039062,-1.0,-1.0,0.0,6836.0,3868.0,231.0,-287.0,-174.0,74.0,-70.0,-40.0,-334.0,0.869562,0.493427,0.019143,13706.0,7612.0,412.0,-4.0,-7.0,11.0
2849.0,2779.0,2847.0,3088.0,2995.0,0.712769,0.311646,-0.627136,-0.03894,0.0,-1.0,0.0,6847.0,3845.0,211.0,-277.0,-194.0,54.0,-42.0,-53.0,-335.0,0.869735,0.493104,0.019133,13760.0,7668.0,346.0,1.0,-5.0,14.0
2855.0,2781.0,2854.0,3099.0,2999.0,0.712769,0.311584,-0.627197,-0.03894,-1.0,-1.0,0.0,6851.0,3847.0,181.0,-274.0,-191.0,24.0,-15.0,-40.0,-332.0,0.869826,0.493022,0.019094,13712.0,7712.0,188.0,-6.0,-3.0,8.0
2861.0,2779.0,2857.0,3099.0,2995.0,0.712769,0.311462,-0.627197,-0.03894,-1.0,-1.0,-1.0,6860.0,3849.0,167.0,-265.0,-188.0,9.0,0.0,-36.0,-322.0,0.869836,0.492848,0.01917,13734.0,7674.0,334.0,-14.0,0.0,-2.0
2861.0,2779.0,2853.0,3091.0,2998.0,0.71283,0.311401,-0.627197,-0.039001,-1.0,0.0,-1.0,6857.0,3855.0,161.0,-269.0,-182.0,2.0,2.0,-26.0,-323.0,0.869879,0.492875,0.0193,13718.0,7784.0,284.0,-10.0,1.0,-4.0
2855.0,2779.0,2847.0,3095.0,2995.0,0.71283,0.311401,-0.627197,-0.039062,-1.0,-1.0,-1.0,6858.0,3855.0,167.0,-267.0,-183.0,8.0,-2.0,-30.0,-322.0,0.869841,0.492952,0.019305,13710.0,7650.0,356.0,-1.0,-1.0,-4.0
2861.0,2782.0,2851.0,3102.0,2997.0,0.71283,0.311401,-0.627197,-0.039062,0.0,-1.0,0.0,6857.0,3849.0,177.0,-268.0,-189.0,18.0,-9.0,-39.0,-325.0,0.869841,0.492952,0.019305,13710.0,7682.0,392.0,13.0,-3.0,0.0
2859.0,2783.0,2855.0,3103.0,2997.0,0.712769,0.311584,-0.627197,-0.038818,1.0,-1.0,0.0,6852.0,3857.0,199.0,-274.0,-180.0,42.0,-35.0,-38.0,-326.0,0.869903,0.492869,0.019085,13686.0,7774.0,474.0,31.0,-1.0,0.0
2853.0,2779.0,2847.0,3099.0,2999.0,0.712769,0.311707,-0.627136,-0.038757,1.0,-1.0,-1.0,6840.0,3885.0,213.0,-285.0,-153.0,56.0,-60.0,-17.0,-322.0,0.869844,0.492961,0.01908,13618.0,7972.0,506.0,27.0,-2.0,-4.0
2859.0,2782.0,2850.0,3095.0,2995.0,0.712769,0.311768,-0.627075,-0.03894,-1.0,-1.0,-1.0,6829.0,3947.0,237.0,-295.0,-93.0,80.0,-104.0,25.0,-300.0,0.869638,0.493273,0.019133,13630.0,8020.0,530.0,-18.0,-8.0,-8.0
2859.0,2783.0,2855.0,3099.0,3003.0,0.71283,0.311707,-0.627014,-0.039124,-2.0,-1.0,-1.0,6826.0,3948.0,233.0,-297.0,-94.0,74.0,-99.0,27.0,-303.0,0.869518,0.493449,0.019349,13644.0,7888.0,406.0,-30.0,-9.0,-10.0
2859.0,2781.0,2854.0,3175.0,2991.0,0.712891,0.311584,-0.627014,-0.039429,-1.0,-1.0,-1.0,6843.0,3915.0,220.0,-279.0,-129.0,59.0,-69.0,-2.0,-305.0,0.869414,0.493696,0.019536,13736.0,7664.0,412.0,-20.0,-7.0,-13.0
2859.0,2781.0,2853.0,3090.0,2995.0,0.712891,0.311584,-0.627014,-0.03949,-1.0,-1.0,-1.0,6851.0,3898.0,212.0,-270.0,-146.0,51.0,-54.0,-16.0,-305.0,0.869376,0.493773,0.019541,13782.0,7706.0,386.0,-7.0,-1.0,-9.0
2855.0,2782.0,2850.0,3095.0,2999.0,0.712891,0.311584,-0.626953,-0.039429,0.0,0.0,0.0,6862.0,3893.0,202.0,-259.0,-151.0,41.0,-41.0,-21.0,-298.0,0.869327,0.493691,0.019613,13704.0,7874.0,350.0,13.0,6.0,2.0
2857.0,2757.0,2855.0,3110.0,2993.0,0.712891,0.311646,-0.626953,-0.039429,0.0,0.0,-1.0,6856.0,3914.0,191.0,-265.0,-131.0,30.0,-39.0,1.0,-294.0,0.869322,0.493778,0.019575,13676.0,7974.0,316.0,8.0,4.0,-2.0
2855.0,2783.0,2851.0,3099.0,2995.0,0.712952,0.311707,-0.626892,-0.039551,-1.0,-1.0,-1.0,6843.0,3939.0,180.0,-277.0,-108.0,18.0,-38.0,30.0,-293.0,0.869231,0.494052,0.01971,13672.0,7894.0,368.0,-16.0,0.0,-9.0
2855.0,2779.0,2847.0,3094.0,3003.0,0.713013,0.311646,-0.626831,-0.039673,-1.0,0.0,-1.0,6842.0,3936.0,178.0,-278.0,-112.0,14.0,-34.0,28.0,-296.0,0.869149,0.494151,0.019921,13668.0,7858.0,350.0,-19.0,3.0,-11.0
2861.0,2783.0,2851.0,3093.0,2999.0,0.713135,0.311584,-0.626709,-0.039917,-2.0,0.0,-1.0,6836.0,3929.0,198.0,-282.0,-121.0,31.0,-47.0,16.0,-304.0,0.868981,0.494436,0.020306,13650.0,7834.0,442.0,-26.0,4.0,-9.0
2858.0,2783.0,2849.0,3103.0,2999.0,0.713196,0.311523,-0.626648,-0.040039,-2.0,0.0,-1.0,6831.0,3916.0,208.0,-287.0,-135.0,39.0,-51.0,4.0,-315.0,0.868899,0.494535,0.020517,13634.0,7750.0,480.0,-28.0,6.0,-6.0
2855.0,2783.0,2855.0,3093.0,2999.0,0.713379,0.311401,-0.626526,-0.040161,-1.0,0.0,-1.0,6832.0,3896.0,208.0,-285.0,-155.0,35.0,-40.0,-10.0,-323.0,0.868888,0.494618,0.021017,13676.0,7744.0,392.0,-11.0,9.0,-7.0
2855.0,2779.0,2847.0,3087.0,2994.0,0.713379,0.311401,-0.626465,-0.040222,-1.0,0.0,-1.0,6839.0,3894.0,212.0,-277.0,-158.0,39.0,-41.0,-18.0,-317.0,0.868763,0.49469,0.021098,13736.0,7798.0,466.0,-4.0,10.0,-6.0
2855.0,2779.0,2847.0,3095.0,2995.0,0.713501,0.311401,-0.626343,-0.040222,-1.0,0.0,-1.0,6842.0,3910.0,218.0,-274.0,-143.0,42.0,-49.0,-8.0,-307.0,0.868742,0.494756,0.021425,13704.0,7900.0,464.0,-2.0,7.0,-1.0
2855.0,2787.0,2855.0,3099.0,2999.0,0.713562,0.311401,-0.626282,-0.040222,-1.0,0.0,-1.0,6852.0,3915.0,219.0,-264.0,-138.0,42.0,-48.0,-9.0,-296.0,0.868731,0.494789,0.021589,13786.0,7848.0,438.0,-2.0,7.0,-1.0
2855.0,2786.0,2847.0,3103.0,2999.0,0.713623,0.31134,-0.626221,-0.040222,0.0,0.0,0.0,6875.0,3927.0,214.0,-241.0,-125.0,35.0,-41.0,-6.0,-270.0,0.868725,0.494735,0.021791,13824.0,7904.0,418.0,2.0,11.0,0.0
2853.0,2779.0,2851.0,3099.0,2991.0,0.713684,0.311401,-0.62616,-0.040161,-1.0,0.0,0.0,6886.0,3936.0,204.0,-230.0,-117.0,24.0,-32.0,0.0,-257.0,0.868748,0.494779,0.021911,13846.0,7914.0,358.0,0.0,12.0,1.0
2855.0,2779.0,2854.0,3095.0,2999.0,0.713867,0.311279,-0.625977,-0.040161,-1.0,0.0,0.0,6877.0,3934.0,222.0,-239.0,-118.0,37.0,-45.0,-2.0,-265.0,0.868726,0.494704,0.022478,13706.0,7810.0,514.0,-14.0,21.0,6.0
2859.0,2783.0,2849.0,3099.0,2999.0,0.713989,0.311218,-0.625916,-0.040161,-1.0,0.0,0.0,6867.0,3909.0,230.0,-250.0,-143.0,43.0,-45.0,-20.0,-286.0,0.868796,0.494688,0.022767,13686.0,7652.0,530.0,-14.0,16.0,5.0
2855.0,2782.0,2850.0,3103.0,2993.0,0.714172,0.311096,-0.625732,-0.040039,0.0,0.0,0.0,6839.0,3864.0,238.0,-278.0,-186.0,46.0,-39.0,-43.0,-332.0,0.86885,0.49446,0.023323,13560.0,7660.0,412.0,2.0,17.0,3.0
2861.0,2778.0,2847.0,3091.0,2995.0,0.714233,0.311096,-0.625671,-0.040039,0.0,0.0,-1.0,6829.0,3862.0,225.0,-288.0,-188.0,32.0,-28.0,-35.0,-342.0,0.868839,0.494493,0.023487,13606.0,7708.0,402.0,7.0,12.0,-3.0
2855.0,2781.0,2851.0,3093.0,2995.0,0.714233,0.311157,-0.625671,-0.039978,0.0,0.0,0.0,6833.0,3883.0,188.0,-284.0,-167.0,-4.0,-1.0,-5.0,-329.0,0.868872,0.494504,0.023444,13732.0,7816.0,308.0,2.0,7.0,2.0
2897.0,2785.0,2849.0,3103.0,2999.0,0.714233,0.311157,-0.62561,-0.039917,0.0,0.0,0.0,6848.0,3889.0,179.0,-269.0,-161.0,-13.0,7.0,-4.0,-313.0,0.868823,0.494423,0.023516,13772.0,7818.0,296.0,7.0,10.0,3.0
2851.0,2782.0,2851.0,3099.0,2998.0,0.714233,0.311218,-0.62561,-0.039856,0.0,0.0,0.0,6846.0,3896.0,179.0,-271.0,-154.0,-13.0,5.0,2.0,-311.0,0.868856,0.494434,0.023473,13656.0,7850.0,368.0,14.0,11.0,4.0
2851.0,2775.0,2851.0,3099.0,2994.0,0.714294,0.311279,-0.625488,-0.039673,0.0,0.0,0.0,6837.0,3912.0,227.0,-280.0,-137.0,33.0,-44.0,1.0,-310.0,0.868867,0.49432,0.02366,13614.0,7860.0,632.0,15.0,14.0,11.0
2855.0,2789.0,2853.0,3099.0,2999.0,0.714417,0.311279,-0.625427,-0.039612,0.0,0.0,0.0,6829.0,3920.0,252.0,-289.0,-129.0,56.0,-70.0,3.0,-313.0,0.86897,0.494315,0.023906,13618.0,7894.0,662.0,8.0,14.0,12.0
2855.0,2783.0,2846.0,3091.0,2999.0,0.7146,0.311218,-0.625183,-0.03949,-1.0,0.0,0.0,6805.0,3926.0,293.0,-313.0,-122.0,92.0,-111.0,5.0,-330.0,0.868931,0.49417,0.024501,13522.0,7912.0,684.0,-3.0,18.0,4.0
2861.0,2783.0,2851.0,3103.0,2998.0,0.714722,0.311218,-0.625061,-0.039551,-1.0,0.0,-1.0,6791.0,3922.0,286.0,-326.0,-127.0,82.0,-103.0,10.0,-343.0,0.868872,0.494312,0.024833,13526.0,7786.0,482.0,-12.0,13.0,-3.0
2859.0,2783.0,2851.0,3099.0,3022.0,0.714844,0.311157,-0.625,-0.039673,-1.0,0.0,-1.0,6805.0,3915.0,238.0,-312.0,-135.0,32.0,-51.0,17.0,-337.0,0.868866,0.494449,0.025132,13696.0,7834.0,352.0,-15.0,5.0,-4.0
2855.0,2785.0,2847.0,3095.0,2999.0,0.714844,0.311157,-0.625,-0.039734,-1.0,0.0,-1.0,6823.0,3917.0,205.0,-294.0,-134.0,0.0,-18.0,23.0,-321.0,0.868828,0.494525,0.025137,13766.0,7890.0,222.0,-8.0,7.0,-2.0
2859.0,2786.0,2858.0,3099.0,3003.0,0.714844,0.311157,-0.624939,-0.039734,0.0,0.0,0.0,6846.0,3913.0,197.0,-270.0,-138.0,-9.0,-4.0,13.0,-303.0,0.86874,0.49452,0.025213,13766.0,7788.0,512.0,4.0,12.0,6.0
2859.0,2781.0,2853.0,3099.0,2997.0,0.714966,0.311157,-0.624878,-0.039612,0.0,0.0,0.0,6845.0,3907.0,217.0,-272.0,-143.0,8.0,-18.0,3.0,-306.0,0.868882,0.494439,0.025454,13686.0,7792.0,564.0,8.0,20.0,10.0
2861.0,2787.0,2851.0,3091.0,3002.0,0.715149,0.311157,-0.624634,-0.03949,-1.0,1.0,-1.0,6826.0,3910.0,252.0,-291.0,-139.0,38.0,-51.0,2.0,-320.0,0.868837,0.494381,0.026011,13602.0,7750.0,634.0,-4.0,33.0,-1.0
2855.0,2785.0,2851.0,3095.0,3003.0,0.715332,0.311096,-0.62439,-0.03949,-1.0,1.0,-1.0,6816.0,3902.0,264.0,-300.0,-148.0,45.0,-57.0,-3.0,-332.0,0.868722,0.494388,0.026616,13564.0,7756.0,564.0,-10.0,38.0,-6.0
2858.0,2784.0,2851.0,3095.0,2995.0,0.715698,0.311157,-0.624023,-0.039551,-1.0,1.0,-1.0,6808.0,3885.0,258.0,-307.0,-167.0,32.0,-40.0,-10.0,-348.0,0.868612,0.494751,0.027564,13628.0,7728.0,442.0,-10.0,36.0,-16.0
2858.0,2783.0,2847.0,3099.0,2997.0,0.71582,0.311157,-0.623901,-0.039551,-1.0,1.0,-1.0,6809.0,3873.0,258.0,-306.0,-180.0,29.0,-33.0,-19.0,-354.0,0.86859,0.494817,0.027891,13628.0,7680.0,542.0,-5.0,36.0,-16.0
2853.0,2783.0,2847.0,3091.0,2993.0,0.715942,0.311279,-0.623657,-0.03949,0.0,1.0,-1.0,6809.0,3861.0,227.0,-305.0,-193.0,-4.0,0.0,-17.0,-360.0,0.868421,0.494972,0.02829,13622.0,7736.0,360.0,15.0,23.0,-8.0
2854.0,2783.0,2854.0,3101.0,2995.0,0.716003,0.31134,-0.623535,-0.039429,0.0,0.0,-1.0,6812.0,3876.0,219.0,-301.0,-179.0,-14.0,6.0,-4.0,-350.0,0.868355,0.495012,0.028487,13662.0,7854.0,394.0,13.0,19.0,-3.0
2855.0,2782.0,2854.0,3101.0,2992.0,0.716125,0.311462,-0.623413,-0.039429,-1.0,0.0,-1.0,6830.0,3931.0,227.0,-283.0,-126.0,-8.0,-13.0,27.0,-308.0,0.868323,0.495253,0.028738,13708.0,8020.0,546.0,-8.0,22.0,-7.0
2858.0,2778.0,2847.0,3091.0,3003.0,0.716248,0.311401,-0.62323,-0.03949,-1.0,1.0,-1.0,6826.0,3952.0,250.0,-286.0,-105.0,10.0,-37.0,38.0,-300.0,0.86818,0.495303,0.029184,13620.0,8020.0,652.0,-20.0,23.0,-10.0
2854.0,2782.0,2859.0,3095.0,2992.0,0.716553,0.311279,-0.622925,-0.039856,-3.0,0.0,-1.0,6799.0,3986.0,307.0,-310.0,-75.0,60.0,-98.0,53.0,-304.0,0.867904,0.495751,0.030106,13546.0,8044.0,748.0,-48.0,11.0,-10.0
2859.0,2779.0,2851.0,3103.0,2995.0,0.716736,0.311096,-0.622864,-0.0401,-3.0,0.0,-1.0,6801.0,3977.0,324.0,-308.0,-85.0,73.0,-106.0,39.0,-307.0,0.867908,0.495901,0.030578,13636.0,7868.0,724.0,-56.0,5.0,-4.0
2859.0,2783.0,2855.0,3095.0,2995.0,0.716858,0.310669,-0.622803,-0.040405,-2.0,-1.0,0.0,6822.0,3929.0,306.0,-287.0,-132.0,51.0,-66.0,1.0,-312.0,0.867817,0.49574,0.031119,13760.0,7666.0,490.0,-34.0,-13.0,3.0
2855.0,2783.0,2847.0,3091.0,2991.0,0.716858,0.310608,-0.622925,-0.040466,-1.0,-1.0,0.0,6839.0,3911.0,280.0,-271.0,-150.0,25.0,-33.0,-9.0,-308.0,0.867959,0.495738,0.03101,13758.0,7746.0,426.0,-12.0,-19.0,6.0
2854.0,2783.0,2847.0,3095.0,2995.0,0.716675,0.310486,-0.623169,-0.040405,0.0,-2.0,0.0,6842.0,3908.0,249.0,-269.0,-150.0,0.0,-9.0,0.0,-307.0,0.868128,0.495393,0.030514,13660.0,7888.0,396.0,7.0,-26.0,13.0
2855.0,2783.0,2851.0,3109.0,3005.0,0.716553,0.310486,-0.623291,-0.040405,-1.0,-2.0,0.0,6828.0,3928.0,233.0,-283.0,-129.0,-14.0,-6.0,27.0,-310.0,0.868151,0.495327,0.030187,13582.0,7978.0,402.0,-2.0,-29.0,9.0
2858.0,2779.0,2857.0,3095.0,2995.0,0.716492,0.310242,-0.623413,-0.040649,-2.0,-1.0,0.0,6820.0,3945.0,252.0,-291.0,-112.0,5.0,-31.0,37.0,-307.0,0.868118,0.495254,0.030119,13542.0,7934.0,576.0,-42.0,-14.0,11.0
2855.0,2779.0,2850.0,3101.0,2995.0,0.716553,0.310059,-0.623474,-0.040833,-3.0,-1.0,0.0,6805.0,3942.0,270.0,-307.0,-115.0,22.0,-49.0,35.0,-322.0,0.868183,0.495263,0.030259,13532.0,7836.0,678.0,-55.0,-13.0,9.0
2855.0,2783.0,2857.0,3093.0,2995.0,0.716675,0.30957,-0.623535,-0.041199,-2.0,-1.0,0.0,6779.0,3884.0,300.0,-333.0,-171.0,48.0,-61.0,-8.0,-372.0,0.868236,0.4951,0.03069,13470.0,7542.0,758.0,-43.0,-21.0,8.0
2859.0,2783.0,2855.0,3093.0,2999.0,0.716736,0.309387,-0.623596,-0.04126,-2.0,-2.0,0.0,6762.0,3859.0,322.0,-351.0,-195.0,69.0,-76.0,-27.0,-399.0,0.868377,0.494957,0.03082,13394.0,7560.0,732.0,-29.0,-27.0,12.0
2853.0,2787.0,2850.0,3095.0,2993.0,0.716614,0.309021,-0.623901,-0.041504,-2.0,-3.0,0.0,6714.0,3822.0,359.0,-401.0,-230.0,109.0,-112.0,-49.0,-458.0,0.868541,0.494686,0.030511,13306.0,7534.0,836.0,-25.0,-49.0,12.0
2863.0,2781.0,2847.0,3099.0,2995.0,0.716553,0.308838,-0.624023,-0.041626,-1.0,-3.0,0.0,6694.0,3791.0,367.0,-421.0,-260.0,118.0,-115.0,-68.0,-490.0,0.86858,0.494548,0.030394,13284.0,7376.0,746.0,-21.0,-56.0,6.0
2858.0,2782.0,2851.0,3090.0,2997.0,0.716248,0.308594,-0.624512,-0.041809,0.0,-4.0,0.0,6668.0,3693.0,384.0,-449.0,-356.0,142.0,-112.0,-142.0,-561.0,0.868806,0.49428,0.029514,13254.0,7044.0,854.0,2.0,-72.0,2.0
2855.0,2779.0,2855.0,3103.0,2993.0,0.716003,0.308533,-0.624756,-0.041809,0.0,-4.0,0.0,6649.0,3635.0,405.0,-468.0,-412.0,168.0,-121.0,-189.0,-605.0,0.868856,0.494062,0.028897,13178.0,6906.0,972.0,20.0,-86.0,5.0
2853.0,2787.0,2853.0,3099.0,2999.0,0.715515,0.308533,-0.625366,-0.041626,2.0,-5.0,-1.0,6584.0,3519.0,540.0,-536.0,-524.0,315.0,-233.0,-306.0,-715.0,0.869232,0.493583,0.027419,12896.0,6652.0,1592.0,52.0,-94.0,-7.0
2859.0,2782.0,2853.0,3095.0,2995.0,0.715332,0.308655,-0.625488,-0.041565,3.0,-4.0,-2.0,6515.0,3445.0,648.0,-605.0,-598.0,427.0,-327.0,-378.0,-809.0,0.869205,0.493578,0.026924,12556.0,6438.0,1956.0,69.0,-84.0,-23.0
2854.0,2781.0,2851.0,3091.0,2997.0,0.715271,0.309143,-0.625366,-0.041565,3.0,-4.0,-4.0,6281.0,3298.0,989.0,-837.0,-750.0,770.0,-642.0,-531.0,-1077.0,0.868914,0.494229,0.026688,11690.0,6120.0,3216.0,85.0,-75.0,-84.0
2855.0,2783.0,2857.0,3095.0,2999.0,0.715332,0.309448,-0.625061,-0.04187,2.0,-4.0,-6.0,6113.0,3155.0,1235.0,-1000.0,-900.0,1013.0,-852.0,-673.0,-1286.0,0.868339,0.495059,0.026994,11146.0,5210.0,3986.0,62.0,-83.0,-126.0
2858.0,2782.0,2853.0,3099.0,2995.0,0.71582,0.31012,-0.624207,-0.042236,7.0,-5.0,-9.0,5537.0,2380.0,1804.0,-1569.0,-1689.0,1571.0,-1233.0,-1270.0,-2155.0,0.867443,0.496708,0.028375,8790.0,2046.0,5356.0,167.0,-105.0,-200.0
2865.0,2778.0,2851.0,3095.0,2992.0,0.715576,0.311157,-0.623962,-0.042297,12.0,-10.0,-13.0,5049.0,1918.0,2055.0,-2050.0,-2162.0,1828.0,-1418.0,-1533.0,-2802.0,0.866663,0.498097,0.02769,6990.0,1010.0,5554.0,286.0,-220.0,-277.0
2858.0,2781.0,2849.0,3095.0,2999.0,0.712097,0.315613,-0.62561,-0.043274,27.0,-35.0,-24.0,3882.0,904.0,2487.0,-3193.0,-3221.0,2339.0,-1755.0,-2034.0,-4337.0,0.863675,0.503639,0.017955,4196.0,-1030.0,6110.0,625.0,-781.0,-531.0
2855.0,2781.0,2855.0,3095.0,2997.0,0.702393,0.324402,-0.631836,-0.046631,41.0,-70.0,-37.0,2904.0,249.0,2761.0,-4119.0,-3966.0,2834.0,-2047.0,-2280.0,-5597.0,0.85734,0.514641,-0.008923,3430.0,-970.0,6130.0,955.0,-1595.0,-827.0
2855.0,2779.0,2851.0,3103.0,2999.0,0.695007,0.330139,-0.63678,-0.049438,46.0,-87.0,-43.0,2619.0,69.0,2798.0,-4364.0,-4206.0,3035.0,-2109.0,-2335.0,-6003.0,0.85249,0.521861,-0.029001,3744.0,-810.0,5714.0,1071.0,-1983.0,-966.0
2854.0,2783.0,2859.0,3098.0,2999.0,0.675598,0.34375,-0.649719,-0.057007,57.0,-114.0,-53.0,2397.0,-135.0,2597.0,-4473.0,-4546.0,3257.0,-1973.0,-2370.0,-6462.0,0.838706,0.538551,-0.080617,4380.0,-500.0,4098.0,1307.0,-2605.0,-1210.0
2859.0,2783.0,2855.0,3095.0,2997.0,0.650085,0.360107,-0.66571,-0.067078,63.0,-137.0,-64.0,2264.0,23.0,1932.0,-4430.0,-4544.0,3125.0,-1536.0,-1998.0,-6609.0,0.817227,0.55751,-0.145737,4110.0,900.0,1400.0,1458.0,-3120.0,-1460.0
2861.0,2779.0,2853.0,3099.0,2994.0,0.635254,0.369324,-0.674255,-0.073242,65.0,-145.0,-71.0,2180.0,242.0,1440.0,-4394.0,-4411.0,2931.0,-1234.0,-1648.0,-6565.0,0.802547,0.567997,-0.182108,3846.0,1948.0,-258.0,1506.0,-3304.0,-1622.0
2857.0,2783.0,2859.0,3095.0,2998.0,0.602539,0.390442,-0.690369,-0.088684,65.0,-150.0,-93.0,2047.0,1115.0,347.0,-4201.0,-3742.0,2461.0,-730.0,-685.0,-6058.0,0.762696,0.592962,-0.258136,3808.0,5884.0,-2376.0,1495.0,-3423.0,-2117.0
2861.0,2783.0,2849.0,3095.0,2999.0,0.569214,0.414734,-0.700928,-0.112671,34.0,-146.0,-130.0,1798.0,3198.0,-938.0,-3973.0,-1963.0,1737.0,-627.0,1035.0,-4603.0,0.704499,0.630093,-0.326605,2764.0,14076.0,-6246.0,795.0,-3333.0,-2965.0
2853.0,2786.0,2851.0,3095.0,3003.0,0.553345,0.427124,-0.703064,-0.13092,1.0,-145.0,-153.0,1767.0,4549.0,-1689.0,-3690.0,-831.0,1206.0,-610.0,1903.0,-3430.0,0.666235,0.656785,-0.353403,3608.0,17072.0,-7898.0,38.0,-3305.0,-3487.0
2859.0,2783.0,2855.0,3095.0,2999.0,0.526123,0.44812,-0.700134,-0.179382,-72.0,-133.0,-185.0,2131.0,6297.0,-3351.0,-2587.0,376.0,-221.0,149.0,2361.0,-1133.0,0.575944,0.722716,-0.382016,5678.0,15676.0,-12296.0,-1641.0,-3024.0,-4230.0
2859.0,2783.0,2847.0,3095.0,3013.0,0.500671,0.464539,-0.693176,-0.230225,-72.0,-132.0,-169.0,4433.0,3904.0,-6962.0,499.0,-2521.0,-3745.0,4409.0,-1055.0,-267.0,0.480211,0.784335,-0.392614,31402.0,-17434.0,-32768.0,-1648.0,-3004.0,-3869.0
2855.0,2787.0,2859.0,3103.0,3003.0,0.450317,0.487183,-0.726807,-0.177673,511.0,10.0,113.0,8629.0,3519.0,-11297.0,4684.0,-2191.0,-6945.0,6388.0,-3825.0,4417.0,0.481469,0.697042,-0.531241,28988.0,32767.0,-32768.0,11727.0,235.0,2591.0
2832.0,2787.0,2851.0,3091.0,2997.0,0.426331,0.504761,-0.741638,-0.115845,531.0,91.0,140.0,8239.0,6930.0,-12646.0,4016.0,1996.0,-7651.0,3926.0,-499.0,7936.0,0.515418,0.60222,-0.609633,8514.0,32767.0,-32768.0,12181.0,2090.0,3208.0
2861.0,2783.0,2844.0,3095.0,2999.0,0.385254,0.52948,-0.753784,-0.05481,181.0,-37.0,32.0,5179.0,11279.0,-13820.0,896.0,7260.0,-8109.0,-435.0,5030.0,9683.0,0.522755,0.490598,-0.697115,7620.0,32767.0,-25124.0,4167.0,-836.0,734.0
2855.0,2781.0,2853.0,3102.0,2983.0,0.383667,0.531311,-0.751465,-0.075745,-146.0,-31.0,-53.0,6837.0,13508.0,-10498.0,2772.0,9235.0,-4812.0,-4066.0,2953.0,9531.0,0.496137,0.521532,-0.694053,18150.0,31092.0,-15086.0,-3341.0,-701.0,-1209.0
2855.0,2783.0,2854.0,3103.0,2999.0,0.399048,0.527588,-0.743225,-0.100342,-232.0,11.0,-80.0,7467.0,12477.0,-9845.0,3475.0,7805.0,-4426.0,-2835.0,1503.0,9071.0,0.487287,0.570219,-0.661425,17870.0,15862.0,-16882.0,-5303.0,260.0,-1832.0
2854.0,2785.0,2847.0,3095.0,2987.0,0.432251,0.516296,-0.724121,-0.149231,-268.0,17.0,-77.0,6493.0,6494.0,-10510.0,2627.0,1067.0,-5743.0,3575.0,-530.0,5287.0,0.471909,0.662462,-0.581802,8610.0,-8764.0,-21902.0,-6117.0,395.0,-1749.0
2859.0,2773.0,2850.0,3105.0,3007.0,0.453491,0.500732,-0.71344,-0.186035,-187.0,-6.0,-34.0,5130.0,1345.0,-8571.0,1355.0,-4550.0,-4315.0,5961.0,-2335.0,-408.0,0.46077,0.719605,-0.519466,6666.0,-7044.0,-8478.0,-4264.0,-120.0,-775.0
2855.0,2783.0,2846.0,3095.0,3007.0,0.460815,0.494019,-0.710022,-0.198608,-138.0,-7.0,-24.0,4661.0,461.0,-6934.0,907.0,-5579.0,-2867.0,5252.0,-2721.0,-2274.0,0.458146,0.737335,-0.496389,6760.0,-3032.0,-3882.0,-3149.0,-145.0,-527.0
2855.0,2785.0,2851.0,3095.0,3010.0,0.470276,0.487061,-0.704712,-0.212036,-51.0,3.0,-14.0,3823.0,911.0,-4198.0,85.0,-5289.0,-366.0,2887.0,-2320.0,-3793.0,0.456269,0.756954,-0.467728,4958.0,5288.0,-1764.0,-1162.0,90.0,-316.0
2855.0,2785.0,2855.0,3099.0,3003.0,0.472717,0.486023,-0.702942,-0.214966,-25.0,4.0,-9.0,3368.0,1630.0,-3311.0,-364.0,-4610.0,462.0,1838.0,-1756.0,-3890.0,0.455629,0.76172,-0.460674,3966.0,7858.0,-1714.0,-568.0,102.0,-189.0
2855.0,2785.0,2855.0,3099.0,2999.0,0.47406,0.485596,-0.702026,-0.215881,11.0,1.0,7.0,2595.0,3179.0,-2350.0,-1140.0,-3075.0,1396.0,335.0,-547.0,-3505.0,0.455943,0.763512,-0.457307,3328.0,10746.0,-2886.0,268.0,27.0,165.0
2853.0,2789.0,2851.0,3095.0,2991.0,0.471008,0.487,-0.704773,-0.210388,40.0,-4.0,17.0,2185.0,4313.0,-2458.0,-1575.0,-1874.0,1373.0,-148.0,351.0,-2780.0,0.45899,0.755313,-0.467761,3542.0,11802.0,-6310.0,919.0,-85.0,402.0
2847.0,2783.0,2845.0,3095.0,2987.0,0.467773,0.48822,-0.707275,-0.20636,48.0,-9.0,18.0,2169.0,4785.0,-2771.0,-1600.0,-1348.0,1138.0,-174.0,635.0,-2288.0,0.460191,0.748659,-0.477201,4484.0,12248.0,-7534.0,1111.0,-197.0,422.0
2857.0,2787.0,2850.0,3099.0,3007.0,0.459167,0.491577,-0.713379,-0.196411,60.0,-13.0,17.0,2562.0,5472.0,-3518.0,-1222.0,-521.0,587.0,-110.0,747.0,-1239.0,0.462018,0.731664,-0.501145,6760.0,12790.0,-9220.0,1396.0,-280.0,391.0
2854.0,2781.0,2858.0,3093.0,2981.0,0.454712,0.49353,-0.716431,-0.190979,61.0,-11.0,15.0,2843.0,5814.0,-3841.0,-950.0,-104.0,366.0,-157.0,726.0,-702.0,0.463031,0.722475,-0.513609,7344.0,13768.0,-9558.0,1400.0,-243.0,359.0
2851.0,2785.0,2851.0,3095.0,2991.0,0.447266,0.497131,-0.720825,-0.18219,43.0,-7.0,8.0,3299.0,6546.0,-4361.0,-499.0,751.0,9.0,-370.0,767.0,295.0,0.463656,0.707354,-0.533489,7820.0,15250.0,-10094.0,998.0,-155.0,192.0
2859.0,2783.0,2851.0,3094.0,2986.0,0.445007,0.498413,-0.721924,-0.17981,27.0,-5.0,4.0,3492.0,6847.0,-4546.0,-303.0,1086.0,-128.0,-470.0,766.0,692.0,0.463284,0.703213,-0.539227,8136.0,15348.0,-10092.0,639.0,-99.0,97.0
2859.0,2785.0,2849.0,3091.0,2999.0,0.444031,0.499512,-0.722046,-0.178833,-1.0,2.0,-2.0,3766.0,7058.0,-4764.0,-23.0,1308.0,-326.0,-466.0,652.0,1083.0,0.462563,0.701848,-0.541718,8026.0,14178.0,-10026.0,-20.0,67.0,-38.0
2851.0,2783.0,2855.0,3103.0,2991.0,0.444763,0.499573,-0.721313,-0.179626,-10.0,4.0,-5.0,3803.0,6953.0,-4829.0,17.0,1189.0,-407.0,-334.0,579.0,1064.0,0.462154,0.703517,-0.539786,7776.0,13060.0,-9982.0,-215.0,114.0,-95.0
2863.0,2786.0,2847.0,3099.0,3007.0,0.44696,0.499573,-0.71936,-0.182129,-15.0,5.0,-7.0,3786.0,6513.0,-4786.0,8.0,708.0,-410.0,-56.0,376.0,724.0,0.461078,0.708611,-0.534108,7436.0,11528.0,-9228.0,-336.0,121.0,-160.0
2855.0,2785.0,2851.0,3095.0,3005.0,0.447876,0.499573,-0.718445,-0.183411,-14.0,3.0,-8.0,3746.0,6249.0,-4717.0,-24.0,424.0,-362.0,66.0,271.0,482.0,0.460294,0.711034,-0.531503,7226.0,10914.0,-8988.0,-302.0,89.0,-169.0
2853.0,2781.0,2859.0,3102.0,2994.0,0.448792,0.499878,-0.717224,-0.185242,-6.0,1.0,-6.0,3659.0,5762.0,-4525.0,-97.0,-90.0,-195.0,220.0,82.0,-5.0,0.458572,0.714402,-0.52856,7036.0,10236.0,-8394.0,-132.0,25.0,-131.0
2863.0,2787.0,2854.0,3095.0,2995.0,0.448853,0.500183,-0.716919,-0.185547,-2.0,0.0,-5.0,3602.0,5607.0,-4443.0,-149.0,-250.0,-115.0,247.0,45.0,-186.0,0.457967,0.715061,-0.52826,6856.0,10404.0,-8456.0,-37.0,6.0,-93.0
2859.0,2779.0,2859.0,3095.0,3007.0,0.448181,0.500732,-0.716919,-0.185425,3.0,-2.0,-1.0,3497.0,5512.0,-4368.0,-246.0,-342.0,-30.0,237.0,76.0,-340.0,0.456923,0.714707,-0.529457,6680.0,11050.0,-8654.0,77.0,-26.0,-17.0
2859.0,2783.0,2847.0,3095.0,2999.0,0.447693,0.500916,-0.717163,-0.185181,3.0,-2.0,0.0,3466.0,5558.0,-4367.0,-274.0,-292.0,-20.0,204.0,120.0,-323.0,0.456618,0.714122,-0.530518,6798.0,11502.0,-8718.0,84.0,-40.0,20.0
2855.0,2781.0,2858.0,3099.0,2991.0,0.447144,0.500793,-0.717712,-0.184814,1.0,-1.0,3.0,3446.0,5727.0,-4391.0,-295.0,-115.0,-34.0,120.0,217.0,-198.0,0.456733,0.71314,-0.531811,6788.0,11884.0,-8888.0,35.0,-22.0,79.0
2853.0,2783.0,2846.0,3101.0,3018.0,0.44696,0.50061,-0.718018,-0.184692,1.0,-1.0,4.0,3422.0,5785.0,-4410.0,-321.0,-53.0,-49.0,101.0,269.0,-158.0,0.456933,0.712731,-0.532275,6686.0,11904.0,-8928.0,26.0,-21.0,93.0
2859.0,2787.0,2859.0,3093.0,3005.0,0.446594,0.500122,-0.718567,-0.18457,0.0,-2.0,3.0,3369.0,5913.0,-4405.0,-376.0,80.0,-39.0,25.0,373.0,-94.0,0.4572,0.711955,-0.532948,6590.0,12232.0,-8706.0,15.0,-31.0,86.0
2861.0,2782.0,2853.0,3103.0,3003.0,0.446472,0.499939,-0.71875,-0.184631,-1.0,-2.0,2.0,3363.0,5987.0,-4371.0,-382.0,155.0,-3.0,-44.0,404.0,-62.0,0.457195,0.711825,-0.533114,6692.0,12422.0,-8532.0,-3.0,-26.0,64.0
2858.0,2781.0,2851.0,3094.0,3010.0,0.446655,0.499573,-0.71875,-0.185303,-3.0,-1.0,1.0,3358.0,6089.0,-4293.0,-385.0,251.0,67.0,-154.0,436.0,-32.0,0.456923,0.712646,-0.532336,6706.0,12392.0,-8336.0,-59.0,-4.0,26.0
2858.0,2783.0,2847.0,3103.0,3003.0,0.446899,0.49939,-0.718567,-0.185791,-4.0,0.0,0.0,3369.0,6104.0,-4255.0,-372.0,260.0,98.0,-186.0,423.0,-36.0,0.45669,0.71336,-0.531491,6824.0,12240.0,-8286.0,-84.0,9.0,12.0
2855.0,2783.0,2850.0,3099.0,3011.0,0.447571,0.499146,-0.71814,-0.186584,-4.0,1.0,0.0,3379.0,6000.0,-4219.0,-361.0,144.0,120.0,-142.0,359.0,-125.0,0.456571,0.714793,-0.529737,6716.0,11506.0,-8372.0,-76.0,36.0,5.0
2858.0,2783.0,2859.0,3101.0,2999.0,0.447754,0.499084,-0.718018,-0.186707,-2.0,1.0,0.0,3366.0,5913.0,-4220.0,-374.0,55.0,115.0,-87.0,333.0,-192.0,0.456626,0.715051,-0.529292,6618.0,11324.0,-8446.0,-32.0,28.0,5.0
2855.0,2782.0,2851.0,3099.0,2993.0,0.447571,0.499268,-0.718018,-0.186646,2.0,0.0,0.0,3358.0,5824.0,-4250.0,-380.0,-32.0,88.0,-17.0,306.0,-242.0,0.456355,0.714945,-0.529661,6744.0,11512.0,-8650.0,47.0,2.0,3.0
2855.0,2786.0,2851.0,3091.0,2999.0,0.447266,0.499512,-0.718079,-0.186462,3.0,-1.0,-1.0,3366.0,5817.0,-4281.0,-370.0,-37.0,63.0,5.0,299.0,-228.0,0.456063,0.714618,-0.530334,6802.0,11606.0,-8750.0,71.0,-5.0,-1.0
2859.0,2785.0,2847.0,3095.0,3003.0,0.446533,0.5,-0.718323,-0.186096,3.0,-1.0,0.0,3391.0,5825.0,-4346.0,-339.0,-23.0,11.0,37.0,287.0,-176.0,0.455414,0.713887,-0.531964,6840.0,11726.0,-8918.0,89.0,-20.0,1.0
2855.0,2790.0,2859.0,3095.0,2999.0,0.446106,0.500244,-0.718445,-0.185913,3.0,-2.0,0.0,3406.0,5839.0,-4380.0,-321.0,-5.0,-15.0,47.0,284.0,-141.0,0.455001,0.71346,-0.532833,6904.0,11760.0,-8946.0,81.0,-24.0,1.0
2855.0,2783.0,2859.0,3107.0,3003.0,0.445374,0.50061,-0.71875,-0.185669,2.0,-2.0,0.0,3451.0,5860.0,-4447.0,-270.0,20.0,-69.0,73.0,259.0,-71.0,0.454329,0.712816,-0.534382,7092.0,11726.0,-9102.0,48.0,-29.0,5.0
2859.0,2783.0,2849.0,3099.0,2994.0,0.445068,0.500671,-0.718872,-0.185669,1.0,-2.0,0.0,3480.0,5872.0,-4472.0,-238.0,34.0,-90.0,79.0,241.0,-35.0,0.453976,0.71261,-0.53489,7132.0,11838.0,-9066.0,26.0,-26.0,10.0
2854.0,2786.0,2847.0,3095.0,2987.0,0.444824,0.50061,-0.718994,-0.185852,-2.0,-2.0,0.0,3517.0,5902.0,-4503.0,-198.0,64.0,-119.0,83.0,223.0,19.0,0.453573,0.71262,-0.535154,7116.0,11854.0,-9056.0,-27.0,-24.0,13.0
2862.0,2783.0,2851.0,3102.0,3015.0,0.444763,0.500488,-0.719055,-0.186157,-3.0,-2.0,0.0,3529.0,5910.0,-4496.0,-184.0,69.0,-112.0,73.0,212.0,25.0,0.45328,0.712912,-0.53506,7122.0,11870.0,-8950.0,-51.0,-23.0,12.0
2851.0,2779.0,2847.0,3095.0,2992.0,0.444946,0.500122,-0.718994,-0.18689,-4.0,-1.0,0.0,3515.0,5941.0,-4434.0,-195.0,93.0,-58.0,16.0,222.0,9.0,0.452892,0.7138,-0.53417,6940.0,11990.0,-8650.0,-85.0,-14.0,4.0
2815.0,2783.0,2847.0,3095.0,2998.0,0.445129,0.499939,-0.718872,-0.187378,-5.0,-1.0,0.0,3496.0,5939.0,-4397.0,-211.0,86.0,-26.0,-4.0,228.0,-20.0,0.452627,0.714477,-0.533465,6882.0,11838.0,-8576.0,-98.0,-6.0,2.0
2855.0,2783.0,2843.0,3093.0,2993.0,0.445618,0.499573,-0.718628,-0.188232,-4.0,0.0,0.0,3438.0,5897.0,-4315.0,-268.0,33.0,43.0,-25.0,244.0,-120.0,0.452395,0.715775,-0.531992,6702.0,11656.0,-8400.0,-77.0,11.0,13.0
2854.0,2782.0,2845.0,3099.0,3007.0,0.445801,0.49939,-0.718567,-0.188477,-3.0,0.0,0.0,3406.0,5872.0,-4281.0,-300.0,5.0,72.0,-31.0,255.0,-170.0,0.452429,0.716123,-0.531467,6624.0,11586.0,-8368.0,-55.0,12.0,15.0
2861.0,2783.0,2849.0,3093.0,2983.0,0.445923,0.499329,-0.718445,-0.188843,-1.0,0.0,0.0,3360.0,5856.0,-4232.0,-344.0,-14.0,117.0,-53.0,278.0,-227.0,0.452153,0.71667,-0.530983,6652.0,11674.0,-8438.0,-16.0,5.0,9.0
2857.0,2788.0,2890.0,3095.0,2983.0,0.445923,0.499329,-0.718384,-0.188965,0.0,0.0,0.0,3353.0,5853.0,-4247.0,-349.0,-19.0,101.0,-37.0,283.0,-224.0,0.451976,0.716823,-0.530849,6688.0,11688.0,-8576.0,2.0,5.0,9.0
2855.0,2783.0,2847.0,3103.0,2991.0,0.445618,0.499512,-0.718506,-0.188843,1.0,-1.0,0.0,3372.0,5848.0,-4294.0,-328.0,-21.0,60.0,-4.0,271.0,-195.0,0.451699,0.716552,-0.531526,6840.0,11694.0,-8760.0,42.0,-2.0,12.0
2855.0,2783.0,2850.0,3091.0,2995.0,0.445435,0.499634,-0.718567,-0.188721,2.0,-1.0,0.0,3387.0,5854.0,-4327.0,-312.0,-14.0,30.0,15.0,265.0,-166.0,0.451567,0.716325,-0.531945,6868.0,11752.0,-8870.0,47.0,-7.0,13.0
2859.0,2785.0,2851.0,3095.0,2999.0,0.445007,0.499756,-0.71875,-0.188599,0.0,-1.0,0.0,3441.0,5875.0,-4398.0,-255.0,10.0,-33.0,48.0,236.0,-90.0,0.451191,0.715901,-0.532757,7116.0,11860.0,-9038.0,18.0,-9.0,15.0
2837.0,2787.0,2853.0,3105.0,2993.0,0.445007,0.499756,-0.718811,-0.188599,-1.0,-1.0,0.0,3473.0,5900.0,-4425.0,-223.0,35.0,-59.0,52.0,222.0,-44.0,0.451246,0.715924,-0.532844,7114.0,11968.0,-9018.0,-13.0,0.0,17.0
2855.0,2783.0,2847.0,3095.0,2995.0,0.44519,0.499512,-0.71875,-0.188965,-3.0,0.0,0.0,3495.0,5909.0,-4459.0,-201.0,40.0,-99.0,81.0,212.0,-9.0,0.451181,0.716393,-0.532211,6958.0,11780.0,-8926.0,-63.0,8.0,11.0
2859.0,2783.0,2847.0,3091.0,3003.0,0.445312,0.49939,-0.718689,-0.18927,-4.0,0.0,0.0,3484.0,5903.0,-4459.0,-210.0,30.0,-102.0,90.0,216.0,-18.0,0.451043,0.716821,-0.531777,6906.0,11772.0,-8898.0,-73.0,2.0,7.0
2855.0,2785.0,2851.0,3101.0,2997.0,0.445435,0.499146,-0.718567,-0.190002,-3.0,-1.0,-1.0,3459.0,5906.0,-4420.0,-231.0,26.0,-70.0,68.0,227.0,-48.0,0.450471,0.717732,-0.530972,6856.0,11860.0,-8718.0,-64.0,-19.0,-3.0
2861.0,2781.0,2851.0,3103.0,3003.0,0.445374,0.499084,-0.718567,-0.190369,-3.0,-2.0,-1.0,3443.0,5915.0,-4397.0,-243.0,31.0,-48.0,48.0,237.0,-61.0,0.450041,0.718143,-0.530826,6788.0,11896.0,-8638.0,-54.0,-24.0,-3.0
2853.0,2775.0,2851.0,3101.0,3003.0,0.445374,0.498901,-0.718506,-0.191101,-2.0,-1.0,0.0,3426.0,5924.0,-4335.0,-254.0,33.0,9.0,1.0,237.0,-95.0,0.449326,0.719009,-0.530276,6852.0,11806.0,-8434.0,-44.0,-21.0,0.0
2855.0,2779.0,2832.0,3091.0,3007.0,0.445374,0.49884,-0.718445,-0.191345,-2.0,-1.0,0.0,3418.0,5914.0,-4301.0,-260.0,21.0,41.0,-18.0,232.0,-123.0,0.449051,0.719283,-0.530034,6780.0,11748.0,-8400.0,-41.0,-13.0,8.0
2855.0,2783.0,2847.0,3095.0,2999.0,0.445496,0.498596,-0.718445,-0.191711,-2.0,-1.0,1.0,3401.0,5884.0,-4253.0,-276.0,-11.0,85.0,-35.0,225.0,-176.0,0.448955,0.719713,-0.529541,6792.0,11684.0,-8316.0,-28.0,-1.0,28.0
2857.0,2783.0,2854.0,3091.0,2987.0,0.445557,0.498474,-0.718506,-0.191772,-1.0,0.0,1.0,3394.0,5878.0,-4234.0,-284.0,-18.0,103.0,-45.0,226.0,-195.0,0.449083,0.719776,-0.52943,6756.0,11728.0,-8348.0,-16.0,3.0,30.0
2859.0,2783.0,2853.0,3091.0,2999.0,0.445557,0.498352,-0.718567,-0.191895,0.0,-1.0,0.0,3390.0,5876.0,-4231.0,-288.0,-21.0,105.0,-45.0,228.0,-200.0,0.449062,0.719866,-0.529349,6762.0,11708.0,-8482.0,11.0,-4.0,21.0
2858.0,2783.0,2853.0,3103.0,3007.0,0.445435,0.498352,-0.718628,-0.191833,1.0,-1.0,0.0,3398.0,5880.0,-4232.0,-280.0,-15.0,106.0,-50.0,224.0,-192.0,0.449002,0.71968,-0.529569,6836.0,11786.0,-8498.0,28.0,-7.0,19.0
2863.0,2783.0,2854.0,3095.0,2999.0,0.445068,0.498535,-0.718811,-0.191589,2.0,-1.0,0.0,3433.0,5878.0,-4266.0,-243.0,-13.0,79.0,-32.0,196.0,-160.0,0.448812,0.719198,-0.530434,6976.0,11748.0,-8602.0,64.0,-11.0,15.0
2855.0,2783.0,2846.0,3099.0,2992.0,0.444824,0.498718,-0.718933,-0.191345,3.0,-1.0,0.0,3445.0,5887.0,-4278.0,-231.0,-1.0,72.0,-34.0,192.0,-142.0,0.448743,0.718813,-0.531103,6942.0,11816.0,-8622.0,77.0,-8.0,16.0
2855.0,2783.0,2852.0,3094.0,2979.0,0.444275,0.499023,-0.719116,-0.190857,3.0,-1.0,0.0,3462.0,5917.0,-4324.0,-212.0,35.0,36.0,-26.0,197.0,-89.0,0.448486,0.717904,-0.532346,6926.0,11924.0,-8856.0,72.0,-4.0,13.0
2855.0,2787.0,2851.0,3103.0,2993.0,0.444092,0.499146,-0.719238,-0.190674,2.0,-1.0,0.0,3461.0,5929.0,-4342.0,-212.0,50.0,23.0,-23.0,205.0,-71.0,0.448468,0.717613,-0.532876,6920.0,11916.0,-8746.0,56.0,-2.0,10.0
2835.0,2787.0,2858.0,3103.0,3006.0,0.443848,0.499329,-0.719299,-0.190613,0.0,0.0,0.0,3464.0,5943.0,-4366.0,-207.0,65.0,3.0,-15.0,211.0,-47.0,0.448162,0.717467,-0.533387,6920.0,11918.0,-8738.0,12.0,2.0,6.0
2859.0,2779.0,2855.0,3095.0,2988.0,0.443848,0.499329,-0.719238,-0.190613,-1.0,0.0,0.0,3459.0,5945.0,-4364.0,-211.0,67.0,4.0,-17.0,215.0,-48.0,0.448108,0.717444,-0.533299,6862.0,11886.0,-8768.0,-6.0,8.0,9.0
2859.0,2783.0,2851.0,3101.0,2998.0,0.443787,0.499329,-0.719238,-0.190857,-1.0,-1.0,0.0,3416.0,5917.0,-4359.0,-252.0,37.0,9.0,0.0,238.0,-91.0,0.447776,0.717734,-0.53326,6720.0,11704.0,-8688.0,-7.0,0.0,6.0
2855.0,2787.0,2853.0,3095.0,2991.0,0.443726,0.49939,-0.719238,-0.190918,0.0,-1.0,0.0,3404.0,5898.0,-4349.0,-262.0,17.0,20.0,2.0,236.0,-115.0,0.447604,0.717815,-0.533352,6744.0,11690.0,-8620.0,1.0,-6.0,4.0
2859.0,2783.0,2851.0,3103.0,2994.0,0.443542,0.499451,-0.719299,-0.190979,0.0,-1.0,0.0,3404.0,5873.0,-4328.0,-260.0,-7.0,43.0,-3.0,220.0,-144.0,0.44731,0.717797,-0.53364,6808.0,11700.0,-8630.0,12.0,-9.0,16.0
2863.0,2779.0,2851.0,3103.0,2999.0,0.44342,0.499451,-0.71936,-0.190979,0.0,-1.0,0.0,3413.0,5863.0,-4331.0,-250.0,-16.0,42.0,0.0,208.0,-145.0,0.447189,0.717699,-0.533836,6892.0,11670.0,-8686.0,12.0,-5.0,19.0
2855.0,2783.0,2853.0,3101.0,2990.0,0.443298,0.49939,-0.719543,-0.190796,0.0,-1.0,1.0,3436.0,5835.0,-4363.0,-228.0,-41.0,13.0,36.0,182.0,-138.0,0.447382,0.717329,-0.534216,6930.0,11586.0,-8808.0,19.0,-3.0,29.0
2862.0,2787.0,2852.0,3091.0,2998.0,0.443176,0.499329,-0.719666,-0.190674,0.0,-1.0,1.0,3444.0,5829.0,-4370.0,-221.0,-44.0,8.0,41.0,175.0,-134.0,0.44746,0.717024,-0.534486,6914.0,11628.0,-8790.0,21.0,-2.0,37.0
2862.0,2783.0,2851.0,3095.0,2994.0,0.442932,0.499207,-0.719971,-0.190491,1.0,-1.0,1.0,3436.0,5841.0,-4403.0,-230.0,-28.0,-19.0,56.0,195.0,-112.0,0.447608,0.716525,-0.535089,6870.0,11786.0,-8886.0,25.0,-20.0,38.0
2855.0,2778.0,2847.0,3095.0,3003.0,0.442688,0.499146,-0.720093,-0.19043,1.0,-2.0,1.0,3446.0,5862.0,-4400.0,-219.0,-4.0,-13.0,36.0,194.0,-93.0,0.447449,0.716186,-0.535444,6966.0,11866.0,-8730.0,24.0,-24.0,32.0
2855.0,2783.0,2850.0,3099.0,3001.0,0.442566,0.499084,-0.720276,-0.190552,-1.0,-1.0,0.0,3487.0,5927.0,-4376.0,-177.0,59.0,12.0,-22.0,180.0,-43.0,0.447336,0.716255,-0.535708,7096.0,12068.0,-8704.0,-9.0,-14.0,12.0
2855.0,2783.0,2855.0,3095.0,2997.0,0.442566,0.499023,-0.720215,-0.190735,-2.0,-1.0,0.0,3494.0,5952.0,-4373.0,-168.0,82.0,13.0,-37.0,182.0,-23.0,0.447123,0.716442,-0.535489,7004.0,12030.0,-8724.0,-28.0,-3.0,4.0
2855.0,2781.0,2851.0,3094.0,2995.0,0.442749,0.498901,-0.720032,-0.191162,-2.0,0.0,-1.0,3498.0,5947.0,-4353.0,-162.0,72.0,27.0,-44.0,170.0,-35.0,0.446845,0.717062,-0.534779,7032.0,11818.0,-8572.0,-41.0,7.0,-7.0
2855.0,2783.0,2848.0,3071.0,3007.0,0.442871,0.498901,-0.719971,-0.191345,-2.0,0.0,-1.0,3496.0,5920.0,-4349.0,-164.0,42.0,29.0,-29.0,158.0,-58.0,0.446784,0.717424,-0.534513,6960.0,11672.0,-8710.0,-33.0,9.0,-6.0
2857.0,2779.0,2851.0,3099.0,2987.0,0.44281,0.498962,-0.71991,-0.191589,-1.0,-1.0,-1.0,3478.0,5869.0,-4359.0,-178.0,-10.0,19.0,9.0,150.0,-96.0,0.446375,0.717745,-0.534446,6948.0,11604.0,-8742.0,0.0,-5.0,-4.0
2861.0,2787.0,2855.0,3090.0,3003.0,0.442749,0.499023,-0.71991,-0.191589,0.0,-1.0,-1.0,3478.0,5860.0,-4342.0,-177.0,-19.0,37.0,0.0,142.0,-112.0,0.446263,0.717738,-0.534561,6978.0,11680.0,-8562.0,9.0,-6.0,-3.0
2855.0,2785.0,2853.0,3089.0,2993.0,0.442627,0.499084,-0.71991,-0.191589,0.0,0.0,0.0,3468.0,5837.0,-4316.0,-186.0,-42.0,64.0,-9.0,136.0,-147.0,0.446064,0.717671,-0.53473,6844.0,11610.0,-8604.0,16.0,1.0,1.0
2855.0,2783.0,2851.0,3101.0,2998.0,0.442505,0.499207,-0.71991,-0.191589,1.0,-1.0,0.0,3447.0,5836.0,-4334.0,-205.0,-43.0,48.0,6.0,155.0,-147.0,0.445842,0.717657,-0.53496,6788.0,11696.0,-8830.0,30.0,-5.0,0.0
2855.0,2783.0,2851.0,3091.0,2992.0,0.4422,0.499451,-0.719971,-0.191467,1.0,0.0,-1.0,3449.0,5879.0,-4356.0,-200.0,1.0,31.0,-4.0,172.0,-104.0,0.445485,0.717416,-0.535609,6904.0,11902.0,-8728.0,33.0,1.0,-1.0
2857.0,2785.0,2850.0,3102.0,2991.0,0.442078,0.499573,-0.719971,-0.191406,0.0,0.0,-1.0,3444.0,5900.0,-4366.0,-204.0,23.0,23.0,-9.0,187.0,-86.0,0.445323,0.717314,-0.535862,6846.0,11914.0,-8790.0,16.0,11.0,-2.0
2859.0,2785.0,2853.0,3095.0,2991.0,0.442139,0.499695,-0.719788,-0.191589,-1.0,0.0,-1.0,3440.0,5901.0,-4376.0,-205.0,21.0,11.0,1.0,189.0,-82.0,0.445019,0.717676,-0.535596,6898.0,11750.0,-8742.0,-14.0,13.0,-7.0
2853.0,2779.0,2847.0,3095.0,2999.0,0.442139,0.499756,-0.719727,-0.19165,-1.0,0.0,-1.0,3437.0,5884.0,-4375.0,-207.0,3.0,12.0,11.0,183.0,-96.0,0.444881,0.717795,-0.535546,6848.0,11662.0,-8754.0,-12.0,10.0,-7.0
2854.0,2783.0,2847.0,3095.0,2993.0,0.442078,0.499817,-0.719727,-0.19165,0.0,0.0,0.0,3447.0,5837.0,-4355.0,-196.0,-43.0,33.0,17.0,150.0,-135.0,0.44477,0.717788,-0.535661,6936.0,11578.0,-8588.0,15.0,5.0,5.0
2861.0,2786.0,2851.0,3103.0,2999.0,0.442017,0.499878,-0.719727,-0.191589,1.0,0.0,0.0,3447.0,5830.0,-4341.0,-196.0,-49.0,48.0,8.0,145.0,-148.0,0.44472,0.717693,-0.535799,6876.0,11640.0,-8612.0,25.0,4.0,14.0
2859.0,2783.0,2855.0,3103.0,2994.0,0.441772,0.5,-0.719849,-0.191345,1.0,-1.0,0.0,3427.0,5841.0,-4349.0,-215.0,-34.0,45.0,5.0,169.0,-144.0,0.444673,0.717252,-0.536406,6802.0,11782.0,-8810.0,43.0,-5.0,11.0
2859.0,2783.0,2851.0,3095.0,2995.0,0.441589,0.500122,-0.71991,-0.191223,1.0,-1.0,0.0,3445.0,5867.0,-4354.0,-196.0,-6.0,43.0,-10.0,164.0,-114.0,0.444539,0.717024,-0.536825,7012.0,11922.0,-8714.0,36.0,-5.0,8.0
88.0,-282.0,-168.0,52.0,-55.0,-35.0,-325.0,0.873075,0.485789,0.04094,13742.0,7470.0,904.0,-15.0,-12.0,2.0,,,,,,,,,,,,,,
2858.0,2783.0,2847.0,3102.0,3003.0,0.720764,0.307922,-0.620056,-0.033691,-2.0,-1.0,-1.0,6871.0,3796.0,386.0,-281.0,-182.0,47.0,-46.0,-45.0,-331.0,0.87308,0.48566,0.04135,13784.0,7522.0,688.0,-23.0,-1.0,-4.0
2854.0,2781.0,2851.0,3091.0,2992.0,0.720825,0.307861,-0.620056,-0.033752,-1.0,-1.0,-1.0,6869.0,3802.0,377.0,-283.0,-176.0,37.0,-39.0,-35.0,-331.0,0.873122,0.485685,0.04148,13712.0,7668.0,684.0,-15.0,-1.0,-3.0
2843.0,2782.0,2847.0,3095.0,2995.0,0.720825,0.307861,-0.620056,-0.033875,0.0,0.0,-1.0,6882.0,3821.0,369.0,-270.0,-158.0,29.0,-35.0,-23.0,-311.0,0.873047,0.485837,0.041488,13816.0,7708.0,754.0,3.0,4.0,-5.0
2855.0,2781.0,2846.0,3099.0,2997.0,0.720886,0.307922,-0.619995,-0.033813,0.0,0.0,-1.0,6884.0,3847.0,372.0,-268.0,-133.0,31.0,-45.0,-4.0,-297.0,0.873068,0.485882,0.04161,13786.0,7880.0,790.0,5.0,5.0,-1.0
2855.0,2779.0,2833.0,3091.0,2995.0,0.720886,0.307922,-0.619934,-0.033875,-1.0,0.0,0.0,6885.0,3881.0,390.0,-266.0,-99.0,48.0,-71.0,15.0,-278.0,0.872942,0.485954,0.04169,13764.0,7956.0,868.0,-1.0,5.0,4.0
2859.0,2779.0,2851.0,3095.0,3003.0,0.721069,0.3078,-0.619812,-0.033997,-2.0,-1.0,0.0,6856.0,3901.0,418.0,-295.0,-80.0,72.0,-106.0,33.0,-293.0,0.872927,0.486034,0.042189,13622.0,7798.0,934.0,-27.0,-2.0,3.0
2853.0,2786.0,2853.0,3095.0,2995.0,0.72113,0.307678,-0.619812,-0.03418,-2.0,-1.0,0.0,6849.0,3892.0,424.0,-301.0,-90.0,76.0,-108.0,26.0,-303.0,0.872898,0.486122,0.042364,13652.0,7712.0,882.0,-34.0,-7.0,2.0
2857.0,2783.0,2847.0,3093.0,2995.0,0.721252,0.307373,-0.619751,-0.034485,-2.0,-1.0,-1.0,6850.0,3873.0,399.0,-299.0,-109.0,48.0,-76.0,21.0,-311.0,0.872794,0.486131,0.042825,13738.0,7708.0,720.0,-39.0,-5.0,-5.0
2853.0,2783.0,2839.0,3094.0,2999.0,0.721252,0.307251,-0.619751,-0.034607,-2.0,-1.0,-1.0,6857.0,3852.0,375.0,-292.0,-130.0,23.0,-44.0,11.0,-317.0,0.872728,0.486106,0.042908,13748.0,7562.0,630.0,-36.0,-2.0,-5.0
2854.0,2783.0,2847.0,3090.0,2993.0,0.721375,0.307068,-0.619812,-0.034729,-1.0,-1.0,0.0,6862.0,3808.0,369.0,-288.0,-173.0,15.0,-22.0,-21.0,-334.0,0.872905,0.486073,0.04313,13730.0,7486.0,810.0,-15.0,-1.0,3.0
2857.0,2778.0,2853.0,3099.0,2997.0,0.721375,0.306946,-0.619751,-0.034729,-1.0,0.0,0.0,6864.0,3793.0,383.0,-286.0,-187.0,28.0,-29.0,-39.0,-339.0,0.872825,0.485892,0.04328,13740.0,7508.0,814.0,-10.0,1.0,4.0
2858.0,2787.0,2853.0,3101.0,2999.0,0.721497,0.306824,-0.619751,-0.034729,-1.0,-1.0,0.0,6870.0,3777.0,393.0,-281.0,-202.0,36.0,-30.0,-56.0,-341.0,0.872985,0.485791,0.043531,13780.0,7546.0,788.0,-11.0,0.0,0.0
2855.0,2781.0,2847.0,3095.0,2993.0,0.721497,0.306763,-0.619751,-0.03479,-1.0,0.0,-1.0,6873.0,3776.0,391.0,-278.0,-203.0,34.0,-27.0,-58.0,-339.0,0.872952,0.485779,0.043573,13772.0,7560.0,758.0,-12.0,1.0,-2.0
2854.0,2781.0,2846.0,3067.0,2999.0,0.721619,0.306641,-0.61969,-0.03479,-1.0,0.0,-1.0,6878.0,3778.0,380.0,-273.0,-200.0,20.0,-15.0,-52.0,-334.0,0.873024,0.485673,0.0439,13746.0,7552.0,678.0,-6.0,5.0,-4.0
2855.0,2781.0,2851.0,3095.0,2995.0,0.721619,0.306641,-0.61969,-0.03479,-1.0,0.0,-1.0,6886.0,3779.0,383.0,-265.0,-199.0,23.0,-16.0,-56.0,-326.0,0.873024,0.485673,0.0439,13846.0,7562.0,810.0,0.0,5.0,-6.0
2853.0,2779.0,2850.0,3062.0,2995.0,0.721619,0.306763,-0.619568,-0.034729,0.0,0.0,-1.0,6887.0,3813.0,373.0,-263.0,-166.0,12.0,-16.0,-25.0,-309.0,0.872876,0.485765,0.043972,13764.0,7842.0,662.0,16.0,2.0,-3.0
2855.0,2779.0,2847.0,3095.0,2993.0,0.721619,0.306824,-0.619568,-0.034729,0.0,-1.0,-1.0,6884.0,3850.0,365.0,-266.0,-130.0,5.0,-22.0,7.0,-295.0,0.872872,0.485853,0.043934,13744.0,7922.0,700.0,11.0,-3.0,-2.0
2855.0,2779.0,2851.0,3095.0,2992.0,0.721619,0.306824,-0.619568,-0.034912,-2.0,-1.0,-1.0,6880.0,3918.0,379.0,-269.0,-63.0,18.0,-57.0,57.0,-264.0,0.87276,0.48608,0.043947,13766.0,7992.0,836.0,-24.0,-5.0,-2.0
2853.0,2782.0,2851.0,3093.0,2995.0,0.721741,0.306763,-0.619507,-0.035095,-2.0,0.0,-1.0,6880.0,3915.0,397.0,-269.0,-68.0,34.0,-70.0,47.0,-266.0,0.872715,0.48629,0.044249,13748.0,7768.0,922.0,-40.0,4.0,-4.0
2855.0,2785.0,2855.0,3099.0,2995.0,0.721924,0.306519,-0.619385,-0.035339,-2.0,0.0,-1.0,6872.0,3866.0,416.0,-276.0,-118.0,48.0,-68.0,4.0,-296.0,0.872633,0.486343,0.044832,13756.0,7582.0,834.0,-24.0,2.0,-6.0
2861.0,2782.0,2847.0,3094.0,3007.0,0.721985,0.306458,-0.619324,-0.0354,-1.0,0.0,-1.0,6874.0,3851.0,421.0,-274.0,-133.0,52.0,-67.0,-10.0,-301.0,0.872587,0.486364,0.045037,13728.0,7600.0,890.0,-10.0,3.0,-8.0
2850.0,2778.0,2847.0,3090.0,2999.0,0.722046,0.306458,-0.619263,-0.035522,-1.0,0.0,-1.0,6875.0,3864.0,408.0,-272.0,-121.0,37.0,-56.0,4.0,-294.0,0.8725,0.486548,0.04521,13760.0,7818.0,790.0,-9.0,1.0,-8.0
2854.0,2785.0,2853.0,3095.0,2993.0,0.722046,0.306458,-0.619202,-0.035583,-1.0,-1.0,-1.0,6873.0,3876.0,388.0,-273.0,-110.0,16.0,-41.0,22.0,-290.0,0.872374,0.48662,0.04529,13724.0,7838.0,662.0,-19.0,-3.0,-7.0
2853.0,2778.0,2853.0,3099.0,2995.0,0.722107,0.306335,-0.619202,-0.035889,-2.0,-1.0,-1.0,6863.0,3884.0,354.0,-282.0,-104.0,-18.0,-14.0,44.0,-297.0,0.872272,0.486859,0.045474,13682.0,7714.0,652.0,-27.0,-2.0,-4.0
2855.0,2781.0,2851.0,3090.0,2992.0,0.722107,0.306213,-0.619202,-0.036011,-2.0,0.0,-1.0,6854.0,3870.0,358.0,-291.0,-118.0,-15.0,-14.0,35.0,-311.0,0.872206,0.486833,0.045558,13642.0,7644.0,776.0,-27.0,1.0,-5.0
2854.0,2778.0,2847.0,3091.0,3003.0,0.72229,0.306091,-0.61908,-0.036194,-1.0,0.0,-1.0,6849.0,3844.0,382.0,-295.0,-145.0,4.0,-24.0,8.0,-327.0,0.872153,0.486987,0.046061,13704.0,7604.0,854.0,-20.0,10.0,-8.0
2854.0,2781.0,2854.0,3095.0,2991.0,0.722351,0.30603,-0.619019,-0.036194,-1.0,0.0,-1.0,6852.0,3832.0,391.0,-292.0,-156.0,12.0,-27.0,-5.0,-330.0,0.872145,0.486932,0.046263,13730.0,7602.0,826.0,-12.0,10.0,-4.0
