flex_1,flex_2,flex_3,flex_4,flex_5,Qw,Qx,Qy,Qz,GYRx,GYRy,GYRz,ACCx,ACCy,ACCz,ACCx_real,ACCy_real,ACCz_real,ACCx_world,ACCy_world,ACCz_world,GRAx,GRAy,GRAz,ACCx_raw,ACCy_raw,ACCz_raw,GYRx_raw,GYRy_raw,GYRz_raw
2866.0,2775.0,2862.0,3111.0,2999.0,1.0,0.0,0.0,0.0,0.0,0.0,0.0,0.0,0.0,0.0,0.0,0.0,0.0,0.0,0.0,0.0,0.0,0.0,0.0,0.0,0.0,0.0,0.0,0.0,0.0
2871.0,2785.0,2847.0,3103.0,3010.0,0.859131,-0.042664,-0.50885,0.03302,0.0,1.0,0.0,7809.0,-1172.0,853.0,669.0,-296.0,-3066.0,3014.0,-348.0,-852.0,0.87152,-0.106912,0.478448,15690.0,-2380.0,1794.0,21.0,32.0,0.0
2871.0,2784.0,2851.0,3103.0,3005.0,0.85791,-0.042908,-0.510864,0.033081,0.0,1.0,-1.0,7807.0,-1157.0,894.0,649.0,-277.0,-2991.0,2942.0,-329.0,-821.0,0.873712,-0.107422,0.474281,15586.0,-2220.0,1912.0,11.0,45.0,-8.0
2866.0,2781.0,2854.0,3102.0,3015.0,0.857361,-0.04303,-0.511841,0.033081,-1.0,1.0,-1.0,7792.0,-1142.0,921.0,625.0,-260.0,-2948.0,2895.0,-313.0,-817.0,0.874818,-0.107649,0.472329,15490.0,-2186.0,2028.0,-1.0,37.0,-5.0
2871.0,2779.0,2859.0,3099.0,2998.0,0.856018,-0.043457,-0.513977,0.03302,-1.0,0.0,0.0,7772.0,-1121.0,954.0,586.0,-233.0,-2878.0,2818.0,-288.0,-807.0,0.877077,-0.108343,0.467796,15530.0,-2242.0,1942.0,-20.0,2.0,7.0
2864.0,2787.0,2863.0,3103.0,2991.0,0.855347,-0.043762,-0.515198,0.03302,-1.0,-1.0,0.0,7771.0,-1141.0,954.0,574.0,-248.0,-2858.0,2798.0,-304.0,-798.0,0.878455,-0.108887,0.465364,15566.0,-2434.0,1876.0,-13.0,-12.0,6.0
2881.0,2789.0,2847.0,3111.0,3007.0,0.853821,-0.044067,-0.517639,0.033142,1.0,-2.0,-1.0,7768.0,-1173.0,940.0,550.0,-275.0,-2830.0,2766.0,-332.0,-787.0,0.881021,-0.109563,0.460216,15502.0,-2378.0,1792.0,23.0,-27.0,-6.0
2871.0,2771.0,2854.0,3107.0,3019.0,0.853027,-0.044067,-0.518921,0.033203,1.0,-2.0,-1.0,7767.0,-1159.0,928.0,538.0,-260.0,-2820.0,2754.0,-318.0,-787.0,0.882381,-0.109641,0.457537,15536.0,-2184.0,1802.0,29.0,-33.0,-9.0
2869.0,2783.0,2843.0,3102.0,2995.0,0.85144,-0.044128,-0.521484,0.033264,0.0,-2.0,-1.0,7778.0,-1135.0,908.0,527.0,-235.0,-2796.0,2732.0,-292.0,-771.0,0.88509,-0.109839,0.452164,15612.0,-2248.0,1694.0,12.0,-34.0,-9.0
2864.0,2780.0,2863.0,3111.0,3011.0,0.850708,-0.044189,-0.522705,0.033264,0.0,-2.0,-1.0,7788.0,-1133.0,894.0,526.0,-232.0,-2789.0,2728.0,-289.0,-762.0,0.886399,-0.109959,0.449637,15622.0,-2224.0,1718.0,9.0,-27.0,-7.0
2863.0,2789.0,2855.0,3095.0,3047.0,0.849243,-0.044434,-0.525085,0.033264,0.0,-1.0,-1.0,7790.0,-1110.0,875.0,508.0,-205.0,-2767.0,2704.0,-263.0,-756.0,0.888894,-0.110403,0.444631,15590.0,-2124.0,1710.0,3.0,-6.0,-5.0
2871.0,2791.0,2855.0,3098.0,2999.0,0.848511,-0.044556,-0.526184,0.033264,-1.0,-1.0,0.0,7789.0,-1100.0,867.0,498.0,-193.0,-2755.0,2691.0,-252.0,-753.0,0.889982,-0.110618,0.442222,15572.0,-2152.0,1700.0,-1.0,-1.0,0.0
2875.0,2785.0,2862.0,3109.0,3011.0,0.847168,-0.044922,-0.52832,0.033325,-1.0,-1.0,0.0,7776.0,-1086.0,855.0,467.0,-174.0,-2730.0,2658.0,-236.0,-758.0,0.892158,-0.111326,0.437664,15530.0,-2186.0,1654.0,-6.0,0.0,14.0
2867.0,2783.0,2853.0,3099.0,2999.0,0.846497,-0.045105,-0.529419,0.033386,0.0,0.0,0.0,7778.0,-1086.0,851.0,460.0,-170.0,-2715.0,2644.0,-232.0,-752.0,0.893291,-0.111713,0.435352,15576.0,-2168.0,1694.0,1.0,2.0,22.0
2869.0,2787.0,2865.0,3099.0,3005.0,0.845215,-0.04541,-0.531372,0.033691,0.0,1.0,1.0,7795.0,-1096.0,858.0,461.0,-173.0,-2673.0,2610.0,-232.0,-720.0,0.895187,-0.112568,0.431105,15572.0,-2222.0,1718.0,18.0,23.0,25.0
2865.0,2787.0,2854.0,3095.0,2995.0,0.844666,-0.045532,-0.532288,0.033875,1.0,1.0,1.0,7790.0,-1096.0,869.0,448.0,-170.0,-2647.0,2582.0,-229.0,-715.0,0.896125,-0.112981,0.429204,15568.0,-2172.0,1860.0,23.0,32.0,28.0
2871.0,2789.0,2865.0,3103.0,2999.0,0.843567,-0.045837,-0.533997,0.034302,0.0,1.0,1.0,7763.0,-1098.0,880.0,408.0,-164.0,-2605.0,2530.0,-225.0,-723.0,0.897779,-0.113968,0.425528,15420.0,-2222.0,1800.0,12.0,30.0,43.0
2870.0,2783.0,2867.0,3101.0,2951.0,0.842957,-0.046082,-0.534851,0.034485,0.0,0.0,2.0,7748.0,-1097.0,872.0,387.0,-158.0,-2597.0,2516.0,-221.0,-734.0,0.898534,-0.114578,0.423576,15418.0,-2216.0,1690.0,2.0,21.0,48.0
2867.0,2791.0,2855.0,3119.0,3007.0,0.841736,-0.046692,-0.536682,0.034973,-1.0,0.0,2.0,7764.0,-1121.0,885.0,389.0,-169.0,-2551.0,2478.0,-230.0,-700.0,0.900223,-0.116143,0.419534,15630.0,-2280.0,1850.0,-4.0,22.0,52.0
2875.0,2783.0,2851.0,3111.0,3003.0,0.841187,-0.047058,-0.537537,0.035156,-1.0,1.0,2.0,7785.0,-1119.0,888.0,403.0,-160.0,-2533.0,2469.0,-219.0,-676.0,0.901028,-0.116965,0.417671,15712.0,-2216.0,1810.0,-12.0,30.0,55.0
2877.0,2803.0,2857.0,3103.0,3007.0,0.840088,-0.047913,-0.539124,0.035522,-2.0,1.0,3.0,7824.0,-1113.0,900.0,431.0,-139.0,-2491.0,2445.0,-195.0,-625.0,0.902418,-0.118804,0.41406,15728.0,-2232.0,1826.0,-35.0,45.0,69.0
2870.0,2778.0,2839.0,3118.0,3005.0,0.8396,-0.048401,-0.539856,0.035767,-2.0,1.0,3.0,7827.0,-1105.0,908.0,429.0,-122.0,-2470.0,2426.0,-178.0,-616.0,0.903063,-0.119892,0.41242,15682.0,-2162.0,1870.0,-38.0,43.0,86.0
2879.0,2791.0,2846.0,3111.0,2999.0,0.83844,-0.049683,-0.541443,0.036499,-2.0,1.0,5.0,7838.0,-1078.0,915.0,429.0,-71.0,-2432.0,2393.0,-127.0,-597.0,0.904308,-0.122836,0.408685,15744.0,-2042.0,1886.0,-43.0,29.0,134.0
2871.0,2791.0,2855.0,3095.0,3007.0,0.837891,-0.050354,-0.542236,0.036987,-3.0,1.0,6.0,7850.0,-1049.0,917.0,436.0,-29.0,-2416.0,2382.0,-84.0,-584.0,0.904945,-0.124494,0.406873,15766.0,-1888.0,1790.0,-50.0,25.0,160.0
2875.0,2787.0,2861.0,3151.0,3011.0,0.836609,-0.052185,-0.543945,0.038208,-4.0,0.0,9.0,7875.0,-1023.0,895.0,451.0,32.0,-2404.0,2380.0,-23.0,-563.0,0.906151,-0.128883,0.402775,15838.0,-2104.0,1706.0,-77.0,16.0,221.0
2875.0,2783.0,2845.0,3111.0,3003.0,0.835938,-0.053345,-0.5448,0.039062,-4.0,0.0,11.0,7882.0,-1023.0,877.0,454.0,56.0,-2405.0,2383.0,0.0,-559.0,0.90667,-0.131748,0.400665,15804.0,-2016.0,1650.0,-74.0,17.0,266.0
2877.0,2791.0,2867.0,3101.0,3019.0,0.834595,-0.056091,-0.546387,0.041382,-5.0,1.0,16.0,7899.0,-976.0,825.0,465.0,161.0,-2423.0,2405.0,102.0,-561.0,0.907381,-0.138848,0.396576,15822.0,-1790.0,1470.0,-94.0,28.0,381.0
2867.0,2775.0,2827.0,3107.0,3007.0,0.833923,-0.057739,-0.547119,0.042908,-5.0,1.0,19.0,7897.0,-1015.0,792.0,462.0,158.0,-2440.0,2420.0,98.0,-566.0,0.907556,-0.143251,0.394596,15820.0,-2406.0,1402.0,-98.0,38.0,445.0
2869.0,2783.0,2864.0,3110.0,3003.0,0.832703,-0.06189,-0.548157,0.047424,-3.0,3.0,27.0,7888.0,-1110.0,767.0,457.0,160.0,-2438.0,2418.0,100.0,-564.0,0.907033,-0.155063,0.391337,15590.0,-2242.0,1440.0,-50.0,87.0,635.0
2869.0,2771.0,2847.0,3103.0,3007.0,0.832214,-0.064209,-0.548462,0.050171,-3.0,4.0,30.0,7849.0,-1123.0,756.0,423.0,203.0,-2440.0,2406.0,138.0,-601.0,0.906433,-0.161905,0.390165,15446.0,-2320.0,1442.0,-66.0,106.0,699.0
2864.0,2775.0,2847.0,3103.0,3005.0,0.831116,-0.069763,-0.548828,0.055969,-6.0,5.0,34.0,7752.0,-1248.0,742.0,342.0,205.0,-2434.0,2369.0,126.0,-670.0,0.90447,-0.177398,0.387807,15250.0,-3214.0,1478.0,-130.0,125.0,790.0
2875.0,2783.0,2850.0,3071.0,3007.0,0.830627,-0.072937,-0.548889,0.059204,-6.0,6.0,35.0,7698.0,-1397.0,746.0,298.0,128.0,-2423.0,2344.0,42.0,-692.0,0.903208,-0.18616,0.386848,15070.0,-3722.0,1522.0,-121.0,138.0,820.0
2863.0,2787.0,2871.0,3101.0,3005.0,0.82959,-0.079285,-0.548706,0.066162,-3.0,5.0,37.0,7562.0,-1730.0,799.0,189.0,-57.0,-2356.0,2244.0,-157.0,-725.0,0.899911,-0.204155,0.385232,14690.0,-4482.0,1838.0,-67.0,137.0,859.0
2865.0,2775.0,2862.0,3101.0,3019.0,0.829102,-0.082458,-0.548584,0.069885,-3.0,5.0,38.0,7507.0,-1924.0,870.0,149.0,-175.0,-2280.0,2162.0,-277.0,-705.0,0.898138,-0.213409,0.38455,14740.0,-5092.0,2282.0,-50.0,129.0,871.0
2871.0,2778.0,2845.0,3089.0,3015.0,0.828125,-0.0896,-0.547852,0.07782,-6.0,6.0,41.0,7461.0,-2437.0,1233.0,141.0,-522.0,-1910.0,1830.0,-595.0,-484.0,0.893434,-0.233667,0.383678,14832.0,-6642.0,4022.0,-124.0,143.0,956.0
2867.0,2783.0,2864.0,3109.0,3007.0,0.827698,-0.09436,-0.547119,0.081909,-13.0,6.0,45.0,7451.0,-2759.0,1565.0,158.0,-745.0,-1577.0,1538.0,-789.0,-281.0,0.890241,-0.245832,0.383549,14840.0,-7544.0,5284.0,-291.0,158.0,1053.0
2863.0,2773.0,2863.0,3107.0,2993.0,0.826538,-0.108704,-0.544922,0.089539,-40.0,6.0,54.0,7280.0,-3539.0,2389.0,60.0,-1267.0,-743.0,744.0,-1261.0,120.0,0.881331,-0.277278,0.382426,13516.0,-9276.0,7152.0,-897.0,144.0,1253.0
2863.0,2783.0,2843.0,3091.0,3007.0,0.8255,-0.118469,-0.544128,0.092041,-57.0,1.0,51.0,6953.0,-3951.0,2695.0,-227.0,-1528.0,-416.0,329.0,-1562.0,94.0,0.876548,-0.295757,0.379812,11666.0,-10460.0,7096.0,-1292.0,32.0,1171.0
2865.0,2789.0,2855.0,3095.0,2999.0,0.820679,-0.140076,-0.546692,0.0896,-90.0,-27.0,6.0,5681.0,-4869.0,2701.0,-1464.0,-2182.0,-273.0,-326.0,-2536.0,-660.0,0.872215,-0.327881,0.363048,6904.0,-13524.0,3898.0,-2048.0,-600.0,149.0
2861.0,2785.0,2843.0,3099.0,3007.0,0.816162,-0.149658,-0.551819,0.083252,-95.0,-47.0,-33.0,5035.0,-5743.0,2303.0,-2139.0,-2989.0,-532.0,-401.0,-3538.0,-1052.0,0.875829,-0.336171,0.34615,6446.0,-17106.0,1916.0,-2157.0,-1066.0,-748.0
2865.0,2773.0,2863.0,3091.0,3007.0,0.804382,-0.157715,-0.569458,0.061829,-60.0,-75.0,-123.0,4503.0,-7546.0,1210.0,-2842.0,-4890.0,-1261.0,-189.0,-5633.0,-1343.0,0.896621,-0.324144,0.301697,8838.0,-19546.0,-964.0,-1373.0,-1702.0,-2809.0
2864.0,2785.0,2867.0,3111.0,2999.0,0.79303,-0.141846,-0.591614,0.030457,-5.0,-74.0,-209.0,4970.0,-7831.0,477.0,-2646.0,-5692.0,-1650.0,93.0,-6335.0,-1402.0,0.929694,-0.261013,0.259697,11758.0,-14078.0,-668.0,-101.0,-1675.0,-4770.0
2864.0,2771.0,2852.0,3087.0,2995.0,0.788147,-0.125977,-0.602417,0.010986,10.0,-66.0,-241.0,5233.0,-7255.0,256.0,-2523.0,-5519.0,-1730.0,214.0,-6090.0,-1639.0,0.946818,-0.211813,0.24252,11914.0,-10434.0,-716.0,237.0,-1511.0,-5516.0
2871.0,2783.0,2860.0,3103.0,2995.0,0.778076,-0.085938,-0.621216,-0.035278,8.0,-53.0,-280.0,5427.0,-5078.0,-44.0,-2541.0,-4341.0,-1791.0,445.0,-4715.0,-2463.0,0.97277,-0.089901,0.213353,10908.0,-2260.0,-818.0,190.0,-1192.0,-6399.0
2864.0,2774.0,2839.0,3120.0,3003.0,0.765076,-0.045105,-0.635925,-0.090393,-28.0,-48.0,-287.0,5185.0,-2385.0,-531.0,-2853.0,-2761.0,-2063.0,951.0,-2853.0,-3312.0,0.981216,0.045949,0.187076,9512.0,2650.0,-2964.0,-626.0,-1078.0,-6554.0
2869.0,2779.0,2863.0,3103.0,3011.0,0.756897,-0.027039,-0.641907,-0.119995,-45.0,-46.0,-283.0,5081.0,-1255.0,-895.0,-2932.0,-2181.0,-2324.0,1339.0,-2137.0,-3520.0,0.978204,0.113121,0.174516,9712.0,4034.0,-4018.0,-1026.0,-1050.0,-6466.0
2865.0,2783.0,2859.0,3158.0,2993.0,0.738525,0.005798,-0.649841,-0.179688,-59.0,-34.0,-273.0,5285.0,588.0,-1390.0,-2561.0,-1395.0,-2662.0,1968.0,-1204.0,-3204.0,0.957765,0.242101,0.15538,11446.0,6236.0,-3934.0,-1344.0,-760.0,-6232.0
2879.0,2795.0,2867.0,3115.0,3003.0,0.719971,0.040649,-0.651611,-0.235474,-35.0,-12.0,-267.0,5409.0,2144.0,-1545.0,-2120.0,-849.0,-2753.0,2308.0,-604.0,-2665.0,0.919138,0.365407,0.147556,10828.0,9010.0,-2938.0,-781.0,-258.0,-6110.0
2867.0,2791.0,2863.0,3103.0,3007.0,0.710938,0.060547,-0.650452,-0.260559,-17.0,-1.0,-261.0,5306.0,3024.0,-1505.0,-2011.0,-458.0,-2705.0,2417.0,-173.0,-2387.0,0.893309,0.425052,0.14657,9760.0,11498.0,-2822.0,-368.0,-21.0,-5976.0
2863.0,2763.0,2847.0,3095.0,3015.0,0.692566,0.103333,-0.645752,-0.304382,8.0,10.0,-239.0,4818.0,5311.0,-1233.0,-1994.0,918.0,-2417.0,2616.0,1230.0,-1515.0,0.831546,0.53624,0.144623,7928.0,18806.0,-980.0,202.0,239.0,-5463.0
2871.0,2781.0,2855.0,3102.0,3023.0,0.674927,0.145142,-0.637268,-0.342468,3.0,16.0,-203.0,4019.0,8230.0,-647.0,-2213.0,3049.0,-1840.0,2714.0,3195.0,-23.0,0.760806,0.632408,0.145634,5392.0,25126.0,220.0,85.0,382.0,-4641.0
2869.0,2786.0,2849.0,3101.0,2998.0,0.666809,0.16217,-0.632263,-0.359558,-11.0,12.0,-174.0,3597.0,9589.0,-441.0,-2355.0,4092.0,-1652.0,2845.0,4036.0,790.0,0.726578,0.670944,0.14786,4746.0,27032.0,248.0,-238.0,290.0,-3963.0
2875.0,2791.0,2871.0,3103.0,2979.0,0.653625,0.184143,-0.622559,-0.388977,-40.0,2.0,-107.0,2999.0,11428.0,-219.0,-2494.0,5488.0,-1505.0,3166.0,4928.0,2070.0,0.670586,0.725043,0.157042,4754.0,26808.0,20.0,-897.0,66.0,-2446.0
2871.0,2798.0,2863.0,3111.0,2991.0,0.64917,0.189514,-0.618469,-0.400269,-44.0,0.0,-73.0,2836.0,11789.0,-184.0,-2499.0,5717.0,-1521.0,3296.0,4980.0,2361.0,0.65127,0.741161,0.163217,4750.0,25180.0,-252.0,-1006.0,6.0,-1652.0
2869.0,2773.0,2861.0,3091.0,3007.0,0.644531,0.1922,-0.614075,-0.412964,-31.0,-6.0,-3.0,2539.0,11795.0,-298.0,-2645.0,5610.0,-1706.0,3535.0,4871.0,2268.0,0.632838,0.754939,0.171931,4354.0,23326.0,-1072.0,-700.0,-136.0,-56.0
2875.0,2797.0,2855.0,3103.0,2993.0,0.643799,0.190979,-0.614197,-0.41449,-20.0,-9.0,24.0,2429.0,11763.0,-390.0,-2752.0,5577.0,-1803.0,3649.0,4893.0,2159.0,0.632521,0.755061,0.172568,4274.0,23338.0,-1386.0,-452.0,-201.0,567.0
2871.0,2787.0,2847.0,3095.0,3007.0,0.644348,0.185059,-0.617981,-0.410706,-6.0,-14.0,63.0,2562.0,11557.0,-664.0,-2716.0,5444.0,-2037.0,3842.0,4745.0,1969.0,0.644381,0.746101,0.167716,6172.0,22022.0,-2258.0,-137.0,-315.0,1459.0
2871.0,2786.0,2863.0,3089.0,3006.0,0.647461,0.174561,-0.624756,-0.400024,-1.0,-13.0,92.0,3147.0,11003.0,-976.0,-2336.0,5056.0,-2273.0,3907.0,4227.0,1746.0,0.669353,0.725877,0.158434,8354.0,20088.0,-2796.0,-10.0,-297.0,2108.0
2865.0,2775.0,2850.0,3095.0,3023.0,0.650146,0.167908,-0.628357,-0.392761,-1.0,-10.0,103.0,3527.0,10676.0,-1098.0,-2085.0,4843.0,-2358.0,3893.0,3931.0,1656.0,0.685153,0.711918,0.153926,9408.0,19374.0,-2876.0,-6.0,-225.0,2376.0
2866.0,2779.0,2837.0,3099.0,3017.0,0.658081,0.151917,-0.634949,-0.375122,-3.0,-1.0,125.0,4325.0,9982.0,-1180.0,-1587.0,4441.0,-2388.0,3742.0,3415.0,1505.0,0.721721,0.676313,0.147549,10940.0,17644.0,-2510.0,-66.0,-3.0,2865.0
2863.0,2773.0,2851.0,3099.0,3023.0,0.669739,0.133057,-0.639648,-0.353027,2.0,14.0,146.0,5048.0,9024.0,-1074.0,-1201.0,3864.0,-2272.0,3410.0,2915.0,1185.0,0.762849,0.629853,0.146324,11972.0,14850.0,-1662.0,58.0,331.0,3367.0
2867.0,2772.0,2859.0,3107.0,2983.0,0.676819,0.123047,-0.641418,-0.339539,8.0,20.0,159.0,5310.0,8475.0,-980.0,-1118.0,3542.0,-2182.0,3205.0,2721.0,935.0,0.78469,0.602134,0.146812,12072.0,13718.0,-1360.0,193.0,466.0,3645.0
2871.0,2791.0,2875.0,3107.0,3003.0,0.692383,0.10199,-0.64447,-0.308044,18.0,24.0,181.0,5532.0,7680.0,-694.0,-1264.0,3270.0,-1910.0,2815.0,2798.0,427.0,0.829605,0.538283,0.148542,11588.0,13308.0,-202.0,423.0,571.0,4166.0
2879.0,2775.0,2831.0,3093.0,3019.0,0.700378,0.090515,-0.645569,-0.29071,18.0,24.0,192.0,5616.0,7324.0,-465.0,-1360.0,3210.0,-1694.0,2556.0,2906.0,199.0,0.851658,0.502137,0.15009,11700.0,12484.0,434.0,432.0,564.0,4399.0
2882.0,2779.0,2851.0,3109.0,3003.0,0.715881,0.064514,-0.647278,-0.253662,14.0,18.0,209.0,5635.0,6494.0,-109.0,-1688.0,3047.0,-1368.0,2108.0,3060.0,-437.0,0.894019,0.420749,0.1537,11394.0,9858.0,786.0,332.0,434.0,4807.0
2871.0,2783.0,2861.0,3103.0,3007.0,0.723145,0.049988,-0.647949,-0.234009,14.0,15.0,216.0,5702.0,5813.0,59.0,-1783.0,2736.0,-1213.0,1823.0,2861.0,-790.0,0.913727,0.375548,0.155361,11854.0,7256.0,1126.0,339.0,351.0,4964.0
2860.0,2773.0,2859.0,3111.0,3011.0,0.735901,0.020142,-0.649353,-0.190735,32.0,9.0,224.0,5798.0,4103.0,258.0,-1968.0,1830.0,-1018.0,1281.0,2077.0,-1516.0,0.948036,0.277353,0.155865,11846.0,2542.0,978.0,738.0,218.0,5131.0
2864.0,2791.0,2827.0,3119.0,2999.0,0.741211,0.006104,-0.650146,-0.16687,46.0,6.0,225.0,5873.0,3106.0,296.0,-2005.0,1254.0,-969.0,1037.0,1494.0,-1794.0,0.961754,0.226028,0.154512,12236.0,210.0,732.0,1060.0,151.0,5156.0
2879.0,2759.0,2858.0,3091.0,2997.0,0.74939,-0.018188,-0.651855,-0.114807,78.0,1.0,220.0,5930.0,1467.0,244.0,-2107.0,464.0,-980.0,783.0,590.0,-2157.0,0.981164,0.122415,0.149519,11760.0,-1370.0,216.0,1790.0,41.0,5040.0
2864.0,2769.0,2851.0,3103.0,3013.0,0.752075,-0.027649,-0.652649,-0.087585,92.0,-1.0,212.0,5883.0,802.0,199.0,-2198.0,206.0,-1001.0,720.0,256.0,-2300.0,0.986525,0.072737,0.146573,11478.0,-2340.0,176.0,2111.0,-22.0,4878.0
2868.0,2785.0,2847.0,3111.0,3007.0,0.754883,-0.043335,-0.653687,-0.031616,107.0,-9.0,206.0,5960.0,-609.0,332.0,-2147.0,-411.0,-828.0,464.0,-516.0,-2232.0,0.989654,-0.024091,0.141664,12530.0,-5298.0,1450.0,2472.0,-184.0,4720.0
2864.0,2794.0,2849.0,3095.0,2995.0,0.754822,-0.058472,-0.652832,0.024719,99.0,-11.0,206.0,6247.0,-1472.0,771.0,-1802.0,-484.0,-382.0,94.0,-706.0,-1766.0,0.982653,-0.120546,0.140758,13154.0,-4804.0,2976.0,2274.0,-235.0,4725.0
2867.0,2769.0,2837.0,3110.0,2994.0,0.753906,-0.066956,-0.651611,0.050964,84.0,-11.0,200.0,6253.0,-1687.0,970.0,-1739.0,-315.0,-192.0,-66.0,-602.0,-1671.0,0.975683,-0.167374,0.141892,12364.0,-4502.0,3056.0,1928.0,-244.0,4598.0
2865.0,2775.0,2849.0,3095.0,2995.0,0.749817,-0.08551,-0.64917,0.095215,46.0,-16.0,167.0,5945.0,-2378.0,1039.0,-1896.0,-314.0,-128.0,-126.0,-785.0,-1754.0,0.957233,-0.251855,0.142558,10664.0,-7902.0,1828.0,1074.0,-347.0,3848.0
2863.0,2779.0,2862.0,3099.0,2991.0,0.743591,-0.10321,-0.648193,0.127502,24.0,-19.0,115.0,5653.0,-3931.0,859.0,-2028.0,-1319.0,-274.0,87.0,-1900.0,-1519.0,0.937663,-0.318785,0.138378,10726.0,-13188.0,1194.0,571.0,-418.0,2656.0
2871.0,2793.0,2863.0,3107.0,2997.0,0.740479,-0.110229,-0.648132,0.139465,20.0,-18.0,88.0,5570.0,-4867.0,762.0,-2041.0,-2048.0,-348.0,228.0,-2625.0,-1238.0,0.92911,-0.344029,0.135533,10696.0,-15398.0,1012.0,469.0,-407.0,2020.0
2874.0,2789.0,2832.0,3099.0,2991.0,0.735535,-0.119385,-0.648315,0.156372,17.0,-14.0,38.0,5498.0,-6545.0,670.0,-2008.0,-3445.0,-402.0,435.0,-3940.0,-589.0,0.91638,-0.37838,0.130898,10790.0,-17258.0,1160.0,408.0,-300.0,873.0
2867.0,2790.0,2838.0,3099.0,3005.0,0.733948,-0.121521,-0.648438,0.16156,15.0,-11.0,16.0,5455.0,-7072.0,636.0,-2020.0,-3894.0,-425.0,515.0,-4359.0,-387.0,0.912573,-0.387903,0.129542,10634.0,-16986.0,1032.0,355.0,-232.0,379.0
2871.0,2783.0,2843.0,3098.0,2993.0,0.732117,-0.12262,-0.649292,0.165222,3.0,-6.0,-20.0,5413.0,-7523.0,511.0,-2043.0,-4294.0,-526.0,667.0,-4731.0,-233.0,0.910196,-0.394099,0.126678,10914.0,-15652.0,622.0,74.0,-134.0,-436.0
2869.0,2796.0,2859.0,3107.0,2991.0,0.731873,-0.12146,-0.651001,0.160645,-13.0,-1.0,-46.0,5525.0,-7498.0,369.0,-1961.0,-4328.0,-637.0,767.0,-4728.0,-195.0,0.913876,-0.386946,0.122889,11522.0,-14582.0,250.0,-296.0,-1.0,-1032.0
2863.0,2785.0,2847.0,3103.0,2999.0,0.732239,-0.120728,-0.651917,0.155701,-22.0,3.0,-55.0,5606.0,-7366.0,312.0,-1907.0,-4254.0,-677.0,778.0,-4640.0,-215.0,0.917122,-0.37981,0.120846,11736.0,-13786.0,316.0,-488.0,86.0,-1247.0
2879.0,2778.0,2853.0,3099.0,3003.0,0.734131,-0.119629,-0.653259,0.141174,-40.0,12.0,-69.0,5831.0,-6972.0,304.0,-1749.0,-4022.0,-661.0,674.0,-4376.0,-248.0,0.925379,-0.360093,0.11782,12434.0,-12684.0,684.0,-911.0,293.0,-1558.0
2869.0,2782.0,2852.0,3091.0,2995.0,0.73761,-0.119629,-0.653442,0.120728,-59.0,24.0,-83.0,6157.0,-6353.0,392.0,-1503.0,-3614.0,-569.0,467.0,-3918.0,-264.0,0.935086,-0.334256,0.117345,13438.0,-10430.0,1082.0,-1332.0,569.0,-1883.0
2864.0,2789.0,2855.0,3103.0,2999.0,0.740051,-0.119812,-0.652954,0.107788,-69.0,31.0,-92.0,6334.0,-5926.0,448.0,-1371.0,-3320.0,-523.0,359.0,-3599.0,-295.0,0.94061,-0.318095,0.11859,13666.0,-9210.0,1206.0,-1573.0,715.0,-2102.0
2864.0,2774.0,2838.0,3111.0,3007.0,0.745483,-0.119812,-0.651245,0.075989,-87.0,38.0,-114.0,6509.0,-5050.0,468.0,-1296.0,-2775.0,-539.0,232.0,-3055.0,-530.0,0.952776,-0.27761,0.123045,13226.0,-7670.0,774.0,-1975.0,890.0,-2608.0
2864.0,2771.0,2861.0,3101.0,2997.0,0.750183,-0.118286,-0.649414,0.038635,-92.0,36.0,-133.0,6400.0,-4375.0,319.0,-1507.0,-2510.0,-733.0,249.0,-2844.0,-977.0,0.965219,-0.227653,0.128537,12256.0,-6826.0,26.0,-2089.0,832.0,-3044.0
2859.0,2782.0,2851.0,3111.0,3007.0,0.751709,-0.116333,-0.648865,0.018921,-89.0,32.0,-141.0,6370.0,-3984.0,249.0,-1585.0,-2350.0,-823.0,269.0,-2692.0,-1178.0,0.971113,-0.199451,0.130866,12762.0,-5404.0,244.0,-2034.0,746.0,-3219.0
2877.0,2785.0,2863.0,3103.0,2994.0,0.753601,-0.108521,-0.647888,-0.022522,-83.0,27.0,-156.0,6577.0,-2619.0,379.0,-1462.0,-1518.0,-742.0,222.0,-1779.0,-1332.0,0.981387,-0.134379,0.136886,14034.0,-468.0,1368.0,-1881.0,631.0,-3569.0
2877.0,2783.0,2863.0,3071.0,3007.0,0.75354,-0.09613,-0.646973,-0.066223,-76.0,22.0,-166.0,6901.0,-920.0,589.0,-1190.0,-435.0,-593.0,289.0,-589.0,-1235.0,0.987772,-0.059187,0.144393,14846.0,3290.0,1834.0,-1737.0,509.0,-3784.0
2859.0,2771.0,2864.0,3103.0,3015.0,0.752625,-0.088806,-0.646484,-0.088013,-72.0,18.0,-166.0,7040.0,-145.0,670.0,-1059.0,17.0,-545.0,368.0,-99.0,-1128.0,0.988752,-0.019878,0.148361,14830.0,4180.0,1740.0,-1637.0,428.0,-3784.0
2865.0,2779.0,2837.0,3107.0,2999.0,0.749084,-0.073181,-0.645691,-0.128845,-57.0,11.0,-153.0,7262.0,1209.0,892.0,-817.0,744.0,-381.0,466.0,686.0,-822.0,0.986212,0.056751,0.155456,14988.0,6038.0,2508.0,-1294.0,272.0,-3489.0
2871.0,2779.0,2864.0,3095.0,2991.0,0.746948,-0.065308,-0.645325,-0.14624,-44.0,7.0,-137.0,7303.0,1715.0,1002.0,-750.0,968.0,-297.0,480.0,933.0,-696.0,0.98315,0.091182,0.158609,14792.0,6316.0,2628.0,-999.0,182.0,-3120.0
2878.0,2787.0,2851.0,3093.0,3015.0,0.74231,-0.050903,-0.645935,-0.170654,-11.0,-5.0,-84.0,7323.0,2942.0,1152.0,-675.0,1755.0,-161.0,639.0,1722.0,-430.0,0.976341,0.144891,0.160323,14738.0,10388.0,2626.0,-250.0,-100.0,-1906.0
2875.0,2773.0,2846.0,3088.0,3007.0,0.73761,-0.040833,-0.648804,-0.182495,-3.0,-16.0,-28.0,7531.0,4804.0,1244.0,-431.0,3357.0,-23.0,1063.0,3208.0,170.0,0.972031,0.17657,0.154759,15980.0,15498.0,2674.0,-59.0,-350.0,-639.0
2870.0,2775.0,2839.0,3109.0,2997.0,0.735474,-0.038757,-0.65033,-0.186096,-12.0,-17.0,-8.0,7729.0,5677.0,1245.0,-225.0,4161.0,7.0,1323.0,3912.0,552.0,0.971026,0.185038,0.151123,16700.0,16276.0,2360.0,-256.0,-386.0,-161.0
2871.0,2783.0,2855.0,3103.0,3039.0,0.732056,-0.041321,-0.652588,-0.190918,-29.0,-15.0,21.0,8065.0,6303.0,953.0,108.0,4757.0,-233.0,1813.0,4297.0,968.0,0.971239,0.188683,0.144777,16838.0,12500.0,462.0,-650.0,-325.0,494.0
2865.0,2790.0,2867.0,3071.0,3007.0,0.730896,-0.044983,-0.653442,-0.191711,-28.0,-12.0,31.0,8114.0,5985.0,654.0,147.0,4471.0,-508.0,2002.0,3930.0,897.0,0.972444,0.184789,0.141952,16376.0,9540.0,-586.0,-628.0,-273.0,711.0
2861.0,2787.0,2871.0,3103.0,2993.0,0.729492,-0.053284,-0.655396,-0.188354,-10.0,-10.0,44.0,8041.0,4755.0,-25.0,43.0,3369.0,-1132.0,2223.0,2734.0,458.0,0.976284,0.169153,0.135254,15754.0,5538.0,-1946.0,-225.0,-210.0,1029.0
2863.0,2775.0,2855.0,3091.0,3007.0,0.729187,-0.057251,-0.656555,-0.184387,-1.0,-9.0,49.0,7981.0,4155.0,-285.0,-35.0,2855.0,-1361.0,2254.0,2205.0,239.0,0.978616,0.158627,0.13137,15604.0,4854.0,-2018.0,-16.0,-189.0,1137.0
2867.0,2783.0,2855.0,3095.0,2995.0,0.729126,-0.064392,-0.658691,-0.174255,8.0,-6.0,53.0,7886.0,3176.0,-616.0,-166.0,2064.0,-1631.0,2217.0,1422.0,-85.0,0.982979,0.135661,0.123969,15546.0,3672.0,-1960.0,185.0,-128.0,1233.0
2867.0,2783.0,2858.0,3095.0,3007.0,0.729309,-0.067871,-0.659546,-0.168884,8.0,-4.0,53.0,7880.0,2758.0,-695.0,-188.0,1744.0,-1684.0,2153.0,1116.0,-172.0,0.98495,0.123776,0.120806,15766.0,3050.0,-1764.0,186.0,-83.0,1232.0
2867.0,2787.0,2843.0,3097.0,2995.0,0.730469,-0.075073,-0.660034,-0.158569,4.0,3.0,50.0,7964.0,1967.0,-713.0,-130.0,1150.0,-1675.0,1945.0,562.0,-210.0,0.988077,0.099645,0.117448,16176.0,1570.0,-1360.0,103.0,73.0,1161.0
2871.0,2783.0,2855.0,3094.0,3007.0,0.731384,-0.078735,-0.659729,-0.15387,2.0,6.0,48.0,7976.0,1580.0,-697.0,-128.0,860.0,-1656.0,1830.0,297.0,-245.0,0.989261,0.087853,0.117157,15986.0,854.0,-1270.0,61.0,156.0,1102.0
2863.0,2783.0,2843.0,3099.0,3003.0,0.733826,-0.085754,-0.65802,-0.145691,-1.0,12.0,40.0,7945.0,890.0,-594.0,-171.0,350.0,-1571.0,1576.0,-151.0,-333.0,0.990731,0.065878,0.119382,15726.0,-30.0,-772.0,-16.0,279.0,939.0
2874.0,2779.0,2833.0,3107.0,2998.0,0.735168,-0.088867,-0.656799,-0.142395,-2.0,14.0,35.0,7900.0,636.0,-506.0,-218.0,174.0,-1501.0,1447.0,-292.0,-388.0,0.991025,0.056385,0.121466,15474.0,-204.0,-466.0,-39.0,323.0,813.0
2859.0,2787.0,2859.0,3111.0,2999.0,0.737793,-0.093567,-0.654236,-0.137512,-1.0,14.0,22.0,7695.0,175.0,-363.0,-424.0,-167.0,-1399.0,1215.0,-568.0,-604.0,0.991114,0.041865,0.126469,14636.0,-898.0,-362.0,-11.0,327.0,506.0
2855.0,2775.0,2847.0,3107.0,2991.0,0.738831,-0.094849,-0.653259,-0.135742,2.0,12.0,14.0,7566.0,-9.0,-300.0,-552.0,-313.0,-1353.0,1109.0,-683.0,-732.0,0.991046,0.037196,0.128553,14378.0,-1102.0,-238.0,57.0,284.0,330.0
2867.0,2775.0,2823.0,3119.0,3005.0,0.740112,-0.094604,-0.652344,-0.133301,10.0,7.0,-1.0,7391.0,-250.0,-146.0,-725.0,-527.0,-1219.0,895.0,-827.0,-895.0,0.990837,0.03388,0.131033,14426.0,-924.0,202.0,242.0,165.0,-15.0
2875.0,2783.0,2849.0,3089.0,3005.0,0.740356,-0.093201,-0.652405,-0.132507,14.0,4.0,-7.0,7374.0,-292.0,-40.0,-742.0,-577.0,-1116.0,782.0,-838.0,-901.0,0.990724,0.034893,0.131367,14744.0,-778.0,656.0,323.0,105.0,-151.0
2863.0,2783.0,2855.0,3103.0,3007.0,0.740601,-0.088928,-0.652954,-0.13147,16.0,2.0,-12.0,7495.0,-189.0,259.0,-619.0,-516.0,-818.0,541.0,-689.0,-741.0,0.990539,0.039967,0.131516,15426.0,328.0,1402.0,381.0,46.0,-265.0
2865.0,2775.0,2850.0,3103.0,2999.0,0.740601,-0.086609,-0.65332,-0.131287,14.0,1.0,-13.0,7574.0,-29.0,384.0,-539.0,-383.0,-692.0,475.0,-527.0,-641.0,0.99044,0.043259,0.131397,15640.0,934.0,1494.0,332.0,30.0,-277.0
2864.0,2773.0,2827.0,3119.0,2993.0,0.740356,-0.082886,-0.653931,-0.132019,5.0,0.0,-11.0,7706.0,323.0,570.0,-405.0,-86.0,-503.0,405.0,-195.0,-471.0,0.990169,0.049933,0.131061,15756.0,1620.0,1560.0,137.0,9.0,-251.0
2870.0,2781.0,2854.0,3091.0,3023.0,0.740112,-0.081665,-0.654175,-0.132874,1.0,-1.0,-11.0,7744.0,442.0,605.0,-366.0,8.0,-466.0,403.0,-96.0,-422.0,0.990028,0.052962,0.130808,15678.0,1534.0,1360.0,41.0,0.0,-232.0
2869.0,2778.0,2861.0,3115.0,3015.0,0.739319,-0.080261,-0.654785,-0.134766,-2.0,-2.0,-9.0,7781.0,521.0,543.0,-327.0,47.0,-518.0,469.0,-77.0,-388.0,0.989823,0.057808,0.129569,15632.0,1078.0,740.0,-28.0,-27.0,-201.0
2863.0,2779.0,2850.0,3071.0,2999.0,0.738892,-0.07959,-0.655273,-0.135498,0.0,-2.0,-9.0,7783.0,497.0,469.0,-326.0,5.0,-584.0,520.0,-136.0,-397.0,0.989921,0.05996,0.128603,15558.0,820.0,492.0,15.0,-38.0,-198.0
2874.0,2775.0,2839.0,3090.0,3003.0,0.737793,-0.077576,-0.656616,-0.136108,7.0,-3.0,-9.0,7797.0,449.0,324.0,-313.0,-77.0,-705.0,613.0,-248.0,-403.0,0.990011,0.064272,0.125701,15730.0,796.0,236.0,171.0,-65.0,-200.0
2871.0,2797.0,2829.0,3091.0,3007.0,0.737244,-0.076111,-0.65741,-0.135986,10.0,-3.0,-9.0,7838.0,461.0,281.0,-272.0,-84.0,-735.0,645.0,-266.0,-366.0,0.990042,0.066573,0.12404,15954.0,1104.0,362.0,241.0,-65.0,-199.0
2864.0,2781.0,2859.0,3101.0,3003.0,0.73645,-0.072754,-0.658813,-0.13562,10.0,-1.0,-8.0,7963.0,625.0,280.0,-147.0,38.0,-714.0,675.0,-152.0,-229.0,0.9901,0.071537,0.121423,16266.0,1734.0,598.0,248.0,-20.0,-176.0
2866.0,2781.0,2860.0,3103.0,3003.0,0.736145,-0.071228,-0.659241,-0.135498,9.0,0.0,-7.0,8007.0,673.0,283.0,-102.0,68.0,-704.0,680.0,-124.0,-180.0,0.989896,0.073783,0.120597,16260.0,1580.0,548.0,217.0,9.0,-157.0
2864.0,2773.0,2847.0,3091.0,2993.0,0.735901,-0.068787,-0.659912,-0.135132,7.0,1.0,-5.0,8019.0,671.0,271.0,-89.0,39.0,-708.0,677.0,-151.0,-169.0,0.98985,0.07711,0.119595,16024.0,1282.0,494.0,179.0,37.0,-97.0
2869.0,2781.0,2847.0,3095.0,3011.0,0.73584,-0.067932,-0.660156,-0.134827,6.0,1.0,-3.0,8014.0,695.0,286.0,-94.0,55.0,-690.0,664.0,-129.0,-171.0,0.989857,0.078039,0.119217,15982.0,1596.0,684.0,152.0,43.0,-65.0
2867.0,2790.0,2874.0,3111.0,3007.0,0.735718,-0.066895,-0.6604,-0.134521,1.0,1.0,-1.0,7964.0,763.0,315.0,-143.0,113.0,-657.0,645.0,-57.0,-210.0,0.989734,0.079245,0.118773,15814.0,1690.0,712.0,37.0,31.0,-4.0
2871.0,2781.0,2845.0,3088.0,3013.0,0.735657,-0.066895,-0.660522,-0.134521,-1.0,1.0,0.0,7955.0,782.0,332.0,-153.0,132.0,-638.0,632.0,-33.0,-216.0,0.989833,0.079286,0.118522,15870.0,1672.0,754.0,-11.0,25.0,13.0
2871.0,2778.0,2842.0,3091.0,2999.0,0.735413,-0.0672,-0.660767,-0.134583,-2.0,0.0,1.0,7914.0,753.0,321.0,-195.0,105.0,-644.0,626.0,-56.0,-260.0,0.98996,0.079016,0.117816,15698.0,1394.0,618.0,-34.0,16.0,29.0
2875.0,2783.0,2850.0,3099.0,3007.0,0.735229,-0.067444,-0.660889,-0.134583,-2.0,0.0,1.0,7908.0,747.0,316.0,-201.0,102.0,-645.0,626.0,-59.0,-266.0,0.989963,0.078715,0.117352,15750.0,1488.0,614.0,-24.0,16.0,31.0
2866.0,2782.0,2859.0,3107.0,3007.0,0.734985,-0.067688,-0.661194,-0.13446,-1.0,0.0,1.0,7855.0,757.0,291.0,-256.0,115.0,-663.0,642.0,-46.0,-321.0,0.990138,0.078309,0.116524,15506.0,1602.0,470.0,-15.0,3.0,33.0
2855.0,2783.0,2819.0,3098.0,3003.0,0.734741,-0.067871,-0.661438,-0.134399,-1.0,-1.0,1.0,7819.0,768.0,266.0,-292.0,128.0,-682.0,661.0,-35.0,-358.0,0.990215,0.078058,0.115801,15422.0,1594.0,374.0,-19.0,-14.0,29.0
2871.0,2774.0,2839.0,3103.0,3007.0,0.73407,-0.067993,-0.66217,-0.134338,0.0,-2.0,0.0,7792.0,762.0,218.0,-321.0,122.0,-714.0,688.0,-47.0,-389.0,0.990427,0.078086,0.113813,15594.0,1524.0,284.0,9.0,-32.0,2.0
2871.0,2791.0,2844.0,3103.0,3007.0,0.733704,-0.067871,-0.662598,-0.134216,1.0,-2.0,0.0,7792.0,762.0,194.0,-322.0,120.0,-729.0,702.0,-53.0,-391.0,0.990519,0.078268,0.112693,15588.0,1538.0,222.0,24.0,-32.0,2.0
2858.0,2782.0,2865.0,3091.0,3023.0,0.732971,-0.06781,-0.663452,-0.133972,0.0,-2.0,1.0,7768.0,818.0,140.0,-348.0,176.0,-764.0,750.0,-6.0,-415.0,0.990752,0.078363,0.110428,15464.0,1822.0,80.0,6.0,-38.0,31.0
2866.0,2783.0,2859.0,3071.0,2999.0,0.732605,-0.067993,-0.663879,-0.133911,-1.0,-2.0,2.0,7766.0,848.0,123.0,-351.0,207.0,-772.0,767.0,20.0,-416.0,0.990933,0.078177,0.109283,15544.0,1870.0,162.0,-19.0,-39.0,47.0
2863.0,2771.0,2846.0,3102.0,2971.0,0.731995,-0.068604,-0.664551,-0.133789,-2.0,-1.0,2.0,7812.0,821.0,92.0,-308.0,187.0,-787.0,779.0,-8.0,-375.0,0.991252,0.077384,0.107381,15752.0,1488.0,42.0,-37.0,-14.0,58.0
2870.0,2775.0,2855.0,3103.0,2999.0,0.73175,-0.068909,-0.664795,-0.133667,-2.0,0.0,2.0,7826.0,793.0,75.0,-295.0,163.0,-798.0,784.0,-35.0,-365.0,0.99135,0.076874,0.106625,15748.0,1420.0,68.0,-29.0,3.0,53.0
2870.0,2781.0,2855.0,3099.0,3015.0,0.731384,-0.069214,-0.665222,-0.133362,0.0,1.0,1.0,7826.0,740.0,39.0,-296.0,115.0,-824.0,796.0,-89.0,-371.0,0.991527,0.076187,0.105397,15540.0,1330.0,54.0,4.0,24.0,38.0
2864.0,2779.0,2863.0,3107.0,3006.0,0.731201,-0.069275,-0.665405,-0.133179,0.0,0.0,1.0,7811.0,728.0,37.0,-311.0,105.0,-821.0,789.0,-96.0,-386.0,0.991542,0.075928,0.104829,15580.0,1400.0,98.0,14.0,22.0,31.0
2871.0,2787.0,2855.0,3103.0,3007.0,0.731079,-0.069275,-0.665588,-0.132996,0.0,0.0,0.0,7804.0,722.0,49.0,-319.0,101.0,-805.0,772.0,-94.0,-392.0,0.991622,0.07575,0.104358,15586.0,1438.0,188.0,20.0,19.0,21.0
2871.0,2794.0,2859.0,3095.0,2997.0,0.730774,-0.069153,-0.665955,-0.132812,0.0,1.0,0.0,7821.0,741.0,89.0,-302.0,119.0,-757.0,733.0,-65.0,-368.0,0.991693,0.075824,0.103392,15734.0,1568.0,338.0,17.0,25.0,10.0
2867.0,2778.0,2861.0,3092.0,3007.0,0.730713,-0.069092,-0.666077,-0.132751,0.0,1.0,0.0,7846.0,753.0,115.0,-278.0,131.0,-729.0,712.0,-49.0,-340.0,0.991766,0.075873,0.103132,15854.0,1588.0,416.0,8.0,37.0,12.0
2866.0,2779.0,2845.0,3103.0,3004.0,0.730774,-0.069153,-0.666077,-0.13269,-1.0,2.0,1.0,7891.0,777.0,185.0,-234.0,156.0,-660.0,656.0,-10.0,-288.0,0.991855,0.075694,0.103197,15876.0,1604.0,660.0,-19.0,67.0,30.0
2869.0,2783.0,2855.0,3103.0,3005.0,0.730835,-0.069275,-0.665894,-0.132751,-2.0,3.0,1.0,7892.0,784.0,219.0,-232.0,165.0,-629.0,629.0,6.0,-282.0,0.991709,0.07554,0.103529,15756.0,1596.0,578.0,-33.0,74.0,43.0
2864.0,2790.0,2866.0,3095.0,3003.0,0.730957,-0.069763,-0.66571,-0.13269,-2.0,2.0,2.0,7846.0,768.0,233.0,-278.0,156.0,-617.0,612.0,5.0,-328.0,0.991725,0.074679,0.103868,15524.0,1436.0,564.0,-33.0,52.0,54.0
2871.0,2769.0,2861.0,3099.0,3007.0,0.730957,-0.070007,-0.665771,-0.132568,-1.0,1.0,2.0,7830.0,737.0,245.0,-295.0,129.0,-604.0,590.0,-15.0,-345.0,0.991862,0.074176,0.10372,15590.0,1302.0,572.0,-12.0,31.0,49.0
2867.0,2779.0,2845.0,3091.0,3003.0,0.730835,-0.070007,-0.665955,-0.132141,1.0,0.0,1.0,7850.0,702.0,280.0,-275.0,98.0,-565.0,546.0,-36.0,-323.0,0.991907,0.073672,0.103184,15764.0,1422.0,646.0,41.0,15.0,31.0
2865.0,2779.0,2864.0,3099.0,3003.0,0.730774,-0.069946,-0.666138,-0.131836,1.0,0.0,1.0,7859.0,712.0,295.0,-267.0,110.0,-546.0,532.0,-20.0,-312.0,0.992035,0.073412,0.102779,15756.0,1490.0,718.0,45.0,9.0,31.0
2863.0,2781.0,2854.0,3103.0,3007.0,0.730591,-0.069763,-0.666443,-0.131409,1.0,0.0,1.0,7884.0,730.0,338.0,-243.0,130.0,-497.0,493.0,10.0,-282.0,0.992129,0.073216,0.102018,15848.0,1476.0,842.0,29.0,7.0,34.0
2868.0,2775.0,2849.0,3093.0,3007.0,0.730469,-0.069763,-0.666565,-0.131226,0.0,0.0,1.0,7891.0,717.0,354.0,-236.0,118.0,-478.0,472.0,3.0,-274.0,0.992119,0.073021,0.101629,15794.0,1330.0,782.0,16.0,9.0,39.0
2867.0,2761.0,2837.0,3099.0,3007.0,0.730347,-0.070007,-0.666809,-0.130676,0.0,-1.0,2.0,7871.0,627.0,342.0,-257.0,37.0,-484.0,453.0,-73.0,-301.0,0.9923,0.072013,0.100947,15686.0,942.0,618.0,22.0,-3.0,54.0
2867.0,2777.0,2851.0,3102.0,3011.0,0.730164,-0.070129,-0.667053,-0.130249,1.0,-1.0,2.0,7859.0,580.0,316.0,-270.0,-4.0,-505.0,461.0,-117.0,-318.0,0.992384,0.071354,0.100226,15678.0,906.0,514.0,40.0,-12.0,56.0
2865.0,2781.0,2849.0,3111.0,3005.0,0.729919,-0.07019,-0.667542,-0.129333,2.0,-1.0,1.0,7869.0,562.0,309.0,-262.0,-13.0,-501.0,455.0,-125.0,-310.0,0.992659,0.070204,0.098971,15792.0,1232.0,616.0,65.0,-6.0,44.0
2871.0,2777.0,2847.0,3099.0,3007.0,0.729797,-0.070007,-0.667725,-0.129028,2.0,0.0,0.0,7880.0,614.0,316.0,-251.0,39.0,-490.0,460.0,-73.0,-294.0,0.992673,0.070128,0.098495,15836.0,1612.0,668.0,53.0,4.0,22.0
2864.0,2775.0,2855.0,3101.0,3007.0,0.729736,-0.06958,-0.667847,-0.129211,-1.0,1.0,-2.0,7943.0,749.0,367.0,-189.0,167.0,-438.0,451.0,57.0,-218.0,0.992685,0.071037,0.09835,16112.0,1882.0,960.0,-7.0,44.0,-33.0
2871.0,2781.0,2855.0,3101.0,3006.0,0.729736,-0.069397,-0.667725,-0.129578,-2.0,2.0,-2.0,7964.0,803.0,399.0,-166.0,215.0,-409.0,439.0,109.0,-189.0,0.99251,0.071761,0.098633,15982.0,1896.0,954.0,-45.0,65.0,-37.0
2869.0,2785.0,2860.0,3102.0,3006.0,0.729797,-0.069763,-0.667419,-0.130676,-7.0,1.0,-1.0,7880.0,866.0,404.0,-249.0,271.0,-409.0,449.0,170.0,-268.0,0.992395,0.072606,0.099365,15386.0,1822.0,800.0,-145.0,36.0,-1.0
2861.0,2775.0,2855.0,3098.0,2997.0,0.729614,-0.070435,-0.667419,-0.131348,-9.0,-1.0,1.0,7813.0,862.0,404.0,-316.0,267.0,-408.0,442.0,172.0,-334.0,0.99242,0.072548,0.099179,15220.0,1634.0,774.0,-192.0,-6.0,23.0
2864.0,2773.0,2846.0,3095.0,3003.0,0.728821,-0.072449,-0.667908,-0.132385,-9.0,-5.0,3.0,7739.0,747.0,330.0,-393.0,163.0,-467.0,464.0,61.0,-424.0,0.992752,0.071238,0.097356,15476.0,1088.0,434.0,-197.0,-92.0,74.0
2869.0,2783.0,2858.0,3103.0,3007.0,0.728271,-0.073486,-0.668335,-0.132568,-7.0,-5.0,3.0,7760.0,668.0,279.0,-374.0,93.0,-506.0,483.0,-19.0,-413.0,0.992943,0.070164,0.095882,15672.0,878.0,232.0,-154.0,-101.0,80.0
2867.0,2779.0,2851.0,3103.0,3005.0,0.727295,-0.074829,-0.669312,-0.132385,-2.0,-3.0,2.0,7848.0,598.0,204.0,-289.0,37.0,-557.0,522.0,-97.0,-336.0,0.993386,0.068368,0.092906,15958.0,1230.0,272.0,-38.0,-68.0,57.0
2871.0,2774.0,2859.0,3103.0,2995.0,0.726929,-0.075073,-0.669678,-0.132263,-1.0,-2.0,1.0,7870.0,625.0,177.0,-268.0,67.0,-575.0,549.0,-76.0,-314.0,0.993475,0.068002,0.091815,15810.0,1418.0,154.0,-14.0,-43.0,40.0
2864.0,2771.0,2849.0,3103.0,2999.0,0.726379,-0.075378,-0.670288,-0.132019,-1.0,-1.0,1.0,7850.0,642.0,126.0,-290.0,89.0,-612.0,590.0,-64.0,-337.0,0.99367,0.067475,0.090088,15600.0,1224.0,86.0,-15.0,-21.0,37.0
2867.0,2783.0,2855.0,3107.0,3007.0,0.726135,-0.075684,-0.670532,-0.131897,-1.0,-1.0,2.0,7815.0,624.0,96.0,-325.0,75.0,-635.0,606.0,-81.0,-374.0,0.993759,0.066969,0.089328,15402.0,1122.0,38.0,-20.0,-20.0,53.0
2869.0,2790.0,2859.0,3103.0,3007.0,0.725647,-0.076355,-0.671082,-0.131287,0.0,-1.0,3.0,7793.0,558.0,97.0,-349.0,22.0,-620.0,575.0,-126.0,-399.0,0.993985,0.065395,0.087619,15596.0,1016.0,350.0,2.0,-20.0,89.0
2867.0,2777.0,2859.0,3103.0,3007.0,0.725464,-0.076721,-0.671326,-0.130798,0.0,-1.0,4.0,7800.0,552.0,109.0,-343.0,25.0,-602.0,559.0,-119.0,-391.0,0.994115,0.0643,0.086842,15670.0,1116.0,338.0,18.0,-14.0,100.0
2869.0,2773.0,2855.0,3088.0,3003.0,0.725342,-0.077148,-0.671631,-0.1297,2.0,0.0,4.0,7817.0,546.0,153.0,-328.0,35.0,-550.0,514.0,-96.0,-371.0,0.994336,0.062303,0.085903,15638.0,1094.0,422.0,58.0,3.0,100.0
2866.0,2783.0,2863.0,3103.0,3005.0,0.725281,-0.077148,-0.671814,-0.129089,3.0,0.0,3.0,7814.0,551.0,170.0,-332.0,46.0,-529.0,497.0,-79.0,-372.0,0.994426,0.06154,0.08541,15612.0,1162.0,460.0,87.0,2.0,82.0
2867.0,2786.0,2851.0,3091.0,2999.0,-6.1e-05,0.000122,0.477661,0.034973,186.0,-19862.0,32423.0,21269.0,25612.0,10206.0,21268.0,25338.0,12065.0,-4876.0,6155.0,-1890.0,6.7e-05,0.033411,-0.226937,15940.0,1418.0,682.0,121.0,6.0,14.0
2867.0,2780.0,2855.0,3107.0,3007.0,0.725159,-0.075928,-0.672363,-0.127686,5.0,0.0,-1.0,7902.0,639.0,253.0,-245.0,134.0,-437.0,440.0,25.0,-272.0,0.99453,0.061583,0.084321,16076.0,1438.0,692.0,117.0,22.0,-12.0
2865.0,2775.0,2851.0,3103.0,3007.0,0.725342,-0.075012,-0.672363,-0.127197,2.0,2.0,0.0,7950.0,671.0,324.0,-196.0,161.0,-369.0,386.0,67.0,-216.0,0.994469,0.062227,0.084601,15836.0,1464.0,792.0,64.0,58.0,10.0
2870.0,2785.0,2858.0,3101.0,3007.0,0.725464,-0.07489,-0.672302,-0.127075,1.0,2.0,1.0,7904.0,675.0,332.0,-242.0,165.0,-363.0,378.0,76.0,-261.0,0.994495,0.062206,0.084847,15464.0,1368.0,692.0,23.0,49.0,38.0
2858.0,2783.0,2851.0,3095.0,3007.0,0.725342,-0.075317,-0.672424,-0.126648,-1.0,-1.0,3.0,7801.0,609.0,309.0,-346.0,108.0,-381.0,373.0,25.0,-369.0,0.994552,0.061061,0.084333,15390.0,932.0,538.0,-12.0,-18.0,73.0
2865.0,2777.0,2845.0,3095.0,3007.0,0.725159,-0.075684,-0.672668,-0.126282,0.0,-3.0,3.0,7792.0,551.0,292.0,-356.0,58.0,-392.0,368.0,-25.0,-383.0,0.994698,0.060126,0.083591,15592.0,754.0,498.0,11.0,-46.0,80.0
2867.0,2785.0,2855.0,3093.0,2995.0,0.724609,-0.07605,-0.673401,-0.125244,2.0,-3.0,3.0,7852.0,517.0,288.0,-298.0,38.0,-379.0,355.0,-45.0,-325.0,0.994955,0.058466,0.081493,15966.0,1124.0,648.0,53.0,-59.0,76.0
2870.0,2781.0,2855.0,3103.0,3003.0,0.724365,-0.076111,-0.673706,-0.124817,2.0,-3.0,2.0,7889.0,546.0,312.0,-262.0,71.0,-348.0,337.0,-8.0,-284.0,0.995018,0.057916,0.080612,15984.0,1280.0,766.0,46.0,-51.0,62.0
2873.0,2791.0,2853.0,3109.0,3007.0,0.723999,-0.076233,-0.674194,-0.124329,0.0,-2.0,1.0,7945.0,573.0,325.0,-207.0,103.0,-324.0,326.0,24.0,-225.0,0.995188,0.057258,0.079283,15982.0,1118.0,600.0,16.0,-32.0,41.0
2865.0,2781.0,2846.0,3095.0,2992.0,0.723816,-0.076294,-0.674438,-0.124084,0.0,-2.0,1.0,7939.0,552.0,310.0,-214.0,85.0,-334.0,331.0,5.0,-234.0,0.995272,0.056929,0.078618,15788.0,970.0,512.0,19.0,-31.0,45.0
2865.0,2775.0,2847.0,3095.0,2999.0,0.723328,-0.076599,-0.675049,-0.123474,0.0,-3.0,3.0,7902.0,539.0,267.0,-252.0,81.0,-362.0,354.0,-3.0,-274.0,0.995479,0.05589,0.07689,15696.0,1082.0,382.0,20.0,-49.0,69.0
2869.0,2787.0,2858.0,3103.0,3007.0,0.723083,-0.076843,-0.675354,-0.123108,0.0,-3.0,3.0,7876.0,528.0,235.0,-279.0,76.0,-387.0,376.0,-13.0,-302.0,0.995595,0.055155,0.075997,15604.0,960.0,222.0,9.0,-58.0,78.0
2864.0,2779.0,2855.0,3063.0,2997.0,0.722412,-0.077637,-0.676147,-0.122437,-1.0,-3.0,3.0,7831.0,483.0,157.0,-327.0,45.0,-446.0,421.0,-57.0,-356.0,0.995925,0.053399,0.073667,15496.0,802.0,72.0,-15.0,-67.0,84.0
2865.0,2783.0,2855.0,3095.0,3007.0,0.721985,-0.078064,-0.676514,-0.122131,-1.0,-4.0,3.0,7827.0,462.0,122.0,-331.0,31.0,-471.0,441.0,-77.0,-362.0,0.995933,0.052525,0.072414,15694.0,812.0,54.0,-21.0,-69.0,77.0
2865.0,2775.0,2855.0,3095.0,3003.0,0.721375,-0.078735,-0.677246,-0.121704,-1.0,-2.0,2.0,7865.0,443.0,83.0,-296.0,23.0,-493.0,463.0,-94.0,-328.0,0.996261,0.051252,0.070332,15836.0,860.0,88.0,-16.0,-40.0,46.0
2865.0,2783.0,2851.0,3103.0,3007.0,0.72113,-0.078918,-0.67749,-0.121582,-1.0,-1.0,1.0,7872.0,422.0,70.0,-289.0,4.0,-500.0,464.0,-115.0,-322.0,0.996308,0.05092,0.06959,15786.0,678.0,54.0,-6.0,-21.0,25.0
2864.0,2783.0,2853.0,3099.0,3005.0,0.719604,-0.064697,-0.690613,-0.032715,-1.0,-1.0,1.0,7926.0,-278.0,233.0,-251.0,114.0,-76.0,79.0,91.0,-258.0,0.998169,-0.047926,0.037769,15880.0,-650.0,496.0,-5.0,-20.0,35.0
2867.0,2780.0,2855.0,3102.0,3003.0,0.719482,-0.064819,-0.690735,-0.032593,0.0,-2.0,1.0,7925.0,-292.0,238.0,-251.0,103.0,-68.0,70.0,81.0,-258.0,0.998168,-0.048247,0.037401,15836.0,-646.0,538.0,1.0,-24.0,34.0
2873.0,2787.0,2852.0,3103.0,3007.0,0.719177,-0.065002,-0.69104,-0.032349,0.0,-2.0,1.0,7899.0,-315.0,214.0,-277.0,84.0,-85.0,83.0,59.0,-283.0,0.998166,-0.048788,0.036501,15776.0,-764.0,356.0,5.0,-45.0,36.0
2869.0,2783.0,2851.0,3103.0,3003.0,0.718994,-0.065125,-0.691223,-0.032104,0.0,-3.0,1.0,7893.0,-349.0,201.0,-283.0,54.0,-93.0,87.0,28.0,-288.0,0.998152,-0.049266,0.035953,15756.0,-878.0,282.0,17.0,-50.0,39.0
2867.0,2783.0,2853.0,3101.0,3007.0,0.718567,-0.065247,-0.69165,-0.031494,1.0,-2.0,1.0,7905.0,-384.0,190.0,-271.0,27.0,-94.0,85.0,1.0,-275.0,0.998104,-0.050202,0.034693,15864.0,-836.0,342.0,34.0,-43.0,40.0
2867.0,2783.0,2851.0,3103.0,3007.0,0.718445,-0.065308,-0.691833,-0.031189,1.0,-2.0,1.0,7910.0,-390.0,200.0,-266.0,25.0,-80.0,71.0,1.0,-269.0,0.998162,-0.050685,0.034237,15876.0,-792.0,496.0,27.0,-34.0,37.0
2867.0,2783.0,2855.0,3095.0,3003.0,0.718201,-0.065491,-0.692017,-0.030945,-1.0,-2.0,1.0,7886.0,-379.0,219.0,-290.0,40.0,-56.0,49.0,18.0,-293.0,0.998067,-0.051242,0.033594,15678.0,-784.0,482.0,-12.0,-29.0,36.0
2869.0,2783.0,2850.0,3099.0,3007.0,0.718079,-0.065735,-0.692139,-0.030884,-2.0,-2.0,1.0,7875.0,-389.0,217.0,-301.0,34.0,-55.0,47.0,12.0,-304.0,0.99808,-0.051654,0.033214,15672.0,-852.0,408.0,-28.0,-34.0,41.0
2867.0,2783.0,2853.0,3099.0,3007.0,0.717712,-0.066223,-0.692505,-0.03064,-1.0,-2.0,1.0,7858.0,-419.0,205.0,-318.0,12.0,-57.0,45.0,-11.0,-319.0,0.998097,-0.052622,0.032101,15756.0,-858.0,414.0,-14.0,-45.0,35.0
2874.0,2786.0,2855.0,3103.0,3007.0,0.71759,-0.066345,-0.692627,-0.030579,0.0,-2.0,1.0,7875.0,-413.0,197.0,-301.0,20.0,-62.0,52.0,-3.0,-303.0,0.998102,-0.052858,0.031737,15840.0,-746.0,344.0,1.0,-37.0,24.0
2867.0,2785.0,2849.0,3102.0,3007.0,0.717346,-0.066467,-0.692871,-0.030396,-1.0,-1.0,1.0,7875.0,-357.0,169.0,-301.0,79.0,-85.0,83.0,51.0,-307.0,0.998097,-0.05324,0.031021,15704.0,-552.0,174.0,-2.0,-21.0,24.0
2866.0,2778.0,2845.0,3099.0,2999.0,0.717163,-0.066589,-0.693054,-0.030334,-1.0,-2.0,1.0,7862.0,-330.0,144.0,-314.0,107.0,-105.0,106.0,76.0,-322.0,0.998106,-0.053464,0.030485,15616.0,-540.0,156.0,-13.0,-28.0,39.0
2867.0,2781.0,2855.0,3103.0,3005.0,0.716858,-0.067078,-0.693359,-0.03009,-1.0,-2.0,3.0,7865.0,-317.0,101.0,-311.0,129.0,-141.0,145.0,92.0,-321.0,0.998117,-0.054443,0.029544,15818.0,-598.0,36.0,-17.0,-33.0,69.0
2871.0,2783.0,2870.0,3103.0,3005.0,0.716675,-0.067383,-0.693481,-0.029907,-1.0,-2.0,3.0,7882.0,-317.0,87.0,-293.0,134.0,-151.0,157.0,96.0,-304.0,0.998032,-0.055103,0.02906,15878.0,-632.0,130.0,-6.0,-24.0,77.0
2871.0,2783.0,2855.0,3103.0,3007.0,0.716431,-0.06781,-0.693726,-0.029358,0.0,-1.0,3.0,7880.0,-310.0,52.0,-295.0,152.0,-179.0,187.0,110.0,-308.0,0.997994,-0.05643,0.028281,15672.0,-604.0,-12.0,10.0,-14.0,71.0
2867.0,2782.0,2851.0,3101.0,3003.0,0.716309,-0.067993,-0.693848,-0.029053,0.0,-2.0,2.0,7873.0,-322.0,36.0,-302.0,145.0,-192.0,199.0,101.0,-315.0,0.997969,-0.057092,0.027894,15714.0,-734.0,0.0,18.0,-23.0,68.0
2867.0,2782.0,2851.0,3102.0,3003.0,0.716003,-0.068115,-0.694214,-0.028198,2.0,-2.0,2.0,7895.0,-365.0,23.0,-280.0,113.0,-197.0,200.0,69.0,-291.0,0.99796,-0.05839,0.026883,15898.0,-752.0,40.0,67.0,-30.0,67.0
2870.0,2785.0,2855.0,3103.0,3002.0,0.715881,-0.068054,-0.694336,-0.02771,3.0,-1.0,2.0,7918.0,-358.0,38.0,-256.0,124.0,-179.0,185.0,84.0,-267.0,0.997896,-0.058957,0.02652,15992.0,-642.0,180.0,77.0,-19.0,66.0
2867.0,2779.0,2850.0,3103.0,2999.0,0.715942,-0.067993,-0.694336,-0.026733,2.0,0.0,3.0,7958.0,-347.0,97.0,-216.0,146.0,-120.0,130.0,116.0,-227.0,0.997844,-0.060234,0.026563,15952.0,-698.0,374.0,59.0,14.0,84.0
2869.0,2781.0,2855.0,3103.0,3005.0,0.716003,-0.068115,-0.694275,-0.026184,1.0,0.0,4.0,7948.0,-356.0,118.0,-225.0,145.0,-100.0,110.0,117.0,-236.0,0.997773,-0.061184,0.026689,15832.0,-768.0,358.0,44.0,18.0,102.0
2865.0,2779.0,2850.0,3103.0,3005.0,0.716064,-0.068665,-0.694214,-0.025085,1.0,-1.0,5.0,7898.0,-431.0,144.0,-274.0,89.0,-74.0,75.0,61.0,-280.0,0.997649,-0.063507,0.02673,15684.0,-1194.0,376.0,40.0,-13.0,124.0
2867.0,2785.0,2843.0,3103.0,2999.0,0.716003,-0.06897,-0.694275,-0.024353,2.0,-2.0,5.0,7891.0,-488.0,146.0,-281.0,44.0,-70.0,65.0,17.0,-285.0,0.997566,-0.06495,0.02648,15738.0,-1298.0,318.0,66.0,-23.0,130.0
2867.0,2783.0,2851.0,3103.0,3002.0,0.715881,-0.069336,-0.694397,-0.022644,4.0,-2.0,5.0,7899.0,-511.0,187.0,-271.0,44.0,-26.0,22.0,22.0,-273.0,0.997352,-0.067825,0.026004,15890.0,-930.0,546.0,92.0,-34.0,122.0
2869.0,2783.0,2854.0,3103.0,2999.0,0.71582,-0.069397,-0.694458,-0.021912,3.0,-2.0,4.0,7909.0,-492.0,213.0,-260.0,72.0,1.0,0.0,54.0,-264.0,0.997256,-0.068918,0.025791,15864.0,-840.0,550.0,85.0,-33.0,112.0
2871.0,2783.0,2855.0,3099.0,2999.0,0.715637,-0.06958,-0.694702,-0.02063,2.0,-3.0,4.0,7887.0,-471.0,205.0,-281.0,110.0,0.0,4.0,89.0,-288.0,0.99718,-0.070925,0.02511,15702.0,-970.0,264.0,61.0,-49.0,100.0
2869.0,2779.0,2851.0,3101.0,3007.0,0.715454,-0.069641,-0.694946,-0.02002,3.0,-3.0,4.0,7885.0,-496.0,178.0,-284.0,92.0,-22.0,23.0,68.0,-290.0,0.997193,-0.071825,0.024475,15732.0,-1172.0,216.0,71.0,-58.0,99.0
2870.0,2783.0,2855.0,3099.0,2999.0,0.715027,-0.069824,-0.695374,-0.018433,4.0,-3.0,5.0,7868.0,-542.0,142.0,-299.0,65.0,-47.0,44.0,37.0,-304.0,0.996996,-0.074217,0.023183,15718.0,-1104.0,182.0,95.0,-61.0,115.0
2871.0,2779.0,2855.0,3103.0,3007.0,0.714783,-0.069885,-0.695618,-0.017639,3.0,-3.0,5.0,7850.0,-536.0,132.0,-316.0,81.0,-51.0,50.0,51.0,-322.0,0.996896,-0.075365,0.022458,15592.0,-1012.0,200.0,88.0,-62.0,126.0
2871.0,2783.0,2854.0,3099.0,3007.0,0.714294,-0.070312,-0.696106,-0.015991,3.0,-4.0,6.0,7833.0,-560.0,100.0,-331.0,80.0,-71.0,70.0,45.0,-337.0,0.996698,-0.078185,0.020965,15634.0,-1292.0,48.0,82.0,-73.0,140.0
2871.0,2783.0,2855.0,3103.0,3047.0,0.713989,-0.070496,-0.696411,-0.015076,4.0,-4.0,6.0,7822.0,-592.0,72.0,-342.0,60.0,-92.0,88.0,21.0,-347.0,0.996586,-0.079668,0.02005,15608.0,-1366.0,-22.0,105.0,-81.0,140.0
2870.0,2783.0,2851.0,3103.0,3007.0,0.71344,-0.070496,-0.697021,-0.012939,6.0,-4.0,6.0,7847.0,-606.0,35.0,-315.0,70.0,-115.0,113.0,30.0,-321.0,0.99639,-0.082551,0.018355,15768.0,-1178.0,-14.0,146.0,-75.0,140.0
2867.0,2783.0,2855.0,3103.0,2999.0,0.713196,-0.070435,-0.697327,-0.011841,6.0,-3.0,6.0,7866.0,-597.0,29.0,-295.0,90.0,-114.0,115.0,51.0,-303.0,0.996329,-0.083953,0.017563,15860.0,-1150.0,22.0,149.0,-63.0,141.0
2871.0,2782.0,2852.0,3103.0,3005.0,0.712891,-0.070435,-0.697632,-0.009705,5.0,-2.0,6.0,7881.0,-603.0,13.0,-278.0,108.0,-123.0,126.0,69.0,-288.0,0.996037,-0.086884,0.016656,15754.0,-1268.0,-12.0,134.0,-35.0,151.0
2863.0,2785.0,2855.0,3103.0,3003.0,0.712769,-0.070557,-0.697754,-0.008667,5.0,-2.0,6.0,7873.0,-614.0,13.0,-285.0,110.0,-120.0,123.0,70.0,-295.0,0.995897,-0.088486,0.016275,15684.0,-1284.0,38.0,122.0,-30.0,160.0
2871.0,2783.0,2855.0,3095.0,3027.0,0.712646,-0.071045,-0.697937,-0.006531,4.0,-2.0,7.0,7853.0,-682.0,15.0,-303.0,72.0,-113.0,112.0,31.0,-310.0,0.995693,-0.092144,0.015744,15680.0,-1598.0,48.0,95.0,-25.0,177.0
2871.0,2783.0,2847.0,3103.0,3007.0,0.712585,-0.071411,-0.697937,-0.005554,3.0,-1.0,7.0,7861.0,-704.0,26.0,-293.0,66.0,-101.0,99.0,27.0,-299.0,0.995473,-0.09402,0.015593,15818.0,-1522.0,162.0,82.0,-17.0,179.0
2871.0,2783.0,2855.0,3101.0,3007.0,0.712524,-0.072205,-0.697876,-0.003601,3.0,-1.0,7.0,7870.0,-813.0,53.0,-281.0,-11.0,-73.0,64.0,-45.0,-279.0,0.995027,-0.097869,0.01546,15734.0,-1992.0,190.0,75.0,-4.0,166.0
2867.0,2785.0,2851.0,3103.0,3005.0,0.712524,-0.072571,-0.697876,-0.002625,3.0,-1.0,6.0,7857.0,-871.0,55.0,-293.0,-53.0,-71.0,57.0,-88.0,-287.0,0.994888,-0.099754,0.0154,15610.0,-2040.0,78.0,87.0,-6.0,153.0
2870.0,2785.0,2855.0,3103.0,3007.0,0.712402,-0.072937,-0.697937,-0.000793,3.0,-2.0,4.0,7815.0,-918.0,49.0,-332.0,-75.0,-74.0,57.0,-115.0,-323.0,0.99454,-0.102813,0.015082,15524.0,-1896.0,16.0,90.0,-30.0,106.0
2869.0,2783.0,2855.0,3103.0,3005.0,0.71228,-0.072998,-0.69812,-0.000122,3.0,-3.0,3.0,7803.0,-934.0,46.0,-344.0,-83.0,-73.0,55.0,-124.0,-334.0,0.994532,-0.10382,0.014643,15554.0,-1978.0,48.0,79.0,-46.0,77.0
2870.0,2783.0,2852.0,3103.0,3006.0,0.711975,-0.072937,-0.698425,0.000916,3.0,-2.0,1.0,7847.0,-966.0,59.0,-299.0,-104.0,-53.0,34.0,-139.0,-287.0,0.994389,-0.105138,0.013792,15792.0,-1990.0,168.0,70.0,-35.0,37.0
2867.0,2759.0,2859.0,3099.0,3007.0,0.711914,-0.072876,-0.698486,0.001343,2.0,-1.0,1.0,7852.0,-966.0,71.0,-293.0,-100.0,-40.0,22.0,-133.0,-281.0,0.994329,-0.105639,0.013629,15700.0,-1908.0,208.0,61.0,-22.0,33.0
2866.0,2786.0,2859.0,3101.0,3003.0,0.711731,-0.072876,-0.698669,0.001953,0.0,-2.0,1.0,7822.0,-958.0,85.0,-322.0,-85.0,-22.0,5.0,-120.0,-311.0,0.994245,-0.106465,0.013115,15528.0,-1940.0,174.0,15.0,-25.0,28.0
2871.0,2779.0,2853.0,3107.0,3007.0,0.711609,-0.073059,-0.69873,0.002075,-1.0,-2.0,0.0,7811.0,-976.0,80.0,-333.0,-100.0,-25.0,7.0,-136.0,-320.0,0.994142,-0.106879,0.01283,15566.0,-2060.0,122.0,-4.0,-32.0,20.0
2877.0,2779.0,2847.0,3103.0,3003.0,0.711426,-0.073242,-0.698914,0.002136,-1.0,-1.0,-1.0,7865.0,-990.0,83.0,-278.0,-111.0,-17.0,0.0,-140.0,-264.0,0.994137,-0.107199,0.012287,15916.0,-1996.0,150.0,-10.0,-15.0,-10.0
2871.0,2783.0,2847.0,3101.0,3003.0,0.711365,-0.073242,-0.698975,0.002075,-1.0,-1.0,-2.0,7877.0,-973.0,77.0,-267.0,-95.0,-22.0,6.0,-124.0,-255.0,0.994148,-0.107105,0.012114,15774.0,-1814.0,136.0,-15.0,-1.0,-23.0
2867.0,2781.0,2853.0,3103.0,3005.0,0.711304,-0.073303,-0.699036,0.001648,-2.0,-1.0,-2.0,7870.0,-909.0,82.0,-274.0,-35.0,-15.0,5.0,-64.0,-268.0,0.994212,-0.106586,0.011931,15734.0,-1618.0,206.0,-37.0,-8.0,-28.0
2870.0,2779.0,2847.0,3103.0,3005.0,0.711304,-0.073364,-0.699097,0.001404,-3.0,-1.0,-2.0,7870.0,-879.0,97.0,-275.0,-7.0,0.0,-6.0,-35.0,-272.0,0.994334,-0.106331,0.011836,15740.0,-1576.0,276.0,-46.0,-13.0,-23.0
2869.0,2783.0,2851.0,3107.0,2999.0,0.711121,-0.073669,-0.699219,0.000977,-3.0,-2.0,0.0,7862.0,-856.0,112.0,-283.0,13.0,18.0,-22.0,-14.0,-282.0,0.994314,-0.106141,0.011359,15680.0,-1720.0,208.0,-53.0,-29.0,4.0
2867.0,2780.0,2851.0,3102.0,3003.0,0.710938,-0.073853,-0.699341,0.000854,-2.0,-2.0,0.0,7852.0,-853.0,96.0,-292.0,17.0,6.0,-10.0,-13.0,-292.0,0.994249,-0.106204,0.010901,15646.0,-1700.0,108.0,-41.0,-37.0,8.0
2867.0,2783.0,2859.0,3103.0,3003.0,0.710571,-0.074158,-0.699768,0.000732,-1.0,-3.0,0.0,7853.0,-839.0,54.0,-292.0,32.0,-25.0,22.0,-1.0,-294.0,0.994362,-0.106414,0.009737,15766.0,-1580.0,18.0,-18.0,-48.0,7.0
2869.0,2781.0,2850.0,3099.0,2997.0,0.710327,-0.074219,-0.699951,0.000732,-1.0,-2.0,0.0,7867.0,-820.0,40.0,-278.0,52.0,-34.0,33.0,18.0,-282.0,0.99428,-0.106465,0.009125,15820.0,-1502.0,26.0,-12.0,-42.0,7.0
2871.0,2781.0,2851.0,3103.0,3006.0,0.710083,-0.074341,-0.700195,0.00061,-2.0,-1.0,0.0,7900.0,-783.0,33.0,-245.0,88.0,-35.0,39.0,57.0,-253.0,0.994303,-0.106431,0.008418,15868.0,-1450.0,48.0,-26.0,-20.0,16.0
2867.0,2783.0,2858.0,3063.0,3007.0,0.710022,-0.074524,-0.700256,0.000549,-2.0,-1.0,0.0,7888.0,-775.0,17.0,-257.0,98.0,-50.0,54.0,64.0,-266.0,0.994313,-0.106597,0.008219,15632.0,-1524.0,-74.0,-36.0,-16.0,22.0
2871.0,2765.0,2859.0,3102.0,3007.0,0.709656,-0.075012,-0.7005,0.000366,-2.0,-2.0,0.0,7847.0,-787.0,-31.0,-297.0,89.0,-90.0,93.0,47.0,-305.0,0.994173,-0.106979,0.007284,15630.0,-1624.0,-196.0,-41.0,-31.0,21.0
2871.0,2779.0,2851.0,3103.0,3003.0,0.709534,-0.075195,-0.700684,0.000305,-2.0,-2.0,0.0,7841.0,-801.0,-43.0,-304.0,76.0,-98.0,99.0,32.0,-311.0,0.994271,-0.107135,0.006826,15638.0,-1712.0,-166.0,-30.0,-31.0,13.0
2869.0,2775.0,2852.0,3101.0,3007.0,0.709229,-0.075256,-0.700989,0.000244,-1.0,-1.0,0.0,7859.0,-801.0,-79.0,-286.0,76.0,-127.0,129.0,31.0,-293.0,0.994286,-0.10709,0.005956,15758.0,-1542.0,-248.0,-1.0,-21.0,0.0
2870.0,2786.0,2855.0,3102.0,3007.0,0.709106,-0.075256,-0.701111,0.000244,0.0,-1.0,0.0,7872.0,-780.0,-92.0,-273.0,97.0,-137.0,141.0,52.0,-282.0,0.994288,-0.107072,0.005612,15812.0,-1438.0,-286.0,3.0,-12.0,0.0
2875.0,2783.0,2849.0,3103.0,3007.0,0.708984,-0.075134,-0.701172,0.000305,0.0,0.0,0.0,7884.0,-755.0,-107.0,-260.0,121.0,-151.0,158.0,76.0,-272.0,0.994194,-0.106966,0.005372,15728.0,-1438.0,-210.0,18.0,9.0,17.0
2867.0,2779.0,2853.0,3103.0,2999.0,0.708984,-0.075134,-0.701172,0.000488,0.0,0.0,1.0,7874.0,-745.0,-111.0,-270.0,133.0,-155.0,163.0,86.0,-283.0,0.994166,-0.107223,0.005372,15670.0,-1432.0,-246.0,21.0,15.0,34.0
2868.0,2782.0,2853.0,3103.0,3005.0,0.709045,-0.075317,-0.701172,0.000854,0.0,0.0,2.0,7867.0,-738.0,-106.0,-277.0,146.0,-150.0,159.0,98.0,-291.0,0.994197,-0.108005,0.005431,15806.0,-1498.0,-154.0,10.0,17.0,53.0
2868.0,2783.0,2855.0,3099.0,3006.0,0.709045,-0.075439,-0.701111,0.001038,0.0,0.0,2.0,7881.0,-748.0,-95.0,-262.0,140.0,-140.0,149.0,95.0,-276.0,0.994082,-0.108435,0.005499,15850.0,-1578.0,-144.0,1.0,18.0,57.0
2867.0,2783.0,2853.0,3103.0,3007.0,0.709167,-0.075928,-0.700928,0.001343,-1.0,1.0,2.0,7883.0,-780.0,-62.0,-259.0,117.0,-109.0,116.0,76.0,-270.0,0.993946,-0.109573,0.005856,15746.0,-1732.0,-44.0,-15.0,29.0,57.0
2870.0,2779.0,2851.0,3099.0,3003.0,0.709229,-0.076233,-0.700806,0.001465,-1.0,1.0,2.0,7864.0,-815.0,-60.0,-277.0,87.0,-109.0,112.0,44.0,-285.0,0.993839,-0.110186,0.006067,15590.0,-1878.0,-118.0,-13.0,27.0,59.0
2871.0,2782.0,2854.0,3095.0,3003.0,0.70929,-0.076721,-0.700745,0.002014,0.0,0.0,2.0,7818.0,-917.0,-60.0,-322.0,-2.0,-110.0,103.0,-49.0,-320.0,0.993753,-0.111658,0.006167,15540.0,-2190.0,-114.0,14.0,8.0,61.0
2867.0,2783.0,2855.0,3111.0,3003.0,0.70929,-0.076965,-0.700684,0.002441,1.0,0.0,2.0,7808.0,-1000.0,-58.0,-331.0,-77.0,-108.0,93.0,-124.0,-320.0,0.993599,-0.112603,0.006216,15578.0,-2538.0,-106.0,36.0,9.0,61.0
2870.0,2785.0,2859.0,3103.0,3007.0,0.709412,-0.077393,-0.7005,0.00354,1.0,0.0,3.0,7791.0,-1182.0,-18.0,-346.0,-241.0,-71.0,39.0,-284.0,-316.0,0.993338,-0.114766,0.006587,15500.0,-2976.0,194.0,39.0,22.0,69.0
2866.0,2782.0,2851.0,3099.0,2999.0,0.709534,-0.077942,-0.700317,0.004089,-1.0,1.0,4.0,7788.0,-1323.0,55.0,-347.0,-370.0,-1.0,-43.0,-405.0,-301.0,0.99316,-0.116332,0.006935,15584.0,-3604.0,646.0,-16.0,30.0,99.0
2867.0,2779.0,2851.0,3099.0,3005.0,0.710205,-0.081604,-0.699219,0.005249,-13.0,4.0,13.0,7906.0,-1941.0,437.0,-223.0,-931.0,364.0,-466.0,-906.0,-103.0,0.992321,-0.123252,0.008853,16412.0,-6388.0,2486.0,-296.0,97.0,318.0
2871.0,2787.0,2851.0,3103.0,2999.0,0.710999,-0.085999,-0.697876,0.00592,-26.0,8.0,22.0,8042.0,-2502.0,746.0,-79.0,-1432.0,654.0,-811.0,-1346.0,115.0,0.991359,-0.130553,0.011127,16964.0,-8698.0,3444.0,-579.0,184.0,523.0
2869.0,2783.0,2854.0,3095.0,3007.0,0.713196,-0.101196,-0.693604,0.006042,-54.0,15.0,28.0,7631.0,-4107.0,893.0,-463.0,-2855.0,750.0,-1136.0,-2763.0,-8.0,0.988127,-0.152728,0.017358,12190.0,-13620.0,686.0,-1223.0,360.0,647.0
2869.0,2781.0,2852.0,3103.0,3007.0,0.713501,-0.109741,-0.692017,0.004395,-60.0,11.0,10.0,6956.0,-5072.0,533.0,-1125.0,-3739.0,384.0,-971.0,-3769.0,-494.0,0.986544,-0.162683,0.018173,9656.0,-16052.0,-1494.0,-1363.0,263.0,246.0
2869.0,2779.0,2851.0,3099.0,3003.0,0.711609,-0.119751,-0.692322,-0.0047,-48.0,-1.0,-58.0,5787.0,-6950.0,-431.0,-2294.0,-5607.0,-535.0,-535.0,-5905.0,-1350.0,0.98645,-0.163924,0.01276,9390.0,-18536.0,-3130.0,-1092.0,-3.0,-1308.0
2869.0,2782.0,2853.0,3099.0,3005.0,0.710205,-0.112915,-0.694458,-0.023499,-25.0,9.0,-134.0,5604.0,-7408.0,-726.0,-2520.0,-6361.0,-807.0,-504.0,-6658.0,-1694.0,0.991722,-0.127748,0.009922,11028.0,-14064.0,-1854.0,-561.0,224.0,-3050.0
2869.0,2783.0,2853.0,3103.0,3007.0,0.710571,-0.103149,-0.695068,-0.036926,-18.0,18.0,-165.0,5578.0,-6898.0,-684.0,-2576.0,-6117.0,-786.0,-507.0,-6360.0,-1991.0,0.995409,-0.095257,0.012515,11018.0,-9872.0,-886.0,-394.0,415.0,-3775.0
2871.0,2786.0,2855.0,3103.0,3005.0,0.711975,-0.07489,-0.694336,-0.072815,-24.0,29.0,-209.0,5527.0,-4331.0,-258.0,-2661.0,-4285.0,-458.0,-508.0,-4287.0,-2647.0,0.999606,-0.005524,0.0245,10852.0,724.0,844.0,-545.0,665.0,-4775.0
2867.0,2787.0,2858.0,3099.0,3007.0,0.71167,-0.042542,-0.691101,-0.118835,-47.0,30.0,-223.0,5678.0,-1037.0,391.0,-2463.0,-1886.0,53.0,-522.0,-1542.0,-2641.0,0.993783,0.103704,0.041165,12116.0,7644.0,2958.0,-1065.0,691.0,-5086.0
2867.0,2775.0,2855.0,3101.0,3007.0,0.710754,-0.026978,-0.68811,-0.143738,-55.0,31.0,-219.0,5791.0,510.0,729.0,-2285.0,-796.0,306.0,-515.0,-307.0,-2363.0,0.98591,0.159466,0.051609,12198.0,10222.0,3386.0,-1258.0,716.0,-5013.0
2866.0,2782.0,2855.0,3095.0,3003.0,0.707214,0.00177,-0.680115,-0.192993,-63.0,29.0,-199.0,5794.0,3370.0,1159.0,-2080.0,1198.0,545.0,-201.0,1823.0,-1641.0,0.961291,0.265019,0.074839,11094.0,14556.0,3144.0,-1426.0,668.0,-4552.0
2867.0,2779.0,2851.0,3103.0,3003.0,0.701294,0.026855,-0.671631,-0.237488,-55.0,19.0,-171.0,5537.0,5547.0,1366.0,-2075.0,2625.0,576.0,260.0,3253.0,-936.0,0.929266,0.356675,0.096404,10320.0,17166.0,3584.0,-1239.0,453.0,-3902.0
2869.0,2783.0,2850.0,3103.0,3003.0,0.697693,0.038635,-0.667725,-0.256714,-43.0,15.0,-156.0,5420.0,6392.0,1558.0,-2050.0,3141.0,695.0,349.0,3758.0,-550.0,0.911897,0.396739,0.105329,10196.0,17520.0,4358.0,-975.0,350.0,-3569.0
2870.0,2783.0,2853.0,3103.0,2999.0,0.690063,0.060852,-0.66156,-0.287231,-17.0,5.0,-117.0,5249.0,8082.0,2005.0,-1944.0,4280.0,1043.0,441.0,4778.0,401.0,0.87808,0.464025,0.117325,10146.0,21644.0,5350.0,-369.0,124.0,-2670.0
2866.0,2777.0,2852.0,3095.0,2999.0,0.686157,0.070618,-0.659485,-0.298828,-10.0,-1.0,-95.0,5228.0,9012.0,2193.0,-1840.0,4989.0,1208.0,526.0,5333.0,1007.0,0.862815,0.491055,0.120203,10404.0,23624.0,5424.0,-227.0,-12.0,-2165.0
2864.0,2779.0,2851.0,3103.0,3007.0,0.679016,0.084534,-0.657043,-0.316467,-12.0,-11.0,-51.0,5434.0,10507.0,2381.0,-1437.0,6159.0,1378.0,750.0,6029.0,2231.0,0.838782,0.530665,0.122362,11772.0,24274.0,4844.0,-264.0,-236.0,-1157.0
2869.0,2781.0,2851.0,3101.0,2999.0,0.674072,0.089294,-0.656616,-0.326355,-14.0,-15.0,-6.0,5845.0,10936.0,2133.0,-929.0,6438.0,1135.0,1076.0,5831.0,2904.0,0.82693,0.548962,0.121763,13096.0,22490.0,3336.0,-301.0,-322.0,-115.0
2865.0,2783.0,2855.0,3102.0,3003.0,0.672791,0.08905,-0.657043,-0.328247,-11.0,-13.0,14.0,6079.0,10921.0,1958.0,-684.0,6405.0,968.0,1221.0,5607.0,3082.0,0.825644,0.55117,0.120757,13538.0,21542.0,2832.0,-244.0,-288.0,329.0
2867.0,2783.0,2851.0,3101.0,3005.0,0.672974,0.085144,-0.658325,-0.326233,-3.0,-6.0,47.0,6512.0,10552.0,1625.0,-291.0,6094.0,652.0,1401.0,5074.0,3151.0,0.830517,0.544134,0.11868,14148.0,19682.0,2330.0,-56.0,-129.0,1080.0
2867.0,2782.0,2847.0,3095.0,2999.0,0.674377,0.081848,-0.659119,-0.322632,0.0,-3.0,62.0,6626.0,10266.0,1459.0,-223.0,5877.0,494.0,1475.0,4851.0,3019.0,0.836176,0.535698,0.11774,13768.0,18618.0,1892.0,19.0,-66.0,1432.0
2865.0,2782.0,2851.0,3103.0,3003.0,0.678833,0.071533,-0.66156,-0.310608,4.0,-6.0,95.0,6616.0,9386.0,1109.0,-377.0,5223.0,170.0,1573.0,4410.0,2351.0,0.85374,0.50809,0.114513,13064.0,15938.0,1384.0,97.0,-130.0,2192.0
2869.0,2781.0,2855.0,3103.0,3007.0,0.68158,0.063904,-0.663391,-0.302185,4.0,-10.0,113.0,6589.0,8815.0,982.0,-502.0,4816.0,66.0,1544.0,4167.0,1923.0,0.865686,0.488045,0.111695,13056.0,13944.0,1252.0,100.0,-226.0,2605.0
2867.0,2781.0,2851.0,3111.0,3007.0,0.688049,0.043396,-0.668274,-0.279602,9.0,-18.0,151.0,6648.0,7371.0,836.0,-686.0,3820.0,-8.0,1289.0,3509.0,1040.0,0.895344,0.433419,0.103116,13498.0,10076.0,1298.0,213.0,-404.0,3461.0
2867.0,2786.0,2855.0,3103.0,3007.0,0.010193,0.406006,0.400391,0.045288,-19862.0,-24164.0,-10016.0,29003.0,-8785.0,-28131.0,28768.0,-9149.0,-25484.0,-4037.0,8725.0,8646.0,0.028612,0.044543,-0.322999,13120.0,6588.0,696.0,517.0,-525.0,4125.0
2867.0,2780.0,2831.0,3095.0,3003.0,0.698303,0.004456,-0.677612,-0.230652,32.0,-25.0,189.0,6602.0,4854.0,533.0,-1133.0,2242.0,-135.0,864.0,2333.0,-366.0,0.944302,0.318808,0.081649,13030.0,4182.0,370.0,754.0,-558.0,4338.0
2866.0,2783.0,2854.0,3119.0,3003.0,0.704224,-0.022095,-0.684204,-0.188232,56.0,-26.0,203.0,6564.0,3071.0,355.0,-1398.0,1215.0,-158.0,519.0,1410.0,-1093.0,0.971983,0.22646,0.062739,12838.0,958.0,268.0,1289.0,-595.0,4659.0
2896.0,2783.0,2854.0,3103.0,3003.0,0.706665,-0.03479,-0.687256,-0.164612,66.0,-27.0,207.0,6476.0,2211.0,264.0,-1574.0,760.0,-169.0,373.0,961.0,-1421.0,0.982773,0.177091,0.052942,12330.0,-742.0,-22.0,1529.0,-610.0,4747.0
2864.0,2779.0,2855.0,3103.0,3005.0,0.709839,-0.058533,-0.692627,-0.113953,84.0,-31.0,207.0,6162.0,642.0,38.0,-2002.0,29.0,-238.0,208.0,132.0,-2001.0,0.996647,0.074756,0.033698,11130.0,-2938.0,-678.0,1940.0,-689.0,4749.0
2867.0,2783.0,2853.0,3103.0,3003.0,0.709717,-0.078064,-0.697388,-0.061768,98.0,-36.0,191.0,5791.0,-631.0,-228.0,-2397.0,-429.0,-351.0,212.0,-540.0,-2390.0,0.999539,-0.024655,0.01507,10968.0,-5212.0,-1134.0,2250.0,-805.0,4378.0
2867.0,2779.0,2853.0,3102.0,2999.0,0.70874,-0.085754,-0.699341,-0.03595,104.0,-35.0,179.0,5790.0,-1309.0,-310.0,-2381.0,-725.0,-368.0,192.0,-939.0,-2325.0,0.997468,-0.071273,0.007174,11766.0,-6726.0,-1040.0,2399.0,-797.0,4112.0
2865.0,2779.0,2881.0,3095.0,3003.0,0.706421,-0.096619,-0.700989,0.014526,116.0,-25.0,154.0,6081.0,-2636.0,-181.0,-2009.0,-1350.0,-168.0,-21.0,-1657.0,-1772.0,0.987579,-0.156873,-0.001479,13230.0,-8794.0,602.0,2676.0,-570.0,3547.0
2867.0,2779.0,2851.0,3099.0,3003.0,0.705505,-0.103333,-0.698547,0.059998,101.0,-11.0,131.0,6114.0,-3308.0,282.0,-1858.0,-1426.0,259.0,-374.0,-1794.0,-1480.0,0.973258,-0.229626,0.002692,11650.0,-7856.0,2128.0,2328.0,-251.0,3007.0
2866.0,2781.0,2849.0,3099.0,3007.0,0.705139,-0.106934,-0.696533,0.078735,79.0,-9.0,117.0,5893.0,-3496.0,526.0,-2016.0,-1362.0,470.0,-556.0,-1818.0,-1588.0,0.965467,-0.26049,0.006827,10238.0,-8194.0,2384.0,1829.0,-202.0,2685.0
2869.0,2783.0,2853.0,3101.0,3005.0,0.702881,-0.116211,-0.693726,0.105896,32.0,-14.0,80.0,5306.0,-4318.0,768.0,-2481.0,-1776.0,682.0,-741.0,-2446.0,-1800.0,0.9506,-0.31029,0.010495,8984.0,-12190.0,1834.0,738.0,-308.0,1834.0
2864.0,2779.0,2855.0,3103.0,3005.0,0.698608,-0.126099,-0.693787,0.121155,3.0,-20.0,37.0,4999.0,-5897.0,656.0,-2691.0,-3076.0,611.0,-649.0,-3809.0,-1463.0,0.938815,-0.344298,0.005491,9630.0,-16814.0,786.0,88.0,-444.0,856.0
2867.0,2781.0,2850.0,3103.0,2999.0,0.69635,-0.129822,-0.69458,0.125427,-2.0,-19.0,17.0,5047.0,-6644.0,591.0,-2610.0,-3735.0,580.0,-610.0,-4414.0,-1112.0,0.934775,-0.355041,0.00134,10626.0,-17506.0,870.0,-34.0,-430.0,399.0
2866.0,2781.0,2851.0,3099.0,3003.0,0.69397,-0.133179,-0.695923,0.127869,-8.0,-7.0,-20.0,5471.0,-7410.0,563.0,-2162.0,-4437.0,596.0,-628.0,-4914.0,-407.0,0.93184,-0.362817,-0.004101,12452.0,-16026.0,1066.0,-172.0,-145.0,-449.0
2873.0,2783.0,2853.0,3103.0,3007.0,0.694214,-0.133057,-0.696045,0.125854,-14.0,2.0,-37.0,5747.0,-7433.0,578.0,-1895.0,-4484.0,614.0,-659.0,-4859.0,-156.0,0.932917,-0.35994,-0.00441,13190.0,-14636.0,1298.0,-309.0,58.0,-827.0
2865.0,2789.0,2851.0,3103.0,3007.0,0.69751,-0.131042,-0.69519,0.114319,-36.0,21.0,-66.0,6306.0,-6896.0,672.0,-1393.0,-4096.0,679.0,-782.0,-4308.0,90.0,0.939843,-0.341754,-0.000873,14298.0,-11532.0,1650.0,-805.0,497.0,-1510.0
2869.0,2782.0,2855.0,3107.0,3007.0,0.703857,-0.128418,-0.692627,0.091858,-64.0,38.0,-95.0,6656.0,-5992.0,701.0,-1138.0,-3468.0,638.0,-832.0,-3610.0,-9.0,0.951429,-0.308022,0.00763,13794.0,-9118.0,1074.0,-1461.0,893.0,-2163.0
2869.0,2783.0,2859.0,3103.0,2973.0,0.707397,-0.126953,-0.691101,0.076599,-77.0,43.0,-110.0,6729.0,-5567.0,610.0,-1121.0,-3228.0,507.0,-759.0,-3366.0,-146.0,0.958317,-0.285488,0.012541,13948.0,-8708.0,698.0,-1756.0,996.0,-2510.0
2869.0,2781.0,2851.0,3101.0,3007.0,0.714844,-0.122192,-0.687378,0.039673,-89.0,51.0,-141.0,6993.0,-4824.0,548.0,-978.0,-2946.0,341.0,-716.0,-3027.0,-267.0,0.97304,-0.229237,0.025156,14822.0,-7396.0,1116.0,-2035.0,1184.0,-3227.0
2868.0,2782.0,2854.0,3099.0,3003.0,0.722656,-0.112488,-0.682007,-0.002869,-84.0,58.0,-165.0,7219.0,-3937.0,674.0,-861.0,-2637.0,309.0,-779.0,-2647.0,-417.0,0.986358,-0.158667,0.044453,15054.0,-4640.0,2028.0,-1923.0,1330.0,-3777.0
2866.0,2783.0,2851.0,3103.0,3003.0,0.72644,-0.105713,-0.678589,-0.025085,-80.0,59.0,-172.0,7262.0,-3283.0,828.0,-858.0,-2303.0,363.0,-837.0,-2272.0,-554.0,0.991212,-0.119543,0.056687,14608.0,-2484.0,2604.0,-1831.0,1358.0,-3920.0
2869.0,2783.0,2855.0,3101.0,3007.0,0.732483,-0.089783,-0.671204,-0.069824,-74.0,53.0,-173.0,7158.0,-1701.0,1166.0,-999.0,-1391.0,487.0,-871.0,-1263.0,-901.0,0.995828,-0.037796,0.082831,14276.0,2120.0,3800.0,-1676.0,1232.0,-3958.0
2867.0,2782.0,2853.0,3102.0,3003.0,0.735901,-0.072083,-0.663574,-0.113892,-67.0,42.0,-168.0,6952.0,67.0,1606.0,-1183.0,-302.0,713.0,-874.0,-22.0,-1110.0,0.993069,0.04506,0.108995,12792.0,4772.0,4034.0,-1517.0,978.0,-3831.0
2864.0,2782.0,2851.0,3095.0,2999.0,0.736023,-0.063171,-0.660461,-0.134216,-59.0,31.0,-159.0,6778.0,755.0,1731.0,-1325.0,64.0,751.0,-820.0,415.0,-1215.0,0.989187,0.084298,0.119544,12612.0,5532.0,4260.0,-1336.0,726.0,-3636.0
2867.0,2781.0,2849.0,3103.0,3005.0,0.733704,-0.045593,-0.656433,-0.169434,-39.0,12.0,-135.0,6679.0,2110.0,2055.0,-1338.0,835.0,956.0,-756.0,1312.0,-1051.0,0.978705,0.15554,0.134046,13462.0,8342.0,5062.0,-871.0,280.0,-3083.0
2868.0,2783.0,2855.0,3103.0,3003.0,0.731689,-0.03717,-0.655212,-0.184143,-30.0,6.0,-121.0,6798.0,2805.0,2251.0,-1168.0,1273.0,1115.0,-734.0,1770.0,-743.0,0.972513,0.186911,0.138593,14498.0,9796.0,5758.0,-684.0,138.0,-2756.0
2867.0,2782.0,2853.0,3103.0,3007.0,0.727722,-0.022278,-0.653198,-0.20813,-19.0,2.0,-88.0,7156.0,4063.0,2554.0,-708.0,2101.0,1360.0,-625.0,2524.0,21.0,0.959967,0.239476,0.145733,15236.0,11466.0,5552.0,-428.0,51.0,-2011.0
2867.0,2783.0,2851.0,3103.0,3003.0,0.724182,-0.011536,-0.6521,-0.223999,-9.0,-4.0,-51.0,7233.0,4880.0,2415.0,-546.0,2623.0,1192.0,-256.0,2896.0,381.0,0.949646,0.275432,0.149248,14406.0,11612.0,3946.0,-202.0,-72.0,-1163.0
2867.0,2783.0,2853.0,3103.0,3003.0,0.722473,-0.007935,-0.652405,-0.228821,-5.0,-8.0,-33.0,7230.0,5067.0,2229.0,-522.0,2715.0,1011.0,-46.0,2911.0,435.0,0.946321,0.287103,0.148631,14492.0,11010.0,3352.0,-92.0,-175.0,-750.0
2865.0,2783.0,2847.0,3103.0,3007.0,0.719482,-0.004578,-0.654419,-0.232422,2.0,-14.0,0.0,7294.0,5122.0,1797.0,-437.0,2683.0,622.0,313.0,2729.0,475.0,0.943814,0.297615,0.14339,14754.0,10158.0,2200.0,60.0,-313.0,9.0
2867.0,2787.0,2853.0,3103.0,3005.0,0.718262,-0.004578,-0.655884,-0.232056,3.0,-16.0,13.0,7330.0,5057.0,1548.0,-405.0,2617.0,404.0,495.0,2593.0,453.0,0.944317,0.297827,0.139545,14848.0,9644.0,1548.0,69.0,-353.0,299.0
2865.0,2781.0,2855.0,3103.0,3007.0,0.716309,-0.007446,-0.659241,-0.228577,1.0,-17.0,29.0,7456.0,4694.0,1044.0,-308.0,2312.0,-26.0,796.0,2159.0,376.0,0.947844,0.290706,0.130692,15428.0,7788.0,656.0,43.0,-367.0,678.0
2864.0,2778.0,2847.0,3095.0,3007.0,0.715637,-0.009949,-0.660889,-0.225769,1.0,-15.0,34.0,7560.0,4358.0,817.0,-225.0,2030.0,-217.0,881.0,1824.0,335.0,0.950405,0.284177,0.126235,15760.0,6576.0,324.0,40.0,-336.0,791.0
2865.0,2783.0,2851.0,3099.0,3003.0,0.715271,-0.015808,-0.663574,-0.218811,3.0,-9.0,39.0,7763.0,3619.0,499.0,-70.0,1425.0,-475.0,921.0,1159.0,258.0,0.956189,0.267781,0.11891,16026.0,5058.0,196.0,89.0,-200.0,908.0
2869.0,2782.0,2851.0,3103.0,3006.0,0.715515,-0.018677,-0.664429,-0.214905,4.0,-6.0,39.0,7823.0,3275.0,406.0,-31.0,1154.0,-546.0,897.0,884.0,205.0,0.958845,0.258851,0.116332,15964.0,4522.0,350.0,109.0,-122.0,915.0
2866.0,2785.0,2850.0,3102.0,3005.0,0.716797,-0.024414,-0.665283,-0.207275,3.0,-1.0,38.0,7834.0,2686.0,343.0,-61.0,713.0,-587.0,787.0,484.0,46.0,0.963867,0.240794,0.113563,15600.0,3790.0,696.0,79.0,-8.0,879.0
2867.0,2783.0,2847.0,3099.0,3005.0,0.717651,-0.027222,-0.665344,-0.203796,1.0,1.0,36.0,7807.0,2466.0,381.0,-107.0,564.0,-545.0,696.0,374.0,-34.0,0.966066,0.232118,0.113132,15404.0,3672.0,1038.0,37.0,30.0,834.0
2865.0,2783.0,2847.0,3103.0,2999.0,0.719482,-0.032593,-0.664856,-0.19812,-2.0,3.0,29.0,7712.0,2046.0,477.0,-231.0,272.0,-455.0,510.0,164.0,-216.0,0.969619,0.216543,0.113811,15090.0,2854.0,1238.0,-44.0,74.0,684.0
2870.0,2785.0,2853.0,3103.0,3003.0,0.720337,-0.034973,-0.664429,-0.195862,-3.0,3.0,25.0,7647.0,1851.0,517.0,-306.0,131.0,-421.0,427.0,61.0,-317.0,0.970925,0.209888,0.114558,14906.0,2532.0,1274.0,-52.0,81.0,583.0
2866.0,2786.0,2853.0,3103.0,3003.0,0.721802,-0.038269,-0.663757,-0.192322,1.0,3.0,15.0,7511.0,1482.0,584.0,-459.0,-156.0,-365.0,272.0,-153.0,-520.0,0.972922,0.200065,0.115947,14512.0,1988.0,1294.0,29.0,87.0,348.0
2869.0,2783.0,2855.0,3101.0,2999.0,0.722351,-0.039001,-0.663513,-0.190918,4.0,3.0,10.0,7432.0,1349.0,625.0,-542.0,-264.0,-329.0,198.0,-224.0,-617.0,0.973471,0.197008,0.11647,14382.0,2016.0,1476.0,97.0,73.0,234.0
2867.0,2781.0,2848.0,3099.0,3003.0,0.722961,-0.038513,-0.663513,-0.18866,9.0,1.0,1.0,7314.0,1266.0,726.0,-664.0,-328.0,-228.0,77.0,-226.0,-737.0,0.973921,0.194669,0.116533,14438.0,2456.0,1792.0,215.0,29.0,31.0
2866.0,2783.0,2854.0,3103.0,3007.0,0.723145,-0.037598,-0.663635,-0.187805,11.0,0.0,-2.0,7313.0,1254.0,790.0,-665.0,-342.0,-163.0,11.0,-218.0,-733.0,0.97393,0.194891,0.116383,14666.0,2454.0,1978.0,253.0,20.0,-27.0
2869.0,2779.0,2857.0,3103.0,3007.0,0.723511,-0.0354,-0.663818,-0.186096,11.0,1.0,-1.0,7407.0,1300.0,948.0,-569.0,-304.0,-3.0,-121.0,-156.0,-613.0,0.973735,0.195843,0.116192,15186.0,2890.0,2422.0,254.0,27.0,-13.0
2867.0,2781.0,2850.0,3103.0,2999.0,0.723755,-0.034607,-0.663818,-0.185242,9.0,1.0,1.0,7460.0,1354.0,1028.0,-516.0,-250.0,75.0,-175.0,-95.0,-542.0,0.973705,0.19584,0.116283,15212.0,3036.0,2510.0,208.0,33.0,36.0
2865.0,2779.0,2847.0,3099.0,3003.0,0.724426,-0.03418,-0.663574,-0.183594,4.0,1.0,5.0,7547.0,1425.0,1131.0,-431.0,-165.0,172.0,-236.0,-7.0,-431.0,0.973972,0.194135,0.117001,15334.0,3016.0,2504.0,97.0,29.0,127.0
2865.0,2782.0,2851.0,3103.0,3003.0,0.724792,-0.034485,-0.663391,-0.1828,2.0,1.0,6.0,7577.0,1451.0,1148.0,-404.0,-126.0,185.0,-236.0,25.0,-396.0,0.974249,0.192547,0.117463,15326.0,3048.0,2386.0,50.0,25.0,153.0
2867.0,2781.0,2855.0,3103.0,2995.0,0.725403,-0.035339,-0.663025,-0.181519,0.0,0.0,6.0,7639.0,1428.0,1142.0,-346.0,-123.0,172.0,-220.0,10.0,-340.0,0.97475,0.189432,0.118307,15496.0,2678.0,2248.0,18.0,22.0,145.0
2867.0,2783.0,2851.0,3057.0,3003.0,0.725647,-0.035767,-0.662903,-0.180847,1.0,1.0,5.0,7682.0,1392.0,1151.0,-305.0,-146.0,179.0,-232.0,-18.0,-303.0,0.975003,0.18786,0.11855,15632.0,2586.0,2384.0,35.0,24.0,127.0
2867.0,2777.0,2855.0,3095.0,3002.0,0.726257,-0.036194,-0.662537,-0.179688,1.0,1.0,3.0,7763.0,1409.0,1209.0,-227.0,-110.0,230.0,-265.0,12.0,-214.0,0.975351,0.185527,0.119473,15778.0,3040.0,2594.0,45.0,24.0,90.0
2869.0,2783.0,2854.0,3103.0,3007.0,0.726501,-0.036255,-0.662354,-0.179321,1.0,0.0,2.0,7780.0,1448.0,1224.0,-210.0,-66.0,241.0,-261.0,52.0,-188.0,0.975404,0.18487,0.119934,15644.0,3122.0,2548.0,28.0,15.0,66.0
2869.0,2780.0,2853.0,3101.0,3003.0,0.726685,-0.03656,-0.662292,-0.178955,-1.0,-2.0,2.0,7768.0,1457.0,1211.0,-224.0,-49.0,226.0,-242.0,67.0,-200.0,0.975641,0.183906,0.120127,15484.0,2776.0,2334.0,-3.0,-34.0,50.0
2867.0,2782.0,2849.0,3103.0,3003.0,0.726624,-0.036804,-0.662354,-0.178711,0.0,-3.0,2.0,7776.0,1429.0,1195.0,-217.0,-72.0,213.0,-237.0,40.0,-199.0,0.975718,0.183254,0.119853,15638.0,2690.0,2310.0,5.0,-51.0,56.0
2865.0,2781.0,2853.0,3101.0,3006.0,0.726501,-0.037354,-0.66272,-0.177917,1.0,-3.0,3.0,7799.0,1375.0,1172.0,-198.0,-112.0,198.0,-234.0,-5.0,-190.0,0.976225,0.181544,0.118866,15590.0,2590.0,2276.0,35.0,-59.0,81.0
2865.0,2783.0,2851.0,3103.0,3005.0,0.72644,-0.037598,-0.662903,-0.177368,1.0,-3.0,4.0,7802.0,1358.0,1164.0,-197.0,-120.0,194.0,-232.0,-14.0,-191.0,0.976456,0.180531,0.118321,15618.0,2644.0,2292.0,41.0,-63.0,92.0
2869.0,2783.0,2858.0,3103.0,3007.0,0.726257,-0.038147,-0.663269,-0.176392,1.0,-4.0,3.0,7762.0,1374.0,1141.0,-240.0,-88.0,181.0,-212.0,19.0,-228.0,0.976866,0.178581,0.117183,15338.0,2802.0,2190.0,26.0,-73.0,89.0
2870.0,2783.0,2853.0,3099.0,3005.0,0.726074,-0.038452,-0.663574,-0.176025,0.0,-4.0,3.0,7720.0,1382.0,1105.0,-284.0,-74.0,151.0,-182.0,32.0,-273.0,0.977145,0.177774,0.116359,15172.0,2818.0,1948.0,11.0,-90.0,77.0
2865.0,2779.0,2852.0,3101.0,3003.0,0.725464,-0.039062,-0.664368,-0.175476,0.0,-6.0,2.0,7653.0,1370.0,1017.0,-355.0,-75.0,81.0,-119.0,25.0,-351.0,0.977659,0.176484,0.114179,15096.0,2642.0,1732.0,5.0,-122.0,50.0
2865.0,2781.0,2853.0,3103.0,3007.0,0.725037,-0.039307,-0.664917,-0.175232,0.0,-6.0,1.0,7635.0,1353.0,969.0,-376.0,-89.0,45.0,-90.0,5.0,-378.0,0.977954,0.176032,0.112725,15192.0,2614.0,1662.0,9.0,-134.0,43.0
2867.0,2785.0,2853.0,3103.0,3003.0,0.724121,-0.039856,-0.665955,-0.174744,-1.0,-6.0,2.0,7654.0,1354.0,900.0,-360.0,-79.0,0.0,-42.0,-1.0,-366.0,0.978393,0.175022,0.109803,15348.0,2762.0,1590.0,-3.0,-132.0,47.0
2865.0,2779.0,2853.0,3099.0,3005.0,0.723694,-0.040222,-0.666443,-0.174622,-1.0,-6.0,2.0,7671.0,1370.0,872.0,-346.0,-59.0,-16.0,-20.0,9.0,-350.0,0.978649,0.174534,0.108462,15460.0,2870.0,1592.0,-18.0,-119.0,49.0
2867.0,2779.0,2851.0,3099.0,3003.0,0.723022,-0.040771,-0.667236,-0.174438,-1.0,-4.0,1.0,7683.0,1370.0,786.0,-337.0,-53.0,-85.0,48.0,-7.0,-348.0,0.979078,0.173826,0.106324,15336.0,2582.0,1252.0,-9.0,-83.0,25.0
2869.0,2783.0,2854.0,3103.0,3005.0,0.722717,-0.040894,-0.667603,-0.174255,0.0,-4.0,0.0,7677.0,1359.0,743.0,-344.0,-62.0,-119.0,77.0,-24.0,-360.0,0.979228,0.173558,0.10532,15348.0,2716.0,1298.0,21.0,-70.0,18.0
2870.0,2783.0,2854.0,3099.0,2999.0,0.722229,-0.040894,-0.668213,-0.173889,1.0,-3.0,1.0,7658.0,1412.0,705.0,-365.0,-7.0,-144.0,117.0,23.0,-373.0,0.979427,0.173321,0.103671,15186.0,3006.0,1204.0,24.0,-56.0,24.0
2865.0,2783.0,2853.0,3099.0,2999.0,0.721985,-0.040955,-0.668457,-0.173767,-1.0,-3.0,1.0,7646.0,1449.0,698.0,-377.0,30.0,-145.0,129.0,59.0,-378.0,0.979465,0.173174,0.102945,15282.0,3104.0,1406.0,-2.0,-61.0,33.0
2869.0,2779.0,2850.0,3099.0,3003.0,0.721558,-0.041565,-0.668884,-0.173828,-3.0,-3.0,2.0,7656.0,1475.0,692.0,-369.0,61.0,-141.0,136.0,87.0,-365.0,0.979727,0.172559,0.101728,15380.0,2926.0,1336.0,-61.0,-55.0,47.0
2865.0,2783.0,2851.0,3119.0,3007.0,0.721375,-0.041992,-0.669067,-0.173889,-4.0,-2.0,2.0,7680.0,1469.0,702.0,-347.0,59.0,-127.0,123.0,85.0,-342.0,0.9799,0.172103,0.101204,15528.0,2864.0,1454.0,-74.0,-43.0,50.0
2866.0,2783.0,2853.0,3103.0,3006.0,0.721252,-0.042969,-0.669067,-0.17395,-3.0,-1.0,2.0,7718.0,1416.0,715.0,-310.0,16.0,-112.0,97.0,41.0,-312.0,0.980082,0.170786,0.100966,15532.0,2716.0,1518.0,-60.0,-4.0,56.0
2865.0,2783.0,2850.0,3102.0,3003.0,0.721313,-0.043274,-0.669006,-0.17395,-2.0,0.0,2.0,7732.0,1395.0,730.0,-297.0,0.0,-98.0,79.0,28.0,-301.0,0.980182,0.170319,0.10111,15550.0,2668.0,1502.0,-37.0,17.0,51.0
2869.0,2783.0,2857.0,3102.0,3007.0,0.721558,-0.043396,-0.668823,-0.173706,1.0,1.0,0.0,7700.0,1384.0,730.0,-330.0,-6.0,-102.0,80.0,27.0,-334.0,0.980265,0.169732,0.101611,15298.0,2794.0,1462.0,33.0,33.0,10.0
2866.0,2783.0,2855.0,3103.0,3005.0,0.721619,-0.043091,-0.668762,-0.173523,2.0,1.0,-1.0,7682.0,1396.0,728.0,-347.0,4.0,-105.0,85.0,39.0,-350.0,0.980137,0.169901,0.101744,15276.0,2898.0,1450.0,57.0,30.0,-11.0
2870.0,2783.0,2853.0,3103.0,3005.0,0.721741,-0.042419,-0.668762,-0.173279,2.0,0.0,0.0,7657.0,1448.0,748.0,-371.0,50.0,-86.0,80.0,93.0,-363.0,0.980047,0.170533,0.101893,15238.0,3088.0,1554.0,47.0,13.0,0.0
2867.0,2783.0,2853.0,3095.0,3005.0,0.721802,-0.042297,-0.668762,-0.173218,0.0,-1.0,1.0,7662.0,1474.0,781.0,-366.0,76.0,-54.0,57.0,126.0,-351.0,0.980081,0.170622,0.10197,15420.0,3072.0,1788.0,20.0,-1.0,26.0
2865.0,2778.0,2851.0,3102.0,3007.0,0.721924,-0.042725,-0.668701,-0.172913,-1.0,0.0,3.0,7717.0,1439.0,844.0,-313.0,49.0,7.0,-6.0,108.0,-297.0,0.980278,0.169566,0.102086,15544.0,2654.0,1814.0,-17.0,3.0,71.0
2865.0,2785.0,2863.0,3103.0,3007.0,0.722046,-0.04303,-0.668579,-0.172668,-1.0,0.0,3.0,7729.0,1400.0,855.0,-302.0,17.0,16.0,-24.0,78.0,-291.0,0.980349,0.168746,0.102315,15520.0,2580.0,1758.0,-12.0,4.0,83.0
2867.0,2786.0,2855.0,3101.0,3006.0,0.722168,-0.043579,-0.668579,-0.172119,0.0,-1.0,2.0,7714.0,1361.0,833.0,-319.0,-8.0,-4.0,-13.0,52.0,-314.0,0.980654,0.167208,0.102254,15386.0,2610.0,1622.0,10.0,-12.0,63.0
2867.0,2782.0,2853.0,3103.0,3003.0,0.722168,-0.043701,-0.66864,-0.171814,1.0,-1.0,1.0,7713.0,1339.0,833.0,-321.0,-26.0,-3.0,-20.0,35.0,-319.0,0.980758,0.166644,0.102057,15464.0,2528.0,1676.0,26.0,-20.0,41.0
2867.0,2782.0,2853.0,3099.0,3007.0,0.722107,-0.04364,-0.668823,-0.171265,2.0,-1.0,1.0,7734.0,1297.0,838.0,-301.0,-63.0,6.0,-39.0,0.0,-305.0,0.980872,0.166066,0.101541,15534.0,2540.0,1688.0,50.0,-20.0,24.0
2867.0,2782.0,2850.0,3102.0,3007.0,0.722046,-0.043518,-0.668945,-0.171021,2.0,-1.0,0.0,7727.0,1296.0,829.0,-308.0,-63.0,0.0,-33.0,0.0,-312.0,0.980903,0.165963,0.101217,15398.0,2610.0,1588.0,49.0,-18.0,20.0
2867.0,2783.0,2851.0,3103.0,2974.0,0.722046,-0.043396,-0.669067,-0.170654,0.0,-1.0,0.0,7737.0,1339.0,843.0,-299.0,-18.0,16.0,-34.0,44.0,-294.0,0.981006,0.165691,0.100939,15500.0,2800.0,1764.0,18.0,-8.0,12.0
2867.0,2781.0,2854.0,3103.0,3003.0,0.722046,-0.043396,-0.669067,-0.170654,-1.0,-1.0,0.0,7732.0,1357.0,854.0,-304.0,0.0,27.0,-39.0,65.0,-295.0,0.981006,0.165691,0.100939,15410.0,2806.0,1742.0,0.0,-2.0,11.0
2867.0,2781.0,2855.0,3103.0,3005.0,0.722046,-0.043579,-0.669006,-0.170654,-1.0,-1.0,1.0,7714.0,1352.0,859.0,-322.0,-3.0,31.0,-45.0,66.0,-313.0,0.980981,0.165405,0.101005,15376.0,2620.0,1764.0,-18.0,-11.0,28.0
2865.0,2781.0,2853.0,3103.0,3007.0,0.722046,-0.043762,-0.669006,-0.170593,-1.0,-1.0,1.0,7716.0,1347.0,868.0,-320.0,-5.0,40.0,-54.0,67.0,-310.0,0.981038,0.165059,0.100968,15474.0,2684.0,1816.0,-16.0,-15.0,39.0
2871.0,2783.0,2853.0,3103.0,3005.0,0.722107,-0.044312,-0.669006,-0.17041,-2.0,-1.0,2.0,7699.0,1343.0,864.0,-339.0,0.0,37.0,-51.0,74.0,-328.0,0.981291,0.164016,0.100945,15248.0,2684.0,1634.0,-30.0,-20.0,50.0
2867.0,2783.0,2855.0,3099.0,3005.0,0.721985,-0.044617,-0.669128,-0.17041,-2.0,-2.0,1.0,7666.0,1338.0,824.0,-373.0,-2.0,0.0,-17.0,67.0,-366.0,0.981407,0.163627,0.100578,15136.0,2628.0,1442.0,-31.0,-37.0,39.0
2866.0,2779.0,2853.0,3101.0,3013.0,0.721619,-0.044861,-0.669556,-0.170288,0.0,-3.0,0.0,7648.0,1293.0,761.0,-393.0,-44.0,-53.0,19.0,16.0,-398.0,0.981606,0.16329,0.099414,15364.0,2462.0,1332.0,15.0,-57.0,3.0
2865.0,2783.0,2855.0,3047.0,3003.0,0.721375,-0.044739,-0.6698,-0.170105,1.0,-3.0,0.0,7673.0,1292.0,750.0,-368.0,-45.0,-58.0,24.0,9.0,-374.0,0.981574,0.163326,0.098684,15538.0,2590.0,1454.0,41.0,-46.0,0.0
2867.0,2781.0,2855.0,3099.0,3003.0,0.721252,-0.044312,-0.670105,-0.169739,2.0,-1.0,0.0,7719.0,1336.0,743.0,-322.0,-3.0,-59.0,40.0,39.0,-322.0,0.981672,0.163566,0.098012,15514.0,2814.0,1442.0,62.0,-2.0,0.0
2869.0,2780.0,2854.0,3103.0,3002.0,0.721313,-0.044067,-0.670105,-0.169556,2.0,0.0,0.0,7731.0,1359.0,746.0,-310.0,18.0,-57.0,45.0,57.0,-306.0,0.981655,0.163667,0.09806,15520.0,2838.0,1530.0,58.0,10.0,6.0
87158.0,2.0,-1.0,-1.0,7865.0,123.0,151.0,-324.0,-15.0,-43.0,32.0,-17.0,-325.0,0.999639,0.016921,0.023738,15828.0,210.0,278.0,62.0,-4.0,-12.0,,,,,,,,
2869.0,2783.0,2855.0,3099.0,3003.0,0.710144,-0.073059,-0.694824,-0.086914,3.0,0.0,-1.0,7876.0,136.0,152.0,-312.0,-3.0,-42.0,34.0,-5.0,-312.0,0.99955,0.017015,0.02374,15786.0,394.0,320.0,79.0,5.0,-15.0
2871.0,2783.0,2855.0,3099.0,3007.0,0.710266,-0.072388,-0.694824,-0.086548,2.0,0.0,0.0,7880.0,229.0,170.0,-308.0,86.0,-26.0,38.0,84.0,-306.0,0.99955,0.017442,0.023948,15806.0,800.0,468.0,47.0,13.0,3.0
2869.0,2785.0,2853.0,3103.0,3005.0,0.710327,-0.072266,-0.694763,-0.086548,0.0,0.0,0.0,7898.0,259.0,182.0,-290.0,114.0,-15.0,34.0,114.0,-288.0,0.999527,0.017596,0.024137,15882.0,630.0,420.0,17.0,19.0,16.0
2867.0,2783.0,2851.0,3095.0,3003.0,0.710449,-0.072327,-0.694641,-0.086304,0.0,0.0,1.0,7881.0,227.0,148.0,-306.0,86.0,-52.0,63.0,79.0,-305.0,0.999499,0.017131,0.024429,15676.0,292.0,198.0,13.0,19.0,34.0
2877.0,2783.0,2853.0,3103.0,3003.0,0.71051,-0.072327,-0.694641,-0.086121,1.0,0.0,1.0,7872.0,203.0,125.0,-316.0,64.0,-75.0,81.0,52.0,-316.0,0.999557,0.016868,0.024484,15696.0,252.0,152.0,34.0,19.0,29.0
2867.0,2783.0,2851.0,3095.0,3007.0,0.710632,-0.07196,-0.694641,-0.085571,3.0,1.0,0.0,7848.0,193.0,81.0,-340.0,56.0,-120.0,122.0,35.0,-341.0,0.999584,0.016608,0.024616,15620.0,420.0,82.0,77.0,24.0,9.0
2869.0,2782.0,2855.0,3103.0,3055.0,0.710754,-0.071594,-0.69458,-0.085266,3.0,1.0,0.0,7844.0,193.0,72.0,-344.0,56.0,-131.0,133.0,33.0,-346.0,0.999561,0.016676,0.024875,15674.0,368.0,76.0,91.0,28.0,3.0
2867.0,2783.0,2849.0,3103.0,3007.0,0.710876,-0.071228,-0.69458,-0.0849,4.0,1.0,0.0,7846.0,192.0,64.0,-342.0,55.0,-141.0,142.0,30.0,-344.0,0.999616,0.016671,0.025038,15716.0,400.0,100.0,102.0,40.0,3.0
2869.0,2785.0,2858.0,3103.0,3007.0,0.711243,-0.070312,-0.694336,-0.084106,4.0,2.0,0.0,7843.0,213.0,70.0,-344.0,75.0,-142.0,147.0,49.0,-346.0,0.99951,0.016778,0.025894,15672.0,482.0,236.0,113.0,66.0,12.0
2867.0,2783.0,2855.0,3103.0,3001.0,0.711548,-0.069885,-0.694153,-0.083679,4.0,3.0,1.0,7843.0,234.0,86.0,-345.0,97.0,-131.0,141.0,74.0,-346.0,0.999542,0.016719,0.02657,15678.0,632.0,298.0,102.0,78.0,25.0
2867.0,2783.0,2859.0,3103.0,3003.0,0.712219,-0.069458,-0.693604,-0.083069,2.0,3.0,2.0,7832.0,257.0,126.0,-356.0,123.0,-105.0,120.0,105.0,-356.0,0.999535,0.016295,0.028246,15602.0,452.0,330.0,49.0,79.0,46.0
2867.0,2785.0,2855.0,3099.0,3005.0,0.712463,-0.069458,-0.693298,-0.082764,1.0,3.0,2.0,7819.0,228.0,138.0,-368.0,98.0,-99.0,108.0,82.0,-369.0,0.999397,0.015787,0.028967,15574.0,238.0,320.0,40.0,72.0,47.0
2869.0,2781.0,2850.0,3099.0,3007.0,0.712952,-0.069214,-0.692932,-0.082031,4.0,2.0,0.0,7817.0,140.0,128.0,-370.0,17.0,-118.0,109.0,0.0,-373.0,0.99941,0.014992,0.030084,15718.0,40.0,214.0,93.0,58.0,20.0
2871.0,2786.0,2852.0,3103.0,3007.0,0.713196,-0.068726,-0.69281,-0.081543,6.0,2.0,-1.0,7842.0,106.0,135.0,-345.0,-16.0,-115.0,99.0,-32.0,-348.0,0.999427,0.014958,0.030589,15854.0,48.0,364.0,140.0,66.0,-4.0
2867.0,2781.0,2853.0,3107.0,3003.0,0.713989,-0.067261,-0.692261,-0.080383,7.0,4.0,-1.0,7924.0,136.0,205.0,-262.0,11.0,-61.0,54.0,3.0,-263.0,0.999347,0.015246,0.032493,16052.0,546.0,716.0,176.0,111.0,-12.0
2870.0,2785.0,2853.0,3102.0,3003.0,0.714539,-0.066528,-0.691833,-0.079956,6.0,5.0,-1.0,7942.0,204.0,264.0,-244.0,76.0,-13.0,21.0,77.0,-243.0,0.999322,0.015558,0.033899,15964.0,822.0,894.0,142.0,122.0,-1.0
2871.0,2783.0,2855.0,3103.0,3003.0,0.715515,-0.065796,-0.690979,-0.079529,1.0,4.0,1.0,7911.0,269.0,351.0,-275.0,139.0,51.0,-30.0,152.0,-270.0,0.999277,0.01575,0.036506,15726.0,554.0,898.0,43.0,94.0,33.0
2869.0,2779.0,2853.0,3095.0,3007.0,0.715881,-0.065735,-0.690613,-0.079285,1.0,3.0,2.0,7909.0,246.0,383.0,-276.0,119.0,75.0,-58.0,138.0,-271.0,0.999217,0.015393,0.037505,15860.0,326.0,948.0,34.0,72.0,51.0
2870.0,2783.0,2855.0,3110.0,3003.0,0.716553,-0.065735,-0.690002,-0.078491,2.0,2.0,3.0,7960.0,196.0,461.0,-225.0,80.0,140.0,-128.0,111.0,-218.0,0.999165,0.014113,0.039184,16100.0,294.0,1154.0,67.0,60.0,71.0
2870.0,2779.0,2851.0,3103.0,2992.0,0.716919,-0.065674,-0.689697,-0.077942,3.0,2.0,3.0,7971.0,185.0,497.0,-214.0,75.0,168.0,-157.0,111.0,-206.0,0.999152,0.013347,0.040052,15968.0,330.0,1216.0,79.0,57.0,76.0
2897.0,2783.0,2852.0,3103.0,3007.0,0.717468,-0.065613,-0.689209,-0.076904,2.0,1.0,3.0,7967.0,164.0,550.0,-217.0,66.0,211.0,-201.0,111.0,-207.0,0.999063,0.011856,0.041361,15892.0,236.0,1218.0,67.0,25.0,74.0
2865.0,2786.0,2857.0,3095.0,2999.0,0.717651,-0.065613,-0.689087,-0.076416,2.0,0.0,2.0,7961.0,126.0,551.0,-223.0,34.0,209.0,-206.0,79.0,-213.0,0.999076,0.01114,0.041717,15914.0,-4.0,1074.0,66.0,5.0,67.0
2874.0,2785.0,2853.0,3103.0,3007.0,0.717773,-0.065491,-0.689087,-0.075378,3.0,-1.0,2.0,7957.0,51.0,502.0,-227.0,-29.0,159.0,-170.0,7.0,-220.0,0.99909,0.00987,0.041751,15946.0,-72.0,892.0,89.0,-22.0,47.0
2870.0,2778.0,2851.0,3099.0,3003.0,0.717773,-0.065308,-0.689148,-0.074829,4.0,-2.0,1.0,7966.0,45.0,494.0,-218.0,-31.0,153.0,-164.0,3.0,-211.0,0.999078,0.009384,0.041608,16030.0,98.0,950.0,92.0,-24.0,43.0
2871.0,2783.0,2855.0,3103.0,3005.0,0.717773,-0.065063,-0.68927,-0.073975,2.0,-1.0,2.0,7966.0,69.0,473.0,-218.0,-1.0,134.0,-139.0,28.0,-212.0,0.999106,0.008575,0.041345,15864.0,186.0,868.0,50.0,-15.0,47.0
2867.0,2783.0,2859.0,3099.0,3007.0,0.717773,-0.065186,-0.68927,-0.073669,0.0,-1.0,2.0,7944.0,67.0,465.0,-240.0,1.0,126.0,-132.0,29.0,-234.0,0.999084,0.007979,0.041284,15750.0,86.0,906.0,17.0,-19.0,57.0
2865.0,2783.0,2854.0,3103.0,3007.0,0.717712,-0.065735,-0.689392,-0.073181,-1.0,-2.0,2.0,7897.0,16.0,433.0,-288.0,-37.0,98.0,-114.0,-12.0,-284.0,0.999192,0.006544,0.040884,15672.0,-176.0,732.0,-9.0,-37.0,64.0
2883.0,2779.0,2853.0,3109.0,3003.0,0.71759,-0.06604,-0.689514,-0.072876,0.0,-2.0,2.0,7880.0,-15.0,409.0,-305.0,-61.0,77.0,-99.0,-40.0,-301.0,0.999203,0.005719,0.040456,15690.0,-192.0,666.0,3.0,-38.0,57.0
2869.0,2783.0,2854.0,3101.0,3003.0,0.717407,-0.066284,-0.689758,-0.072327,1.0,-2.0,1.0,7863.0,-4.0,373.0,-322.0,-42.0,47.0,-66.0,-28.0,-320.0,0.999263,0.00467,0.039744,15734.0,62.0,670.0,29.0,-35.0,42.0
2870.0,2781.0,2854.0,3103.0,3007.0,0.717285,-0.066345,-0.68988,-0.072021,1.0,-2.0,1.0,7858.0,14.0,365.0,-327.0,-20.0,42.0,-57.0,-7.0,-325.0,0.999238,0.004196,0.039348,15636.0,118.0,670.0,34.0,-30.0,39.0
2871.0,2783.0,2859.0,3107.0,2998.0,0.717163,-0.066467,-0.690063,-0.071472,0.0,-2.0,2.0,7841.0,45.0,348.0,-345.0,17.0,29.0,-38.0,26.0,-343.0,0.999277,0.003305,0.038826,15636.0,196.0,664.0,15.0,-29.0,59.0
2871.0,2781.0,2847.0,3103.0,3007.0,0.717102,-0.066711,-0.690125,-0.071228,-1.0,-2.0,2.0,7833.0,48.0,338.0,-353.0,26.0,21.0,-28.0,33.0,-351.0,0.999283,0.002635,0.038587,15634.0,68.0,662.0,-2.0,-28.0,67.0
2871.0,2783.0,2860.0,3103.0,3007.0,0.716919,-0.067261,-0.690308,-0.07074,0.0,-2.0,2.0,7813.0,-15.0,297.0,-373.0,-25.0,-13.0,-5.0,-23.0,-373.0,0.999305,0.001223,0.037928,15580.0,-254.0,408.0,1.0,-29.0,60.0
2871.0,2783.0,2858.0,3095.0,3003.0,0.716797,-0.067505,-0.69043,-0.070435,0.0,-2.0,2.0,7812.0,-42.0,277.0,-374.0,-45.0,-30.0,6.0,-47.0,-374.0,0.999305,0.000486,0.037509,15638.0,-230.0,490.0,14.0,-26.0,49.0
2876.0,2783.0,2853.0,3102.0,3003.0,0.716675,-0.067627,-0.690613,-0.069885,1.0,-1.0,0.0,7823.0,-51.0,248.0,-363.0,-47.0,-54.0,30.0,-54.0,-364.0,0.999342,-0.000406,0.036987,15694.0,-60.0,466.0,33.0,-9.0,21.0
2867.0,2783.0,2855.0,3102.0,3011.0,0.716675,-0.067505,-0.690613,-0.069702,1.0,-1.0,0.0,7841.0,-51.0,253.0,-345.0,-47.0,-49.0,26.0,-53.0,-346.0,0.9993,-0.000484,0.036978,15788.0,-114.0,526.0,37.0,0.0,11.0
2867.0,2783.0,2851.0,3102.0,3007.0,0.716736,-0.067322,-0.690613,-0.069397,1.0,0.0,0.0,7860.0,-41.0,274.0,-326.0,-35.0,-29.0,9.0,-37.0,-326.0,0.999318,-0.000651,0.037048,15768.0,-70.0,628.0,32.0,8.0,10.0
2866.0,2787.0,2847.0,3103.0,3003.0,0.716797,-0.067322,-0.690552,-0.069214,1.0,0.0,0.0,7872.0,-28.0,286.0,-314.0,-20.0,-18.0,2.0,-21.0,-314.0,0.99929,-0.000921,0.037194,15810.0,44.0,634.0,24.0,5.0,15.0
2867.0,2785.0,2869.0,3103.0,3002.0,0.716797,-0.067322,-0.690552,-0.069031,0.0,-1.0,0.0,7874.0,-26.0,300.0,-311.0,-16.0,-4.0,-10.0,-14.0,-310.0,0.999265,-0.001173,0.037169,15728.0,-102.0,578.0,10.0,-14.0,13.0
2867.0,2785.0,2851.0,3103.0,3003.0,0.716736,-0.067322,-0.690674,-0.068909,0.0,-2.0,0.0,7865.0,-52.0,293.0,-321.0,-41.0,-9.0,-10.0,-40.0,-321.0,0.999339,-0.001317,0.036896,15678.0,-290.0,534.0,20.0,-30.0,7.0
2867.0,2783.0,2855.0,3103.0,3006.0,0.716431,-0.067017,-0.69104,-0.068481,2.0,-3.0,-1.0,7867.0,-88.0,290.0,-319.0,-76.0,-4.0,-21.0,-73.0,-318.0,0.999343,-0.001379,0.035935,15796.0,-218.0,582.0,64.0,-48.0,-18.0
2871.0,2779.0,2855.0,3103.0,3005.0,0.716248,-0.066711,-0.691284,-0.068237,3.0,-3.0,-2.0,7878.0,-93.0,297.0,-308.0,-82.0,7.0,-33.0,-77.0,-307.0,0.999366,-0.001221,0.035343,15826.0,-174.0,644.0,76.0,-49.0,-23.0
2867.0,2781.0,2855.0,3103.0,3007.0,0.716003,-0.065979,-0.69165,-0.067871,2.0,-2.0,-2.0,7889.0,-36.0,307.0,-298.0,-31.0,24.0,-39.0,-24.0,-296.0,0.999404,-0.000596,0.034534,15784.0,210.0,654.0,59.0,-36.0,-23.0
2867.0,2779.0,2861.0,3103.0,3005.0,0.715942,-0.065796,-0.691772,-0.067871,0.0,-2.0,-1.0,7898.0,10.0,324.0,-289.0,12.0,43.0,-49.0,21.0,-287.0,0.99947,-0.000309,0.034302,15886.0,286.0,774.0,20.0,-32.0,-15.0
2867.0,2782.0,2851.0,3101.0,3005.0,0.71582,-0.065918,-0.691833,-0.068115,-3.0,-1.0,0.0,7907.0,60.0,313.0,-280.0,60.0,33.0,-30.0,66.0,-278.0,0.999437,-0.000122,0.03406,15796.0,194.0,530.0,-48.0,-15.0,13.0
2866.0,2782.0,2859.0,3101.0,3005.0,0.715759,-0.066162,-0.691895,-0.068237,-3.0,-1.0,0.0,7903.0,59.0,293.0,-284.0,61.0,15.0,-12.0,64.0,-283.0,0.999489,-0.000286,0.033872,15814.0,88.0,434.0,-58.0,-8.0,21.0
2865.0,2781.0,2847.0,3101.0,2999.0,0.481812,0.003601,0.016724,-1.21228,16456.0,30556.0,-2863.0,23706.0,-17438.0,-2.0,23909.0,-17134.0,-13940.0,15823.0,-6115.0,-23677.0,-0.024846,-0.037077,1.701473,15662.0,202.0,440.0,-29.0,0.0,26.0
2871.0,2783.0,2853.0,3099.0,2997.0,0.715637,-0.066772,-0.691895,-0.06842,-1.0,-1.0,1.0,7871.0,84.0,249.0,-316.0,91.0,-26.0,32.0,86.0,-316.0,0.999428,-0.00089,0.033641,15688.0,284.0,426.0,-5.0,-2.0,25.0
2867.0,2783.0,2847.0,3095.0,2999.0,0.715698,-0.06665,-0.691895,-0.068115,1.0,0.0,1.0,7876.0,128.0,261.0,-311.0,137.0,-15.0,30.0,133.0,-311.0,0.999455,-0.001146,0.033703,15768.0,382.0,596.0,41.0,1.0,30.0
2871.0,2783.0,2851.0,3115.0,3007.0,0.715698,-0.066528,-0.691895,-0.067871,2.0,-1.0,2.0,7873.0,150.0,260.0,-314.0,160.0,-15.0,34.0,155.0,-314.0,0.999406,-0.001309,0.033686,15730.0,420.0,518.0,49.0,-1.0,47.0
2867.0,2782.0,2851.0,3102.0,3007.0,0.715759,-0.066528,-0.691956,-0.067139,2.0,-1.0,3.0,7860.0,162.0,262.0,-327.0,181.0,-13.0,35.0,176.0,-327.0,0.99948,-0.002323,0.03359,15648.0,312.0,516.0,50.0,-4.0,78.0
2871.0,2781.0,2858.0,3102.0,3002.0,0.715759,-0.066589,-0.691956,-0.06665,2.0,-1.0,3.0,7849.0,158.0,260.0,-338.0,183.0,-14.0,36.0,178.0,-338.0,0.999424,-0.003086,0.033517,15634.0,280.0,520.0,49.0,-15.0,87.0
2864.0,2783.0,2851.0,3095.0,3007.0,0.715637,-0.066772,-0.6922,-0.065735,2.0,-2.0,3.0,7853.0,106.0,251.0,-334.0,143.0,-18.0,33.0,137.0,-335.0,0.999506,-0.004566,0.032859,15792.0,-94.0,450.0,47.0,-33.0,83.0
2871.0,2783.0,2855.0,3099.0,3007.0,0.715515,-0.066895,-0.692322,-0.065186,2.0,-2.0,3.0,7868.0,56.0,236.0,-319.0,100.0,-29.0,36.0,93.0,-320.0,0.999455,-0.005469,0.032427,15834.0,-184.0,378.0,66.0,-33.0,83.0
2875.0,2783.0,2855.0,3103.0,3003.0,0.715454,-0.066895,-0.692505,-0.063843,4.0,-1.0,3.0,7927.0,-19.0,263.0,-260.0,40.0,1.0,-2.0,39.0,-260.0,0.999452,-0.007297,0.031913,16022.0,-260.0,680.0,103.0,-13.0,90.0
2867.0,2775.0,2850.0,3103.0,3007.0,0.715576,-0.066895,-0.692444,-0.062927,5.0,-1.0,5.0,7935.0,-78.0,287.0,-252.0,-7.0,24.0,-33.0,-3.0,-251.0,0.999412,-0.008589,0.032056,15848.0,-472.0,718.0,115.0,-1.0,118.0
2870.0,2787.0,2851.0,3103.0,3007.0,0.715759,-0.067322,-0.692444,-0.060852,4.0,-2.0,8.0,7876.0,-119.0,324.0,-311.0,-19.0,61.0,-73.0,-9.0,-308.0,0.99944,-0.012099,0.032004,15562.0,-320.0,740.0,95.0,-28.0,184.0
2870.0,2783.0,2854.0,3095.0,3007.0,0.715698,-0.06781,-0.692505,-0.059753,3.0,-3.0,8.0,7848.0,-134.0,339.0,-338.0,-16.0,79.0,-91.0,-4.0,-335.0,0.999353,-0.014304,0.031633,15554.0,-374.0,754.0,72.0,-53.0,196.0
2870.0,2781.0,2851.0,3103.0,3007.0,0.715454,-0.06897,-0.69281,-0.057861,1.0,-4.0,7.0,7870.0,-185.0,380.0,-316.0,-33.0,130.0,-144.0,-13.0,-311.0,0.999329,-0.018516,0.03048,15790.0,-588.0,712.0,36.0,-72.0,183.0
2869.0,2782.0,2859.0,3103.0,3007.0,0.715332,-0.06958,-0.692993,-0.057007,0.0,-4.0,7.0,7863.0,-228.0,361.0,-323.0,-59.0,116.0,-135.0,-42.0,-318.0,0.999373,-0.020535,0.029869,15718.0,-658.0,658.0,21.0,-72.0,170.0
2871.0,2783.0,2855.0,3103.0,3003.0,0.714905,-0.070679,-0.693359,-0.055847,-1.0,-4.0,5.0,7870.0,-263.0,349.0,-315.0,-69.0,115.0,-135.0,-53.0,-309.0,0.999266,-0.023613,0.028465,15750.0,-684.0,548.0,-8.0,-76.0,119.0
2871.0,2783.0,2853.0,3095.0,3003.0,0.714661,-0.071228,-0.693604,-0.05542,-1.0,-4.0,4.0,7863.0,-293.0,337.0,-323.0,-88.0,110.0,-134.0,-73.0,-317.0,0.999277,-0.024929,0.027652,15698.0,-760.0,618.0,-20.0,-80.0,101.0
2866.0,2778.0,2851.0,3103.0,3007.0,0.714172,-0.072205,-0.694092,-0.054871,-2.0,-4.0,3.0,7860.0,-318.0,296.0,-326.0,-97.0,82.0,-107.0,-87.0,-321.0,0.999326,-0.026963,0.026076,15670.0,-698.0,462.0,-31.0,-79.0,69.0
2879.0,2783.0,2851.0,3103.0,3005.0,0.713867,-0.072571,-0.694336,-0.054688,-2.0,-4.0,2.0,7869.0,-329.0,281.0,-316.0,-102.0,74.0,-100.0,-94.0,-311.0,0.999265,-0.027669,0.025228,15870.0,-756.0,470.0,-37.0,-79.0,51.0
2870.0,2781.0,2858.0,3103.0,3007.0,0.713318,-0.073364,-0.694824,-0.054443,-2.0,-3.0,1.0,7860.0,-331.0,203.0,-325.0,-93.0,9.0,-34.0,-97.0,-321.0,0.999249,-0.029007,0.023623,15690.0,-556.0,200.0,-41.0,-66.0,45.0
2865.0,2783.0,2851.0,3099.0,3007.0,0.713074,-0.073792,-0.695068,-0.054443,-3.0,-3.0,2.0,7860.0,-327.0,173.0,-326.0,-84.0,-14.0,-10.0,-93.0,-323.0,0.999305,-0.029554,0.022873,15722.0,-690.0,186.0,-58.0,-65.0,46.0
2867.0,2783.0,2847.0,3101.0,3007.0,0.712524,-0.074951,-0.695496,-0.054443,-5.0,-3.0,3.0,7849.0,-403.0,152.0,-337.0,-148.0,-22.0,-14.0,-158.0,-332.0,0.999276,-0.031079,0.021323,15654.0,-1172.0,282.0,-95.0,-61.0,69.0
2867.0,2787.0,2861.0,3101.0,3007.0,0.71228,-0.075867,-0.695618,-0.054382,-6.0,-3.0,4.0,7848.0,-480.0,159.0,-337.0,-214.0,-10.0,-38.0,-221.0,-329.0,0.999201,-0.032418,0.020661,15708.0,-1422.0,386.0,-125.0,-58.0,96.0
2870.0,2783.0,2854.0,3103.0,3007.0,0.711914,-0.078735,-0.69574,-0.05426,-11.0,-2.0,7.0,7854.0,-718.0,205.0,-331.0,-418.0,45.0,-130.0,-412.0,-314.0,0.999158,-0.036604,0.019513,15750.0,-2370.0,708.0,-235.0,-42.0,171.0
2867.0,2781.0,2854.0,3103.0,3007.0,0.711853,-0.080994,-0.695557,-0.05426,-15.0,-2.0,9.0,7863.0,-905.0,253.0,-321.0,-578.0,94.0,-210.0,-560.0,-295.0,0.999058,-0.039829,0.01932,15812.0,-3022.0,822.0,-321.0,-31.0,224.0
2866.0,2781.0,2849.0,3103.0,3006.0,0.711975,-0.087708,-0.69458,-0.054321,-24.0,1.0,15.0,7908.0,-1445.0,444.0,-272.0,-1040.0,282.0,-491.0,-973.0,-214.0,0.998576,-0.04943,0.019725,15952.0,-4674.0,1558.0,-547.0,34.0,363.0
2871.0,2787.0,2859.0,3103.0,3006.0,0.71228,-0.092285,-0.693665,-0.054626,-31.0,3.0,17.0,7872.0,-1726.0,531.0,-305.0,-1269.0,361.0,-623.0,-1180.0,-226.0,0.99825,-0.055681,0.02064,15418.0,-5106.0,1460.0,-699.0,71.0,407.0
2911.0,2783.0,2855.0,3103.0,3005.0,0.712585,-0.102356,-0.691711,-0.057922,-44.0,4.0,1.0,7589.0,-2387.0,428.0,-583.0,-1848.0,246.0,-675.0,-1775.0,-454.0,0.997664,-0.065744,0.022192,14040.0,-7162.0,62.0,-1002.0,105.0,45.0
2865.0,2779.0,2847.0,3095.0,3007.0,0.712219,-0.106445,-0.69104,-0.061829,-47.0,4.0,-17.0,7347.0,-2864.0,222.0,-824.0,-2321.0,40.0,-615.0,-2289.0,-667.0,0.997507,-0.066173,0.022212,13216.0,-8732.0,-852.0,-1072.0,93.0,-388.0
2874.0,2787.0,2854.0,3103.0,3003.0,0.710571,-0.109131,-0.691162,-0.074402,-40.0,2.0,-66.0,6809.0,-3834.0,-281.0,-1370.0,-3406.0,-451.0,-484.0,-3465.0,-1199.0,0.998479,-0.052243,0.020833,11998.0,-10100.0,-2100.0,-909.0,51.0,-1496.0
2870.0,2782.0,2851.0,3099.0,3005.0,0.70752,-0.10144,-0.693176,-0.092896,-25.0,0.0,-114.0,6348.0,-4363.0,-714.0,-1841.0,-4242.0,-864.0,-363.0,-4333.0,-1793.0,0.999718,-0.014756,0.01843,11482.0,-9526.0,-2486.0,-554.0,17.0,-2609.0
2869.0,2779.0,2847.0,3099.0,3007.0,0.703186,-0.083435,-0.69635,-0.116943,-14.0,0.0,-156.0,5988.0,-4016.0,-974.0,-2194.0,-4388.0,-1107.0,-175.0,-4411.0,-2409.0,0.998842,0.045526,0.016281,11134.0,-5898.0,-2462.0,-303.0,18.0,-3563.0
2871.0,2787.0,2855.0,3101.0,3005.0,0.700439,-0.070984,-0.697876,-0.131592,-13.0,3.0,-176.0,5967.0,-3437.0,-932.0,-2194.0,-4127.0,-1061.0,-133.0,-4055.0,-2550.0,0.996322,0.08423,0.015862,12076.0,-2980.0,-1316.0,-284.0,75.0,-4012.0
2865.0,2783.0,2850.0,3101.0,3006.0,0.69519,-0.040588,-0.697876,-0.16748,-22.0,19.0,-209.0,6266.0,-1503.0,-418.0,-1794.0,-2955.0,-603.0,-224.0,-2638.0,-2302.0,0.983909,0.177328,0.022661,13500.0,3820.0,920.0,-494.0,450.0,-4765.0
2866.0,2782.0,2849.0,3103.0,3007.0,0.690247,-0.006348,-0.691895,-0.211609,-41.0,38.0,-225.0,6567.0,1001.0,279.0,-1279.0,-1326.0,-68.0,-274.0,-865.0,-1604.0,0.957842,0.284059,0.04246,13796.0,9472.0,2778.0,-924.0,872.0,-5153.0
2867.0,2781.0,2851.0,3103.0,3007.0,0.687866,0.010986,-0.686584,-0.235229,-46.0,45.0,-225.0,6579.0,2122.0,600.0,-1116.0,-647.0,133.0,-266.0,-156.0,-1259.0,0.939388,0.338124,0.056974,12956.0,10716.0,2978.0,-1034.0,1044.0,-5149.0
2871.0,2781.0,2851.0,3099.0,3003.0,0.682678,0.04541,-0.673462,-0.280029,-36.0,51.0,-211.0,6191.0,3979.0,1063.0,-1133.0,381.0,335.0,-121.0,927.0,-815.0,0.894083,0.439179,0.088853,10698.0,13034.0,3546.0,-809.0,1173.0,-4824.0
2871.0,2783.0,2851.0,3099.0,3007.0,0.679749,0.062805,-0.666443,-0.299866,-24.0,50.0,-200.0,5806.0,4818.0,1285.0,-1307.0,844.0,433.0,-46.0,1463.0,-680.0,0.868361,0.48507,0.103887,9110.0,14680.0,3872.0,-541.0,1163.0,-4562.0
2865.0,2779.0,2847.0,3102.0,3007.0,0.672668,0.096741,-0.653564,-0.333252,-3.0,39.0,-166.0,4935.0,6686.0,1768.0,-1739.0,2051.0,727.0,106.0,2778.0,-164.0,0.814786,0.565752,0.127034,7282.0,19434.0,5088.0,-64.0,914.0,-3789.0
2871.0,2787.0,2858.0,3107.0,3007.0,0.66449,0.125977,-0.643311,-0.358765,2.0,23.0,-121.0,4201.0,8878.0,2221.0,-2062.0,3725.0,1069.0,337.0,4279.0,916.0,0.764555,0.629014,0.14054,6552.0,24364.0,5758.0,63.0,528.0,-2769.0
2855.0,2783.0,2859.0,3099.0,3005.0,0.660461,0.137207,-0.639465,-0.368835,0.0,13.0,-95.0,3948.0,9888.0,2383.0,-2142.0,4538.0,1199.0,473.0,4900.0,1543.0,0.743471,0.652955,0.144507,6502.0,25552.0,5604.0,10.0,302.0,-2161.0
2873.0,2785.0,2855.0,3103.0,3007.0,0.653809,0.150391,-0.63562,-0.382019,-2.0,-8.0,-30.0,3752.0,11086.0,2350.0,-2115.0,5496.0,1147.0,820.0,5435.0,2403.0,0.716244,0.682291,0.146774,7478.0,24464.0,4128.0,-23.0,-182.0,-681.0
2865.0,2788.0,2854.0,3103.0,3007.0,0.65155,0.152222,-0.636292,-0.384033,3.0,-18.0,5.0,3843.0,11253.0,2183.0,-1991.0,5624.0,1003.0,984.0,5377.0,2590.0,0.712235,0.687074,0.143961,8440.0,23154.0,3230.0,86.0,-395.0,126.0
2866.0,2789.0,2853.0,3103.0,3010.0,0.649841,0.148132,-0.642334,-0.378357,16.0,-29.0,68.0,4349.0,11216.0,1735.0,-1571.0,5657.0,662.0,1253.0,5054.0,2790.0,0.722737,0.678588,0.130912,10648.0,21982.0,2124.0,374.0,-643.0,1566.0
2865.0,2783.0,2847.0,3099.0,3019.0,0.650391,0.143066,-0.646912,-0.371643,19.0,-30.0,92.0,4718.0,11075.0,1506.0,-1304.0,5611.0,505.0,1342.0,4852.0,2845.0,0.735151,0.666939,0.122164,11708.0,21148.0,1576.0,442.0,-668.0,2109.0
2869.0,2783.0,2851.0,3095.0,2999.0,0.654358,0.12793,-0.656494,-0.352844,18.0,-25.0,128.0,5542.0,10468.0,1229.0,-756.0,5301.0,366.0,1293.0,4392.0,2800.0,0.768886,0.630704,0.105333,13520.0,18756.0,1898.0,427.0,-563.0,2934.0
2870.0,2783.0,2851.0,3103.0,3007.0,0.657776,0.118164,-0.660889,-0.341431,16.0,-21.0,142.0,5889.0,10030.0,1178.0,-572.0,5059.0,371.0,1190.0,4194.0,2654.0,0.788744,0.606746,0.098507,13702.0,17258.0,2048.0,372.0,-474.0,3261.0
2870.0,2781.0,2847.0,3099.0,3007.0,0.666626,0.095093,-0.668701,-0.315369,14.0,-17.0,168.0,6220.0,8883.0,1102.0,-592.0,4389.0,384.0,977.0,3874.0,1948.0,0.831569,0.548557,0.087644,12860.0,13896.0,1964.0,325.0,-377.0,3857.0
2864.0,2777.0,2847.0,3091.0,2999.0,0.676147,0.067566,-0.676453,-0.283936,18.0,-23.0,194.0,6157.0,7492.0,996.0,-1022.0,3596.0,376.0,771.0,3579.0,842.0,0.876395,0.475507,0.075641,12048.0,10944.0,1846.0,430.0,-510.0,4459.0
2871.0,2783.0,2851.0,3099.0,2997.0,0.680603,0.052246,-0.680603,-0.266235,21.0,-27.0,205.0,6077.0,6826.0,954.0,-1284.0,3274.0,395.0,664.0,3463.0,292.0,0.898621,0.433519,0.068152,11602.0,9612.0,1590.0,486.0,-610.0,4707.0
2870.0,2783.0,2855.0,3095.0,2997.0,0.687927,0.019531,-0.688904,-0.227783,25.0,-34.0,217.0,6058.0,5361.0,877.0,-1633.0,2569.0,466.0,376.0,2990.0,-634.0,0.938934,0.340714,0.050159,12264.0,6016.0,1520.0,579.0,-763.0,4988.0
2869.0,2787.0,2854.0,3103.0,3006.0,0.690918,0.002625,-0.692566,-0.207275,27.0,-34.0,219.0,6109.0,4539.0,821.0,-1721.0,2157.0,487.0,221.0,2608.0,-998.0,0.955925,0.29073,0.040676,12600.0,4052.0,1322.0,635.0,-772.0,5029.0
2871.0,2767.0,2859.0,3071.0,3007.0,0.695923,-0.030334,-0.698242,-0.165039,34.0,-30.0,213.0,6229.0,2901.0,751.0,-1814.0,1358.0,561.0,-116.0,1774.0,-1512.0,0.981858,0.188254,0.023084,12512.0,822.0,1146.0,798.0,-667.0,4884.0
2871.0,2783.0,2851.0,3102.0,3007.0,0.697876,-0.045593,-0.700195,-0.143738,38.0,-27.0,205.0,6155.0,2055.0,660.0,-1958.0,927.0,534.0,-226.0,1294.0,-1803.0,0.990406,0.137652,0.015339,11676.0,-974.0,676.0,892.0,-615.0,4708.0
2867.0,2783.0,2859.0,3095.0,2999.0,0.700073,-0.073486,-0.703003,-0.101562,46.0,-28.0,187.0,5834.0,237.0,389.0,-2351.0,-89.0,382.0,-370.0,99.0,-2352.0,0.999234,0.039906,0.000804,10570.0,-5384.0,-116.0,1064.0,-622.0,4296.0
2869.0,2785.0,2855.0,3107.0,3003.0,0.700195,-0.086365,-0.704163,-0.080444,48.0,-30.0,180.0,5666.0,-804.0,257.0,-2525.0,-741.0,310.0,-463.0,-670.0,-2521.0,0.999998,-0.007653,-0.006559,10396.0,-7942.0,-196.0,1119.0,-677.0,4143.0
2867.0,2782.0,2861.0,3095.0,3005.0,0.698547,-0.111389,-0.705811,-0.038269,49.0,-34.0,171.0,5403.0,-2764.0,91.0,-2744.0,-1931.0,264.0,-666.0,-2106.0,-2538.0,0.99461,-0.1016,-0.021143,10000.0,-11006.0,-300.0,1125.0,-777.0,3921.0
2871.0,2785.0,2855.0,3101.0,3007.0,0.694641,-0.134766,-0.706665,0.001343,42.0,-36.0,151.0,5214.0,-4259.0,-89.0,-2825.0,-2709.0,197.0,-708.0,-3117.0,-2266.0,0.981395,-0.189125,-0.035009,10052.0,-12298.0,-758.0,969.0,-810.0,3467.0
2871.0,2781.0,2850.0,3103.0,3005.0,0.692017,-0.145203,-0.706848,0.018555,34.0,-34.0,133.0,5172.0,-4766.0,-169.0,-2798.0,-2904.0,170.0,-688.0,-3395.0,-2069.0,0.972913,-0.227196,-0.041487,10110.0,-12328.0,-820.0,792.0,-774.0,3059.0
2870.0,2783.0,2855.0,3103.0,2999.0,0.686584,-0.161926,-0.707397,0.043823,14.0,-27.0,79.0,5096.0,-5497.0,-453.0,-2745.0,-3167.0,-16.0,-506.0,-3785.0,-1726.0,0.957184,-0.284353,-0.053313,9964.0,-13044.0,-1998.0,324.0,-617.0,1830.0
2867.0,2783.0,2851.0,3102.0,3006.0,0.681641,-0.171387,-0.709229,0.055115,-4.0,-19.0,14.0,5163.0,-6282.0,-882.0,-2602.0,-3727.0,-351.0,-248.0,-4368.0,-1281.0,0.947986,-0.311826,-0.064707,10824.0,-15228.0,-3056.0,-85.0,-424.0,334.0
2871.0,2783.0,2859.0,3107.0,3007.0,0.67981,-0.172913,-0.71051,0.056091,-7.0,-12.0,-16.0,5289.0,-6714.0,-1066.0,-2465.0,-4135.0,-497.0,-171.0,-4732.0,-997.0,0.946626,-0.314802,-0.069436,11398.0,-15976.0,-3140.0,-155.0,-274.0,-365.0
2871.0,2786.0,2850.0,3103.0,3003.0,0.679016,-0.168945,-0.712646,0.050659,-7.0,4.0,-69.0,5602.0,-7037.0,-1209.0,-2185.0,-4565.0,-612.0,-136.0,-5053.0,-655.0,0.95068,-0.301637,-0.072778,12104.0,-13968.0,-2466.0,-147.0,105.0,-1565.0
2871.0,2781.0,2827.0,3103.0,2999.0,0.681396,-0.157043,-0.71405,0.034851,-19.0,18.0,-113.0,5950.0,-6436.0,-1049.0,-1931.0,-4275.0,-483.0,-237.0,-4658.0,-696.0,0.962156,-0.263789,-0.069015,13266.0,-10296.0,-1238.0,-415.0,423.0,-2571.0
2867.0,2779.0,2851.0,3103.0,3003.0,0.683289,-0.149353,-0.714355,0.022644,-31.0,24.0,-131.0,6191.0,-5939.0,-898.0,-1750.0,-4001.0,-363.0,-335.0,-4308.0,-726.0,0.969458,-0.236454,-0.065214,13804.0,-8778.0,-890.0,-690.0,572.0,-2984.0
2869.0,2780.0,2853.0,3101.0,3006.0,0.687439,-0.132812,-0.713928,-0.009766,-57.0,35.0,-160.0,6565.0,-4850.0,-704.0,-1497.0,-3468.0,-256.0,-424.0,-3659.0,-874.0,0.984158,-0.168657,-0.054665,14298.0,-6082.0,-852.0,-1283.0,804.0,-3648.0
2867.0,2783.0,2861.0,3094.0,3007.0,0.691345,-0.114136,-0.711548,-0.052185,-77.0,45.0,-190.0,7082.0,-3616.0,-489.0,-1075.0,-2931.0,-172.0,-500.0,-2975.0,-818.0,0.995763,-0.08355,-0.038646,15692.0,-3972.0,-436.0,-1741.0,1053.0,-4339.0
2865.0,2783.0,2857.0,3109.0,3007.0,0.693237,-0.103516,-0.709167,-0.075928,-79.0,52.0,-202.0,7343.0,-3080.0,-355.0,-840.0,-2786.0,-131.0,-560.0,-2761.0,-735.0,0.998962,-0.035831,-0.027291,16330.0,-2804.0,228.0,-1795.0,1211.0,-4609.0
2869.0,2782.0,2855.0,3103.0,3007.0,0.697693,-0.079346,-0.700806,-0.125977,-77.0,68.0,-213.0,7757.0,-1587.0,136.0,-417.0,-2126.0,93.0,-693.0,-1978.0,-555.0,0.997886,0.065852,0.005221,16264.0,1784.0,1754.0,-1762.0,1575.0,-4861.0
2871.0,2785.0,2861.0,3103.0,3011.0,0.702087,-0.052979,-0.687866,-0.176514,-73.0,78.0,-207.0,7759.0,285.0,778.0,-306.0,-1094.0,383.0,-711.0,-844.0,-467.0,0.984587,0.168444,0.048117,14602.0,5790.0,3552.0,-1659.0,1792.0,-4721.0
2869.0,2783.0,2849.0,3103.0,3011.0,0.703857,-0.039856,-0.680481,-0.200012,-64.0,75.0,-193.0,7409.0,1028.0,1059.0,-568.0,-742.0,479.0,-696.0,-393.0,-679.0,0.973867,0.216103,0.070777,12368.0,6382.0,3754.0,-1459.0,1718.0,-4420.0
2867.0,2783.0,2850.0,3099.0,2999.0,0.705017,-0.01593,-0.668152,-0.237244,-30.0,44.0,-142.0,6325.0,2388.0,1683.0,-1454.0,-25.0,809.0,-757.0,707.0,-1301.0,0.949676,0.294567,0.106653,9354.0,9290.0,5380.0,-672.0,1028.0,-3245.0
2864.0,2783.0,2847.0,3102.0,2999.0,0.702515,0.003113,-0.662903,-0.258911,0.0,5.0,-77.0,5755.0,4414.0,2419.0,-1861.0,1566.0,1426.0,-743.0,2523.0,-1013.0,0.929786,0.347639,0.121112,11080.0,15444.0,7098.0,20.0,122.0,-1759.0
2865.0,2783.0,2863.0,3103.0,3007.0,0.7005,0.009644,-0.662598,-0.265076,5.0,-10.0,-47.0,5854.0,5539.0,2730.0,-1708.0,2550.0,1731.0,-669.0,3432.0,-435.0,0.923187,0.364788,0.121837,12580.0,17792.0,7158.0,126.0,-213.0,-1058.0
2871.0,2783.0,2855.0,3090.0,3003.0,0.696289,0.015076,-0.664429,-0.271118,-3.0,-25.0,4.0,6450.0,7267.0,2907.0,-1062.0,4143.0,1951.0,-308.0,4616.0,833.0,0.917094,0.381271,0.116631,14914.0,18262.0,5450.0,-48.0,-556.0,97.0
2869.0,2786.0,2853.0,3103.0,2997.0,0.69458,0.014038,-0.666016,-0.271729,-7.0,-28.0,23.0,6750.0,7551.0,2697.0,-766.0,4426.0,1775.0,-41.0,4682.0,1185.0,0.917573,0.381452,0.112504,15194.0,16146.0,3866.0,-159.0,-623.0,543.0
2871.0,2781.0,2853.0,3103.0,3007.0,0.691772,0.006409,-0.670471,-0.268066,-6.0,-32.0,52.0,7156.0,6932.0,1841.0,-414.0,3914.0,1014.0,491.0,3863.0,1161.0,0.924191,0.368328,0.100836,15412.0,10624.0,884.0,-133.0,-711.0,1198.0
2871.0,2787.0,2855.0,3111.0,3007.0,0.690796,0.001099,-0.673279,-0.26355,0.0,-31.0,61.0,7331.0,6292.0,1362.0,-284.0,3372.0,597.0,680.0,3218.0,993.0,0.929617,0.356403,0.093352,15664.0,8658.0,-168.0,21.0,-702.0,1419.0
2869.0,2783.0,2855.0,3103.0,3007.0,0.689636,-0.009949,-0.679382,-0.25061,14.0,-28.0,71.0,7570.0,5002.0,544.0,-147.0,2324.0,-84.0,920.0,2050.0,614.0,0.94204,0.326798,0.076744,15672.0,6322.0,-1230.0,324.0,-626.0,1649.0
2869.0,2781.0,2851.0,3099.0,3007.0,0.68927,-0.01532,-0.682373,-0.243042,16.0,-26.0,73.0,7644.0,4440.0,230.0,-123.0,1895.0,-329.0,987.0,1592.0,449.0,0.948125,0.310572,0.068295,15756.0,5618.0,-1254.0,370.0,-588.0,1681.0
2867.0,2778.0,2849.0,3103.0,3006.0,0.689087,-0.025757,-0.687256,-0.228333,13.0,-19.0,68.0,7774.0,3560.0,-150.0,-81.0,1279.0,-592.0,1005.0,959.0,246.0,0.95892,0.278348,0.053992,15820.0,4882.0,-1192.0,299.0,-422.0,1562.0
2871.0,2777.0,2847.0,3103.0,3003.0,0.689636,-0.035461,-0.689941,-0.217224,0.0,-9.0,52.0,7848.0,2852.0,-293.0,-73.0,797.0,-665.0,903.0,506.0,99.0,0.967023,0.250833,0.045508,15946.0,3474.0,-724.0,17.0,-199.0,1193.0
2867.0,2787.0,2852.0,3101.0,3007.0,0.690247,-0.039673,-0.690247,-0.213562,-5.0,-3.0,41.0,7857.0,2449.0,-324.0,-87.0,482.0,-684.0,812.0,218.0,1.0,0.969826,0.240053,0.044035,15736.0,2394.0,-814.0,-95.0,-57.0,940.0
2869.0,2786.0,2853.0,3106.0,3007.0,0.6922,-0.04541,-0.689209,-0.20929,-4.0,10.0,17.0,7806.0,1575.0,-328.0,-166.0,-273.0,-703.0,567.0,-457.0,-255.0,0.973148,0.225623,0.045871,15318.0,562.0,-554.0,-88.0,237.0,392.0
2867.0,2781.0,2855.0,3103.0,3005.0,0.693604,-0.046448,-0.68811,-0.20813,0.0,15.0,6.0,7722.0,1165.0,-284.0,-256.0,-653.0,-683.0,417.0,-775.0,-427.0,0.973886,0.222,0.048751,14856.0,-60.0,-266.0,7.0,363.0,159.0
2867.0,2783.0,2853.0,3095.0,3007.0,0.697021,-0.045044,-0.685181,-0.206543,9.0,21.0,-7.0,7436.0,667.0,-111.0,-541.0,-1137.0,-577.0,155.0,-1112.0,-810.0,0.973778,0.220245,0.056997,13912.0,448.0,426.0,224.0,501.0,-150.0
2870.0,2783.0,2855.0,3103.0,3007.0,0.69873,-0.043152,-0.683716,-0.206055,12.0,21.0,-11.0,7280.0,607.0,9.0,-692.0,-1207.0,-493.0,57.0,-1110.0,-971.0,0.973249,0.221463,0.061353,13650.0,972.0,758.0,287.0,498.0,-235.0
2869.0,2783.0,2862.0,3103.0,3011.0,0.701599,-0.038391,-0.681091,-0.205872,11.0,17.0,-14.0,7036.0,819.0,292.0,-922.0,-1037.0,-275.0,-83.0,-819.0,-1149.0,0.971513,0.226564,0.069265,13550.0,2806.0,1544.0,267.0,393.0,-308.0
2870.0,2781.0,2847.0,3101.0,3007.0,0.702637,-0.036133,-0.679993,-0.20636,7.0,14.0,-14.0,6998.0,1048.0,449.0,-952.0,-835.0,-145.0,-137.0,-580.0,-1126.0,0.970488,0.22987,0.072587,13842.0,3512.0,1814.0,176.0,325.0,-317.0
2869.0,2780.0,2851.0,3099.0,3006.0,0.704041,-0.03302,-0.677979,-0.20874,-3.0,9.0,-13.0,7062.0,1494.0,717.0,-871.0,-443.0,73.0,-213.0,-162.0,-942.0,0.968434,0.236548,0.0785,14598.0,4172.0,2204.0,-64.0,208.0,-285.0
2871.0,2783.0,2855.0,3102.0,3007.0,0.704529,-0.032288,-0.677063,-0.210327,-7.0,7.0,-12.0,7177.0,1620.0,828.0,-749.0,-340.0,163.0,-264.0,-66.0,-792.0,0.967603,0.239314,0.081142,15106.0,3862.0,2278.0,-146.0,178.0,-254.0
2870.0,2787.0,2851.0,3103.0,3007.0,0.705566,-0.031494,-0.675171,-0.212952,-5.0,7.0,-8.0,7429.0,1688.0,941.0,-485.0,-303.0,233.0,-321.0,-72.0,-522.0,0.966169,0.243115,0.086325,15496.0,3416.0,2096.0,-104.0,173.0,-172.0
2865.0,2782.0,2847.0,3103.0,3003.0,0.706116,-0.031006,-0.674438,-0.213623,-1.0,7.0,-6.0,7510.0,1709.0,950.0,-401.0,-292.0,225.0,-311.0,-85.0,-438.0,0.96571,0.244364,0.088406,15444.0,3556.0,1932.0,-15.0,169.0,-132.0
2865.0,2781.0,2851.0,3102.0,3007.0,0.707092,-0.029602,-0.673401,-0.213745,4.0,4.0,-2.0,7573.0,1849.0,955.0,-332.0,-166.0,206.0,-250.0,4.0,-342.0,0.964968,0.24601,0.091321,15246.0,4278.0,1906.0,113.0,107.0,-45.0
2867.0,2786.0,2853.0,3103.0,3007.0,0.707397,-0.028931,-0.673218,-0.21344,5.0,2.0,-1.0,7580.0,1943.0,939.0,-323.0,-75.0,186.0,-201.0,77.0,-313.0,0.964815,0.246452,0.091909,15212.0,4454.0,1758.0,121.0,50.0,-2.0
2869.0,2781.0,2859.0,3103.0,3007.0,0.707458,-0.02832,-0.673462,-0.212524,4.0,-2.0,2.0,7665.0,2062.0,911.0,-239.0,45.0,162.0,-137.0,156.0,-204.0,0.96493,0.246183,0.091311,15708.0,4348.0,1784.0,94.0,-40.0,68.0
2866.0,2779.0,2850.0,3094.0,3007.0,0.707397,-0.028259,-0.673706,-0.211914,3.0,-3.0,4.0,7723.0,2087.0,913.0,-183.0,75.0,170.0,-135.0,171.0,-142.0,0.965133,0.245554,0.09064,15780.0,4306.0,1870.0,90.0,-48.0,92.0
2871.0,2778.0,2853.0,3103.0,3005.0,0.707458,-0.028381,-0.674011,-0.210632,3.0,-2.0,4.0,7817.0,2109.0,944.0,-93.0,111.0,208.0,-158.0,192.0,-44.0,0.965626,0.24378,0.089767,15820.0,4190.0,2006.0,83.0,-40.0,113.0
2867.0,2783.0,2847.0,3103.0,2999.0,0.707581,-0.028503,-0.674194,-0.209961,3.0,-2.0,5.0,7827.0,2093.0,965.0,-86.0,104.0,232.0,-183.0,191.0,-37.0,0.966063,0.242772,0.089403,15636.0,4062.0,2036.0,84.0,-41.0,116.0
2867.0,2781.0,2855.0,3103.0,3005.0,0.707581,-0.028748,-0.674622,-0.208374,4.0,-4.0,5.0,7759.0,1991.0,950.0,-160.0,21.0,227.0,-207.0,133.0,-129.0,0.966679,0.240465,0.088149,15248.0,3682.0,1800.0,111.0,-76.0,121.0
2867.0,2781.0,2849.0,3099.0,2999.0,0.707458,-0.02887,-0.675049,-0.207458,5.0,-5.0,5.0,7709.0,1965.0,932.0,-213.0,5.0,219.0,-205.0,129.0,-185.0,0.967117,0.239241,0.087012,15136.0,3810.0,1764.0,117.0,-106.0,125.0
2867.0,2779.0,2851.0,3102.0,3007.0,0.706787,-0.029358,-0.676147,-0.205933,2.0,-8.0,5.0,7605.0,1978.0,891.0,-323.0,36.0,203.0,-179.0,179.0,-287.0,0.967876,0.236982,0.083919,14952.0,4022.0,1620.0,56.0,-171.0,126.0
2867.0,2783.0,2851.0,3103.0,3006.0,0.706299,-0.029907,-0.676819,-0.205444,0.0,-9.0,5.0,7583.0,1981.0,864.0,-349.0,48.0,191.0,-164.0,192.0,-310.0,0.968361,0.23585,0.082087,15106.0,3960.0,1566.0,4.0,-191.0,123.0
2867.0,2783.0,2853.0,3101.0,3007.0,0.705139,-0.031433,-0.678101,-0.204895,-3.0,-9.0,4.0,7605.0,1929.0,775.0,-334.0,15.0,132.0,-118.0,138.0,-309.0,0.969192,0.233549,0.078395,15320.0,3670.0,1250.0,-65.0,-190.0,108.0
2867.0,2779.0,2851.0,3103.0,2999.0,0.70459,-0.032227,-0.67865,-0.204773,-3.0,-8.0,3.0,7624.0,1888.0,733.0,-318.0,-16.0,104.0,-101.0,96.0,-304.0,0.969538,0.232525,0.076775,15368.0,3522.0,1218.0,-63.0,-170.0,84.0
2867.0,2779.0,2855.0,3103.0,3007.0,0.703674,-0.033081,-0.679688,-0.204529,0.0,-6.0,0.0,7633.0,1832.0,610.0,-313.0,-64.0,4.0,-22.0,18.0,-318.0,0.970089,0.231475,0.07392,15288.0,3574.0,842.0,3.0,-119.0,14.0
2871.0,2787.0,2855.0,3102.0,3047.0,0.703247,-0.03302,-0.680115,-0.204407,2.0,-5.0,-1.0,7627.0,1829.0,552.0,-319.0,-68.0,-43.0,20.0,1.0,-328.0,0.970076,0.231598,0.072692,15206.0,3676.0,766.0,48.0,-93.0,-20.0
2867.0,2783.0,2859.0,3103.0,3007.0,0.702576,-0.032104,-0.680969,-0.204163,4.0,-3.0,-3.0,7594.0,1888.0,474.0,-352.0,-20.0,-103.0,94.0,34.0,-353.0,0.969974,0.232945,0.070545,15116.0,4048.0,790.0,101.0,-54.0,-56.0
2867.0,2782.0,2810.0,3099.0,3007.0,0.702271,-0.031555,-0.681335,-0.204041,4.0,-2.0,-3.0,7572.0,1942.0,445.0,-372.0,27.0,-125.0,131.0,75.0,-363.0,0.969841,0.23372,0.069603,15014.0,4204.0,694.0,98.0,-39.0,-48.0
2865.0,2779.0,2849.0,3099.0,3003.0,0.701843,-0.030823,-0.681824,-0.203796,1.0,-2.0,0.0,7546.0,2033.0,403.0,-397.0,110.0,-156.0,188.0,147.0,-369.0,0.96963,0.234641,0.068283,15086.0,4258.0,714.0,40.0,-31.0,12.0
2868.0,2785.0,2853.0,3103.0,3007.0,0.701721,-0.030823,-0.682007,-0.203674,0.0,-2.0,2.0,7552.0,2049.0,394.0,-391.0,127.0,-161.0,198.0,159.0,-360.0,0.969713,0.234557,0.067812,15178.0,4138.0,740.0,7.0,-25.0,50.0
2869.0,2786.0,2853.0,3103.0,3003.0,0.701782,-0.031372,-0.682068,-0.203186,-1.0,0.0,3.0,7603.0,2005.0,401.0,-343.0,95.0,-152.0,179.0,121.0,-320.0,0.970075,0.233141,0.067582,15346.0,3802.0,848.0,-15.0,15.0,91.0
2869.0,2782.0,2851.0,3103.0,3007.0,0.701965,-0.031677,-0.682007,-0.202942,-1.0,1.0,3.0,7623.0,1970.0,405.0,-326.0,66.0,-150.0,167.0,91.0,-311.0,0.970348,0.232343,0.067804,15366.0,3726.0,848.0,-6.0,37.0,88.0
2867.0,2779.0,2851.0,3099.0,3002.0,0.702454,-0.031921,-0.68158,-0.202332,1.0,3.0,1.0,7652.0,1897.0,461.0,-298.0,4.0,-102.0,100.0,42.0,-295.0,0.970474,0.230963,0.068809,15380.0,3578.0,1090.0,29.0,69.0,44.0
2870.0,2787.0,2855.0,3103.0,3007.0,0.702759,-0.031799,-0.681396,-0.202087,2.0,3.0,0.0,7652.0,1858.0,478.0,-298.0,-31.0,-90.0,77.0,14.0,-302.0,0.970567,0.230709,0.069397,15284.0,3466.0,1094.0,51.0,74.0,20.0
2871.0,2785.0,2855.0,3111.0,3007.0,0.703308,-0.031128,-0.68103,-0.201477,3.0,2.0,-1.0,7618.0,1816.0,527.0,-332.0,-73.0,-50.0,26.0,-2.0,-342.0,0.970491,0.230639,0.070464,15068.0,3604.0,1190.0,87.0,60.0,-3.0
2865.0,2782.0,2851.0,3103.0,2989.0,0.703552,-0.030701,-0.680908,-0.201172,3.0,1.0,0.0,7598.0,1816.0,564.0,-352.0,-74.0,-16.0,-6.0,11.0,-359.0,0.970461,0.23076,0.070877,15064.0,3646.0,1348.0,90.0,39.0,2.0
2871.0,2781.0,2855.0,3103.0,3005.0,0.703735,-0.030273,-0.680908,-0.200623,2.0,-1.0,1.0,7585.0,1850.0,629.0,-365.0,-39.0,47.0,-54.0,67.0,-359.0,0.970505,0.230602,0.07094,15208.0,3866.0,1458.0,49.0,-7.0,33.0
2871.0,2787.0,2854.0,3103.0,3007.0,0.703796,-0.030334,-0.680908,-0.200439,0.0,-1.0,2.0,7612.0,1887.0,667.0,-339.0,0.0,85.0,-77.0,108.0,-323.0,0.970602,0.230263,0.070949,15414.0,3986.0,1562.0,11.0,-20.0,49.0
2869.0,2786.0,2855.0,3103.0,3007.0,0.703857,-0.031006,-0.680847,-0.200256,-3.0,-1.0,2.0,7681.0,1902.0,702.0,-272.0,25.0,120.0,-103.0,126.0,-249.0,0.970857,0.229041,0.071004,15500.0,3774.0,1438.0,-48.0,-14.0,65.0
2864.0,2774.0,2846.0,3102.0,3005.0,0.703918,-0.031372,-0.680725,-0.200256,-3.0,-1.0,2.0,7693.0,1884.0,706.0,-260.0,12.0,122.0,-109.0,111.0,-241.0,0.970915,0.228472,0.071233,15446.0,3636.0,1462.0,-48.0,-11.0,63.0
2866.0,2781.0,2851.0,3103.0,3003.0,0.703979,-0.031921,-0.680725,-0.199951,0.0,-1.0,1.0,7673.0,1790.0,668.0,-283.0,-71.0,85.0,-101.0,29.0,-284.0,0.971198,0.22728,0.071162,15270.0,3254.0,1200.0,21.0,-17.0,34.0
2871.0,2787.0,2855.0,3103.0,3007.0,0.703979,-0.031799,-0.680847,-0.199585,3.0,-2.0,0.0,7659.0,1751.0,646.0,-297.0,-108.0,65.0,-94.0,-8.0,-308.0,0.971298,0.227002,0.070857,15240.0,3324.0,1218.0,76.0,-23.0,19.0
2870.0,2783.0,2855.0,3107.0,3007.0,0.703857,-0.031067,-0.681274,-0.198669,5.0,-2.0,0.0,7648.0,1789.0,651.0,-309.0,-70.0,79.0,-95.0,33.0,-310.0,0.971384,0.226963,0.069785,15282.0,3846.0,1314.0,127.0,-35.0,6.0
2867.0,2779.0,2853.0,3103.0,3007.0,0.703735,-0.030701,-0.681519,-0.198303,4.0,-2.0,0.0,7637.0,1837.0,646.0,-320.0,-23.0,79.0,-79.0,79.0,-310.0,0.971393,0.227084,0.069158,15192.0,3962.0,1252.0,108.0,-45.0,11.0
2867.0,2781.0,2851.0,3103.0,2999.0,0.703369,-0.030334,-0.682068,-0.197693,1.0,-4.0,1.0,7625.0,1890.0,627.0,-333.0,30.0,72.0,-55.0,128.0,-311.0,0.971485,0.227007,0.067674,15296.0,3780.0,1132.0,44.0,-73.0,41.0
2871.0,2783.0,2858.0,3103.0,3003.0,0.703186,-0.030518,-0.682373,-0.197449,0.0,-4.0,2.0,7643.0,1884.0,617.0,-317.0,28.0,69.0,-53.0,122.0,-297.0,0.971722,0.226548,0.066892,15402.0,3688.0,1208.0,21.0,-74.0,59.0
2869.0,2775.0,2855.0,3101.0,3005.0,0.702942,-0.031067,-0.682739,-0.196838,0.0,-3.0,3.0,7675.0,1851.0,591.0,-288.0,6.0,52.0,-44.0,89.0,-275.0,0.972082,0.225102,0.065775,15392.0,3588.0,1064.0,6.0,-47.0,78.0
2867.0,2778.0,2851.0,3095.0,3005.0,0.702881,-0.031372,-0.682922,-0.196472,0.0,-2.0,3.0,7677.0,1826.0,576.0,-288.0,-11.0,41.0,-39.0,69.0,-279.0,0.972354,0.224249,0.065276,15360.0,3490.0,1074.0,15.0,-32.0,71.0
2871.0,2781.0,2855.0,3099.0,3007.0,0.70282,-0.031616,-0.683167,-0.195801,1.0,-2.0,2.0,7647.0,1778.0,521.0,-321.0,-49.0,-8.0,-4.0,26.0,-323.0,0.972667,0.223088,0.064578,15180.0,3424.0,860.0,38.0,-27.0,49.0
2871.0,2787.0,2855.0,3103.0,3011.0,0.702759,-0.031616,-0.68335,-0.195435,2.0,-2.0,1.0,7632.0,1760.0,502.0,-337.0,-64.0,-23.0,4.0,11.0,-343.0,0.972818,0.222663,0.064098,15184.0,3450.0,938.0,55.0,-32.0,39.0
2871.0,2786.0,2854.0,3103.0,3006.0,0.702576,-0.031433,-0.683716,-0.194641,3.0,-2.0,1.0,7623.0,1732.0,471.0,-347.0,-86.0,-45.0,19.0,-13.0,-359.0,0.972961,0.22199,0.063042,15222.0,3342.0,860.0,78.0,-32.0,31.0
2865.0,2783.0,2852.0,3095.0,3005.0,0.702515,-0.03125,-0.68396,-0.194214,3.0,-2.0,1.0,7618.0,1714.0,458.0,-353.0,-102.0,-53.0,21.0,-29.0,-369.0,0.973122,0.221762,0.062468,15234.0,3342.0,862.0,88.0,-34.0,33.0
2871.0,2783.0,2847.0,3103.0,3005.0,0.702393,-0.031006,-0.684326,-0.193298,3.0,-1.0,2.0,7633.0,1759.0,479.0,-340.0,-51.0,-24.0,10.0,23.0,-343.0,0.973318,0.221002,0.061456,15244.0,3700.0,1042.0,70.0,-21.0,49.0
1.0,7949.0,-167.0,57.0,-237.0,137.0,22.0,-3.0,130.0,-241.0,0.999286,-0.03719,0.004171,15974.0,-444.0,10.0,-28.0,-42.0,42.0,,,,,,,,,,,
2868.0,2789.0,2858.0,3110.0,3011.0,0.707153,-0.067261,-0.702637,-0.040588,-1.0,-1.0,2.0,7968.0,-187.0,31.0,-217.0,125.0,2.0,15.0,115.0,-221.0,0.999204,-0.03809,0.003491,15958.0,-388.0,4.0,-7.0,-18.0,49.0
2865.0,2791.0,2853.0,3103.0,3007.0,0.707153,-0.067444,-0.702698,-0.040466,-1.0,-1.0,2.0,7953.0,-190.0,23.0,-233.0,125.0,-4.0,20.0,114.0,-237.0,0.999288,-0.038515,0.003371,15802.0,-396.0,42.0,-7.0,-7.0,47.0
2867.0,2779.0,2863.0,3107.0,3007.0,0.707031,-0.06781,-0.702759,-0.040283,-1.0,-1.0,1.0,7913.0,-212.0,-1.0,-272.0,109.0,-25.0,38.0,93.0,-276.0,0.999208,-0.039269,0.003048,15736.0,-606.0,-50.0,-10.0,-8.0,38.0
2865.0,2782.0,2859.0,3103.0,3004.0,0.707031,-0.067932,-0.70282,-0.040161,0.0,-1.0,1.0,7899.0,-246.0,-13.0,-287.0,78.0,-37.0,45.0,60.0,-289.0,0.999288,-0.039608,0.002936,15720.0,-692.0,-78.0,4.0,-11.0,33.0
2871.0,2786.0,2859.0,3107.0,2999.0,0.706909,-0.068054,-0.702942,-0.039734,1.0,-1.0,1.0,7895.0,-277.0,-1.0,-290.0,53.0,-21.0,26.0,37.0,-291.0,0.99924,-0.040355,0.002541,15792.0,-532.0,62.0,23.0,-20.0,38.0
2874.0,2783.0,2858.0,3107.0,3007.0,0.706848,-0.068176,-0.703003,-0.039551,0.0,-1.0,1.0,7895.0,-261.0,14.0,-290.0,73.0,-5.0,13.0,59.0,-292.0,0.999225,-0.040772,0.002337,15798.0,-440.0,118.0,5.0,-21.0,45.0
2870.0,2786.0,2855.0,3103.0,2999.0,-0.703003,-0.039429,-6.1e-05,-6.1e-05,2.0,7890.0,-255.0,28.0,-19862.0,16870.0,28.0,-20316.0,12834.0,16.0,-10720.0,5196.0,-8.1e-05,0.055437,0.492658,15782.0,-644.0,36.0,-33.0,-20.0,52.0
2869.0,2782.0,2855.0,3101.0,3007.0,0.706665,-0.06897,-0.703125,-0.039307,-2.0,-1.0,2.0,7885.0,-297.0,34.0,-300.0,48.0,19.0,-13.0,37.0,-301.0,0.99917,-0.042202,0.001779,15742.0,-766.0,82.0,-31.0,-19.0,52.0
2871.0,2783.0,2851.0,3103.0,3003.0,0.706543,-0.069519,-0.703186,-0.039001,-1.0,-1.0,2.0,7886.0,-329.0,27.0,-298.0,26.0,15.0,-13.0,15.0,-298.0,0.999085,-0.043386,0.001421,15796.0,-734.0,68.0,-9.0,-14.0,49.0
2869.0,2781.0,2855.0,3103.0,3007.0,0.706543,-0.069702,-0.703186,-0.038818,0.0,-1.0,1.0,7890.0,-339.0,22.0,-294.0,20.0,10.0,-9.0,8.0,-294.0,0.999074,-0.043902,0.001381,15798.0,-720.0,10.0,4.0,-8.0,45.0
2864.0,2787.0,2855.0,3103.0,2999.0,0.706421,-0.070007,-0.703308,-0.038452,0.0,-2.0,1.0,7863.0,-352.0,6.0,-321.0,15.0,-1.0,0.0,0.0,-321.0,0.999047,-0.044822,0.000966,15628.0,-800.0,-20.0,3.0,-24.0,37.0
2871.0,2779.0,2861.0,3115.0,3005.0,0.706299,-0.070129,-0.70343,-0.038269,0.0,-2.0,1.0,7855.0,-377.0,0.0,-329.0,-6.0,-4.0,0.0,-21.0,-328.0,0.999031,-0.045225,0.00059,15682.0,-904.0,-66.0,5.0,-41.0,30.0
2867.0,2783.0,2855.0,3101.0,2999.0,0.705872,-0.070251,-0.703796,-0.037964,0.0,-3.0,0.0,7868.0,-395.0,-13.0,-315.0,-20.0,-8.0,2.0,-35.0,-313.0,0.998914,-0.045739,-0.000569,15810.0,-796.0,-44.0,14.0,-50.0,17.0
2869.0,2781.0,2850.0,3107.0,3005.0,0.70575,-0.070251,-0.703979,-0.037842,0.0,-2.0,0.0,7889.0,-381.0,-27.0,-294.0,-5.0,-18.0,15.0,-21.0,-293.0,0.998983,-0.04588,-0.001008,15922.0,-654.0,-136.0,15.0,-45.0,9.0
2869.0,2778.0,2849.0,3103.0,3007.0,0.705444,-0.07019,-0.704285,-0.03772,0.0,-2.0,0.0,7901.0,-346.0,-49.0,-282.0,30.0,-33.0,35.0,11.0,-283.0,0.998962,-0.0459,-0.001869,15764.0,-542.0,-164.0,11.0,-32.0,7.0
2869.0,2782.0,2853.0,3103.0,3007.0,0.705261,-0.07019,-0.704468,-0.037659,0.0,-2.0,0.0,7898.0,-328.0,-69.0,-285.0,48.0,-49.0,54.0,26.0,-286.0,0.998954,-0.045947,-0.00239,15788.0,-554.0,-266.0,7.0,-32.0,14.0
2864.0,2781.0,2847.0,3103.0,2995.0,0.705017,-0.070312,-0.704712,-0.037415,0.0,-1.0,1.0,7903.0,-311.0,-95.0,-280.0,69.0,-69.0,77.0,44.0,-282.0,0.998929,-0.04641,-0.003114,15862.0,-584.0,-214.0,10.0,-22.0,35.0
2874.0,2787.0,2855.0,3111.0,3005.0,0.704956,-0.070374,-0.704773,-0.037231,0.0,-1.0,1.0,7916.0,-309.0,-98.0,-267.0,73.0,-70.0,79.0,48.0,-269.0,0.998908,-0.046741,-0.003308,15906.0,-628.0,-206.0,18.0,-11.0,40.0
2874.0,2781.0,2854.0,3103.0,3007.0,0.704956,-0.070435,-0.704773,-0.036743,1.0,0.0,1.0,7934.0,-291.0,-107.0,-248.0,98.0,-79.0,91.0,73.0,-252.0,0.998844,-0.047515,-0.003353,15904.0,-492.0,-242.0,27.0,18.0,41.0
2871.0,2783.0,2854.0,3110.0,2999.0,0.705078,-0.070435,-0.704712,-0.03656,1.0,1.0,1.0,7934.0,-281.0,-105.0,-249.0,110.0,-79.0,93.0,84.0,-253.0,0.998904,-0.047795,-0.003108,15858.0,-528.0,-168.0,26.0,28.0,39.0
