flex_1,flex_2,flex_3,flex_4,flex_5,Qw,Qx,Qy,Qz,GYRx,GYRy,GYRz,ACCx,ACCy,ACCz,ACCx_real,ACCy_real,ACCz_real,ACCx_world,ACCy_world,ACCz_world,GRAx,GRAy,GRAz,ACCx_raw,ACCy_raw,ACCz_raw,GYRx_raw,GYRy_raw,GYRz_raw
2863.0,2795.0,2879.0,3106.0,3047.0,1.0,0.0,0.0,0.0,0.0,0.0,0.0,0.0,0.0,0.0,0.0,0.0,0.0,0.0,0.0,0.0,0.0,0.0,0.0,0.0,0.0,0.0,0.0,0.0,0.0
2867.0,2815.0,2895.0,3117.0,3037.0,0.930237,0.254883,-0.263855,-0.002319,0.0,-1.0,-2.0,4694.0,4605.0,4393.0,682.0,710.0,-1593.0,1278.0,1276.0,-492.0,0.489713,0.475427,0.730761,9430.0,9228.0,8822.0,19.0,-22.0,-26.0
2867.0,2803.0,2887.0,3119.0,3035.0,0.929504,0.256287,-0.265137,-0.002502,1.0,-1.0,-2.0,4732.0,4573.0,4399.0,704.0,659.0,-1564.0,1291.0,1216.0,-477.0,0.491609,0.477766,0.728004,9590.0,9028.0,8816.0,30.0,-22.0,-25.0
2871.0,2815.0,2883.0,3143.0,3042.0,0.929077,0.257019,-0.265808,-0.002563,1.0,-1.0,-2.0,4751.0,4572.0,4403.0,715.0,648.0,-1548.0,1295.0,1198.0,-462.0,0.492595,0.478944,0.726478,9646.0,9166.0,8854.0,42.0,-16.0,-23.0
2875.0,2815.0,2896.0,3151.0,3039.0,0.928284,0.258667,-0.267029,-0.002686,1.0,-1.0,-1.0,4784.0,4634.0,4398.0,734.0,688.0,-1528.0,1297.0,1222.0,-411.0,0.494368,0.481667,0.723505,9634.0,9494.0,8822.0,38.0,-5.0,-20.0
2871.0,2807.0,2894.0,3135.0,3031.0,0.927917,0.259399,-0.267578,-0.002747,1.0,0.0,-1.0,4794.0,4676.0,4401.0,737.0,720.0,-1514.0,1289.0,1243.0,-380.0,0.495156,0.482872,0.722152,9638.0,9594.0,8794.0,24.0,2.0,-15.0
2870.0,2811.0,2889.0,3135.0,3035.0,0.927307,0.260681,-0.268555,-0.002808,-1.0,0.0,-1.0,4799.0,4763.0,4401.0,730.0,790.0,-1495.0,1264.0,1297.0,-330.0,0.496602,0.484971,0.71983,9554.0,9776.0,8796.0,-5.0,19.0,-5.0
2871.0,2811.0,2895.0,3151.0,3035.0,0.927002,0.26123,-0.268982,-0.002808,-1.0,0.0,0.0,4790.0,4783.0,4402.0,716.0,803.0,-1485.0,1246.0,1305.0,-321.0,0.497227,0.485833,0.718748,9548.0,9640.0,8804.0,-17.0,21.0,7.0
2867.0,2807.0,2897.0,3159.0,3039.0,0.926453,0.262207,-0.269897,-0.002625,-1.0,1.0,1.0,4780.0,4778.0,4402.0,694.0,786.0,-1469.0,1222.0,1287.0,-323.0,0.498718,0.487261,0.716724,9468.0,9536.0,8814.0,-8.0,36.0,25.0
2866.0,2807.0,2891.0,3135.0,3039.0,0.926208,0.262695,-0.270203,-0.002502,-1.0,1.0,1.0,4752.0,4777.0,4398.0,662.0,779.0,-1466.0,1193.0,1285.0,-338.0,0.499213,0.487974,0.71585,9324.0,9542.0,8778.0,-11.0,41.0,30.0
2869.0,2811.0,2886.0,3131.0,3031.0,0.925781,0.26355,-0.270935,-0.002197,-2.0,1.0,1.0,4705.0,4755.0,4389.0,604.0,747.0,-1461.0,1146.0,1265.0,-375.0,0.500495,0.48917,0.714211,9254.0,9356.0,8782.0,-27.0,36.0,34.0
2867.0,2813.0,2901.0,3147.0,3043.0,0.925598,0.263855,-0.271301,-0.002014,-2.0,1.0,1.0,4678.0,4720.0,4378.0,572.0,709.0,-1467.0,1127.0,1241.0,-412.0,0.501169,0.48954,0.713512,9204.0,9216.0,8686.0,-33.0,31.0,39.0
2874.0,2818.0,2895.0,3143.0,3039.0,0.925171,0.264465,-0.272095,-0.001709,-2.0,1.0,1.0,4654.0,4663.0,4372.0,536.0,646.0,-1460.0,1102.0,1189.0,-453.0,0.502564,0.490281,0.711967,9238.0,9224.0,8714.0,-26.0,32.0,31.0
2864.0,2805.0,2883.0,3135.0,3031.0,0.924988,0.264832,-0.2724,-0.001526,-2.0,1.0,1.0,4631.0,4649.0,4370.0,509.0,628.0,-1456.0,1079.0,1177.0,-471.0,0.503125,0.490763,0.711267,9122.0,9228.0,8800.0,-25.0,33.0,29.0
2867.0,2805.0,2884.0,3127.0,3039.0,0.924561,0.265503,-0.273193,-0.001343,-2.0,0.0,1.0,4603.0,4612.0,4378.0,470.0,584.0,-1435.0,1042.0,1135.0,-494.0,0.504455,0.491681,0.709688,9190.0,9068.0,8780.0,-24.0,18.0,25.0
2875.0,2818.0,2901.0,3149.0,3047.0,0.924377,0.265869,-0.27356,-0.001221,-1.0,0.0,1.0,4602.0,4596.0,4383.0,464.0,563.0,-1424.0,1035.0,1113.0,-498.0,0.505095,0.492195,0.708954,9208.0,9138.0,8790.0,-15.0,14.0,24.0
2875.0,2815.0,2900.0,3147.0,3043.0,0.923828,0.266663,-0.274475,-0.000977,-1.0,-1.0,1.0,4596.0,4610.0,4389.0,445.0,569.0,-1402.0,1007.0,1112.0,-485.0,0.506615,0.493237,0.707014,9252.0,9240.0,8802.0,-3.0,-5.0,28.0
2855.0,2805.0,2883.0,3123.0,3039.0,0.923523,0.267151,-0.275024,-0.000854,0.0,-1.0,1.0,4603.0,4598.0,4397.0,445.0,551.0,-1385.0,1001.0,1088.0,-479.0,0.507526,0.49391,0.705887,9268.0,9118.0,8824.0,6.0,-7.0,33.0
2865.0,2800.0,2883.0,3127.0,3031.0,0.922913,0.268188,-0.276123,-0.000488,1.0,-1.0,1.0,4626.0,4573.0,4399.0,452.0,515.0,-1364.0,1002.0,1048.0,-474.0,0.509413,0.495299,0.703599,9286.0,9138.0,8854.0,32.0,-2.0,30.0
2864.0,2815.0,2901.0,3143.0,3045.0,0.922607,0.268738,-0.27655,-0.000305,1.0,-1.0,1.0,4635.0,4589.0,4411.0,456.0,525.0,-1343.0,994.0,1046.0,-450.0,0.510131,0.496048,0.702504,9316.0,9330.0,8932.0,31.0,0.0,23.0
2868.0,2815.0,2903.0,3147.0,3039.0,0.922058,0.269775,-0.277527,-0.000183,-1.0,-1.0,0.0,4632.0,4626.0,4417.0,440.0,549.0,-1320.0,965.0,1059.0,-426.0,0.511693,0.497599,0.700391,9282.0,9320.0,8840.0,-3.0,-7.0,13.0
2869.0,2805.0,2887.0,3147.0,3043.0,0.921753,0.270203,-0.277954,-0.000183,-1.0,-1.0,0.0,4641.0,4633.0,4427.0,444.0,551.0,-1302.0,960.0,1052.0,-408.0,0.512311,0.498222,0.699361,9356.0,9272.0,8948.0,-12.0,-10.0,8.0
2871.0,2803.0,2879.0,3125.0,3035.0,0.921265,0.270935,-0.27887,-0.000183,-1.0,-1.0,0.0,4649.0,4620.0,4434.0,440.0,529.0,-1280.0,949.0,1023.0,-402.0,0.513726,0.499308,0.697555,9324.0,9222.0,8898.0,-6.0,0.0,5.0
2873.0,2815.0,2898.0,3151.0,3011.0,0.921021,0.271362,-0.279297,-0.000183,0.0,0.0,0.0,4654.0,4624.0,4439.0,440.0,528.0,-1267.0,943.0,1016.0,-392.0,0.514377,0.499963,0.696635,9350.0,9290.0,8916.0,1.0,2.0,6.0
2867.0,2818.0,2896.0,3149.0,3047.0,0.920471,0.272278,-0.280151,-6.1e-05,0.0,0.0,0.0,4669.0,4654.0,4450.0,444.0,547.0,-1240.0,930.0,1019.0,-358.0,0.515709,0.501282,0.694647,9374.0,9452.0,8938.0,6.0,2.0,12.0
2867.0,2803.0,2887.0,3131.0,3031.0,0.920227,0.272766,-0.280579,0.0,0.0,-1.0,0.0,4678.0,4685.0,4452.0,447.0,572.0,-1230.0,924.0,1035.0,-335.0,0.516392,0.502014,0.693692,9426.0,9560.0,8924.0,2.0,-2.0,17.0
2869.0,2801.0,2884.0,3133.0,3039.0,0.919739,0.27356,-0.281494,0.000183,-1.0,0.0,1.0,4718.0,4733.0,4458.0,475.0,611.0,-1209.0,931.0,1055.0,-283.0,0.517902,0.503104,0.691846,9594.0,9538.0,8880.0,-13.0,10.0,34.0
2870.0,2815.0,2896.0,3143.0,3039.0,0.919495,0.273926,-0.28186,0.000366,-1.0,1.0,1.0,4729.0,4739.0,4455.0,481.0,613.0,-1205.0,933.0,1054.0,-274.0,0.518539,0.50354,0.69099,9492.0,9508.0,8896.0,-12.0,26.0,44.0
2877.0,2819.0,2901.0,3147.0,3039.0,0.919067,0.274597,-0.282593,0.000977,-1.0,1.0,3.0,4738.0,4742.0,4445.0,478.0,611.0,-1202.0,929.0,1052.0,-272.0,0.51998,0.504195,0.689424,9514.0,9466.0,8886.0,-13.0,24.0,72.0
2867.0,2801.0,2891.0,3125.0,3023.0,0.918884,0.274841,-0.28302,0.001343,-1.0,0.0,3.0,4744.0,4732.0,4448.0,477.0,600.0,-1193.0,925.0,1039.0,-270.0,0.520863,0.504335,0.688712,9486.0,9378.0,8936.0,-12.0,21.0,81.0
2871.0,2784.0,2893.0,3134.0,3039.0,0.918457,0.275269,-0.283997,0.002197,-2.0,0.0,3.0,4776.0,4716.0,4461.0,492.0,583.0,-1168.0,927.0,1011.0,-251.0,0.522887,0.504397,0.687141,9690.0,9324.0,8980.0,-25.0,11.0,90.0
2873.0,2811.0,2898.0,3151.0,3037.0,0.918213,0.275391,-0.284485,0.002625,-2.0,0.0,4.0,4799.0,4704.0,4466.0,507.0,573.0,-1156.0,934.0,995.0,-238.0,0.523881,0.504241,0.68635,9698.0,9334.0,8948.0,-27.0,21.0,96.0
2870.0,2809.0,2896.0,3155.0,3045.0,0.917908,0.275635,-0.2854,0.003662,-2.0,1.0,4.0,4826.0,4676.0,4461.0,517.0,547.0,-1151.0,943.0,970.0,-241.0,0.525961,0.503924,0.68514,9704.0,9216.0,8904.0,-27.0,31.0,114.0
2869.0,2803.0,2891.0,3126.0,3023.0,0.917725,0.275696,-0.285828,0.004272,-2.0,1.0,5.0,4837.0,4663.0,4450.0,519.0,537.0,-1157.0,949.0,965.0,-248.0,0.526978,0.503583,0.684531,9740.0,9262.0,8864.0,-27.0,33.0,120.0
2869.0,2803.0,2895.0,3123.0,3035.0,0.917419,0.275818,-0.286682,0.005554,-3.0,2.0,5.0,4897.0,4691.0,4457.0,562.0,571.0,-1141.0,970.0,981.0,-195.0,0.529079,0.502897,0.683427,10000.0,9476.0,8932.0,-51.0,53.0,135.0
2871.0,2810.0,2891.0,3139.0,3039.0,0.917358,0.275696,-0.286987,0.006165,-4.0,3.0,5.0,4935.0,4722.0,4471.0,593.0,607.0,-1125.0,980.0,1000.0,-149.0,0.52994,0.502285,0.683215,10090.0,9640.0,9010.0,-72.0,73.0,127.0
2866.0,2807.0,2899.0,3141.0,3039.0,0.917419,0.275269,-0.287231,0.007141,-7.0,4.0,4.0,4933.0,4826.0,4511.0,583.0,722.0,-1087.0,931.0,1081.0,-71.0,0.530955,0.500971,0.683435,9804.0,9920.0,9188.0,-140.0,100.0,97.0
2867.0,2802.0,2895.0,3125.0,3039.0,0.917542,0.27478,-0.287231,0.007385,-9.0,4.0,4.0,4927.0,4855.0,4551.0,575.0,758.0,-1051.0,899.0,1094.0,-34.0,0.531152,0.500002,0.683931,9838.0,9842.0,9372.0,-197.0,98.0,93.0
2869.0,2807.0,2877.0,3127.0,3031.0,0.918152,0.272827,-0.287109,0.007935,-12.0,6.0,4.0,4938.0,4772.0,4646.0,583.0,705.0,-975.0,875.0,1009.0,-9.0,0.53155,0.496437,0.686199,9834.0,9098.0,9586.0,-263.0,141.0,111.0
2871.0,2807.0,2895.0,3139.0,3035.0,0.918579,0.271667,-0.286865,0.008362,-12.0,7.0,5.0,4935.0,4683.0,4710.0,580.0,633.0,-924.0,858.0,923.0,-14.0,0.53156,0.494299,0.687763,9866.0,8808.0,9830.0,-267.0,166.0,122.0
2867.0,2811.0,2896.0,3141.0,3039.0,0.919495,0.269287,-0.286194,0.009583,-10.0,8.0,6.0,4965.0,4548.0,4827.0,611.0,536.0,-834.0,853.0,792.0,10.0,0.531468,0.489731,0.69114,10116.0,8932.0,10050.0,-229.0,198.0,152.0
2865.0,2801.0,2885.0,3131.0,3037.0,0.919922,0.26825,-0.285767,0.010437,-10.0,9.0,7.0,5002.0,4569.0,4894.0,649.0,574.0,-780.0,849.0,793.0,84.0,0.531365,0.487572,0.692745,10268.0,9382.0,10212.0,-220.0,210.0,173.0
2864.0,2801.0,2886.0,3119.0,3035.0,0.920837,0.26593,-0.284912,0.012207,-13.0,10.0,9.0,5150.0,4778.0,5021.0,798.0,822.0,-682.0,878.0,941.0,345.0,0.531208,0.482801,0.696197,10944.0,10256.0,10386.0,-286.0,239.0,225.0
2869.0,2815.0,2890.0,3143.0,3037.0,0.921387,0.264404,-0.284546,0.013367,-15.0,11.0,12.0,5283.0,4874.0,5069.0,929.0,944.0,-651.0,949.0,1016.0,491.0,0.531422,0.47963,0.698256,11418.0,10236.0,10380.0,-339.0,265.0,280.0
2875.0,2813.0,2894.0,3143.0,3039.0,0.922668,0.260498,-0.283752,0.016724,-17.0,15.0,18.0,5605.0,5012.0,5171.0,1244.0,1151.0,-589.0,1140.0,1137.0,790.0,0.532332,0.471216,0.703222,12046.0,10564.0,10578.0,-389.0,344.0,413.0
2867.0,2815.0,2887.0,3131.0,3019.0,0.923401,0.25824,-0.283264,0.01886,-19.0,16.0,20.0,5719.0,5076.0,5231.0,1353.0,1256.0,-553.0,1191.0,1206.0,916.0,0.532874,0.466233,0.706099,12108.0,10482.0,10946.0,-420.0,370.0,477.0
2867.0,2811.0,2885.0,3131.0,3011.0,0.925049,0.253052,-0.282104,0.024109,-20.0,17.0,26.0,5764.0,5027.0,5352.0,1388.0,1303.0,-486.0,1168.0,1232.0,987.0,0.534122,0.454568,0.712678,11426.0,9506.0,11092.0,-454.0,393.0,607.0
2871.0,2815.0,2895.0,3139.0,3035.0,0.925903,0.250244,-0.281616,0.027222,-19.0,16.0,29.0,5730.0,4881.0,5403.0,1346.0,1210.0,-463.0,1134.0,1156.0,930.0,0.535123,0.448072,0.716108,11210.0,8798.0,11138.0,-423.0,377.0,672.0
2871.0,2812.0,2896.0,3147.0,3039.0,0.927246,0.24469,-0.28125,0.034607,-15.0,13.0,35.0,5605.0,4508.0,5524.0,1193.0,950.0,-390.0,1006.0,930.0,773.0,0.538512,0.434309,0.722008,10748.0,7856.0,11390.0,-333.0,314.0,816.0
2865.0,2803.0,2895.0,3133.0,3029.0,0.927734,0.242004,-0.281433,0.038757,-13.0,11.0,37.0,5510.0,4295.0,5576.0,1078.0,795.0,-358.0,918.0,798.0,663.0,0.540949,0.427216,0.724422,10416.0,7222.0,11412.0,-288.0,260.0,857.0
2866.0,2807.0,2895.0,3127.0,3039.0,0.928162,0.237244,-0.282715,0.04718,-7.0,4.0,36.0,5272.0,3707.0,5605.0,789.0,317.0,-354.0,766.0,408.0,305.0,0.547197,0.413724,0.727498,9776.0,5398.0,11168.0,-144.0,101.0,840.0
2871.0,2807.0,2896.0,3139.0,3039.0,0.92804,0.235474,-0.283875,0.051331,-2.0,0.0,34.0,5123.0,3343.0,5564.0,608.0,1.0,-398.0,706.0,163.0,45.0,0.551068,0.407915,0.72786,9316.0,4426.0,10836.0,-24.0,2.0,799.0
2871.0,2807.0,2887.0,3141.0,3035.0,0.926697,0.234253,-0.287781,0.059143,17.0,-13.0,28.0,4706.0,2192.0,5331.0,109.0,-1085.0,-604.0,660.0,-678.0,-810.0,0.56108,0.400122,0.724573,7828.0,-156.0,9682.0,396.0,-296.0,659.0
2867.0,2807.0,2891.0,3119.0,3033.0,0.925049,0.235962,-0.290833,0.062866,37.0,-24.0,22.0,4402.0,1353.0,5131.0,-248.0,-1923.0,-762.0,670.0,-1327.0,-1458.0,0.567737,0.399985,0.719406,6976.0,-2382.0,9014.0,861.0,-534.0,506.0
2871.0,2791.0,2887.0,3118.0,3031.0,0.91864,0.248352,-0.299316,0.069031,91.0,-46.0,-1.0,3812.0,-308.0,4717.0,-973.0,-3707.0,-996.0,745.0,-2697.0,-2801.0,0.584216,0.414968,0.697396,5508.0,-5614.0,8042.0,2088.0,-1050.0,-14.0
2869.0,2811.0,2895.0,3147.0,3039.0,0.913574,0.260132,-0.304443,0.07074,122.0,-61.0,-19.0,3350.0,-1052.0,4417.0,-1508.0,-4592.0,-1147.0,703.0,-3285.0,-3658.0,0.593067,0.432227,0.679268,3712.0,-6330.0,6870.0,2796.0,-1378.0,-420.0
2873.0,2805.0,2895.0,3143.0,3035.0,0.898438,0.295715,-0.317078,0.068787,175.0,-95.0,-59.0,2484.0,-1878.0,3768.0,-2516.0,-5873.0,-1343.0,551.0,-3856.0,-5238.0,0.610431,0.487742,0.623936,3250.0,-4882.0,5968.0,4013.0,-2172.0,-1333.0
2867.0,2806.0,2896.0,3143.0,3039.0,0.877136,0.343018,-0.330566,0.060425,205.0,-108.0,-90.0,2050.0,-1761.0,3319.0,-3040.0,-6363.0,-1154.0,385.0,-3711.0,-6093.0,0.621357,0.561797,0.546084,2258.0,-2418.0,5170.0,4697.0,-2466.0,-2055.0
2870.0,2779.0,2884.0,3127.0,3037.0,0.864563,0.369385,-0.336426,0.053467,211.0,-115.0,-109.0,1655.0,-1463.0,3044.0,-3434.0,-6400.0,-1057.0,118.0,-3367.0,-6520.0,0.621222,0.602738,0.5007,880.0,-966.0,4468.0,4855.0,-2632.0,-2477.0
2868.0,2806.0,2893.0,3125.0,3037.0,0.835999,0.42395,-0.346802,0.032715,207.0,-130.0,-136.0,1021.0,-487.0,2684.0,-3956.0,-6107.0,-592.0,-539.0,-2518.0,-6830.0,0.60759,0.686152,0.399959,76.0,2664.0,4392.0,4745.0,-2960.0,-3113.0
2864.0,2799.0,2887.0,3123.0,3031.0,0.804504,0.475891,-0.355347,0.002136,178.0,-148.0,-166.0,45.0,954.0,2046.0,-4655.0,-5306.0,-366.0,-1457.0,-1063.0,-6833.0,0.573789,0.764195,0.294488,-3110.0,5862.0,1398.0,4079.0,-3370.0,-3785.0
2867.0,2807.0,2897.0,3139.0,3037.0,0.787598,0.500305,-0.359192,-0.017761,163.0,-158.0,-179.0,-324.0,1420.0,1535.0,-4813.0,-5140.0,-441.0,-1606.0,-356.0,-6860.0,0.548025,0.800838,0.241301,-2484.0,5272.0,-52.0,3756.0,-3619.0,-4094.0
2866.0,2813.0,2879.0,3139.0,3043.0,0.750916,0.545959,-0.366516,-0.060425,156.0,-161.0,-187.0,-637.0,1866.0,382.0,-4605.0,-5213.0,-724.0,-1274.0,755.0,-6834.0,0.484466,0.864232,0.135119,-2464.0,5030.0,-2942.0,3575.0,-3665.0,-4271.0
2866.0,2814.0,2893.0,3135.0,3035.0,0.708679,0.591858,-0.369873,-0.102722,168.0,-151.0,-194.0,-1331.0,2558.0,-1278.0,-4629.0,-4936.0,-1488.0,-860.0,2462.0,-6417.0,0.402649,0.914863,0.025676,-4468.0,7514.0,-8082.0,3859.0,-3446.0,-4430.0
2867.0,2811.0,2896.0,3141.0,3027.0,0.659973,0.638489,-0.369812,-0.141357,184.0,-134.0,-184.0,-1819.0,3536.0,-3063.0,-4339.0,-4224.0,-2334.0,-211.0,3970.0,-5128.0,0.307622,0.947322,-0.088882,-5472.0,11236.0,-11544.0,4233.0,-3054.0,-4192.0
2863.0,2801.0,2890.0,3123.0,3039.0,0.634094,0.660645,-0.369446,-0.157898,183.0,-129.0,-167.0,-2269.0,4581.0,-3965.0,-4398.0,-3238.0,-2769.0,-170.0,4774.0,-3829.0,0.259898,0.954491,-0.145934,-7624.0,16142.0,-13332.0,4214.0,-2938.0,-3803.0
2867.0,2806.0,2879.0,3123.0,3031.0,0.583618,0.697083,-0.3703,-0.190735,142.0,-142.0,-134.0,-3330.0,7715.0,-5766.0,-4692.0,-107.0,-3750.0,-414.0,5993.0,40.0,0.166312,0.954918,-0.246056,-8564.0,25654.0,-16464.0,3263.0,-3230.0,-3065.0
2867.0,2799.0,2894.0,3127.0,3031.0,0.543518,0.71698,-0.373291,-0.226074,65.0,-145.0,-109.0,-3137.0,10641.0,-7043.0,-3805.0,2873.0,-4528.0,118.0,5361.0,3803.0,0.081599,0.948166,-0.306885,-4836.0,28502.0,-17764.0,1506.0,-3304.0,-2486.0
2871.0,2821.0,2896.0,3145.0,3035.0,0.528687,0.721863,-0.374329,-0.243347,34.0,-135.0,-99.0,-2654.0,11521.0,-7594.0,-3018.0,3775.0,-4952.0,816.0,4678.0,5031.0,0.044478,0.945462,-0.322481,-1810.0,27598.0,-18198.0,789.0,-3080.0,-2262.0
2869.0,2805.0,2887.0,3141.0,3035.0,0.507874,0.727234,-0.374451,-0.27002,12.0,-84.0,-76.0,-1394.0,11893.0,-8308.0,-1292.0,4185.0,-5537.0,2407.0,3176.0,5826.0,-0.012388,0.940904,-0.338236,194.0,23248.0,-18750.0,286.0,-1914.0,-1719.0
2871.0,2807.0,2899.0,3143.0,3031.0,0.491943,0.733704,-0.373962,-0.282471,29.0,-40.0,-45.0,-977.0,11823.0,-8703.0,-595.0,4178.0,-5783.0,3059.0,2457.0,5987.0,-0.046563,0.933148,-0.356371,-1510.0,24176.0,-17926.0,682.0,-907.0,-1008.0
2871.0,2811.0,2891.0,3139.0,3053.0,0.479248,0.740112,-0.374634,-0.28656,29.0,-21.0,-25.0,-842.0,12266.0,-8444.0,-308.0,4695.0,-5361.0,2714.0,1687.0,6376.0,-0.065088,0.924105,-0.376321,-1096.0,26026.0,-15126.0,687.0,-481.0,-558.0
2865.0,2803.0,2879.0,3135.0,3035.0,0.475037,0.74231,-0.374939,-0.287659,20.0,-17.0,-19.0,-795.0,12463.0,-8168.0,-214.0,4918.0,-5028.0,2426.0,1323.0,6471.0,-0.070844,0.920957,-0.383195,-1514.0,25928.0,-14870.0,469.0,-371.0,-435.0
2866.0,2803.0,2894.0,3127.0,3039.0,0.47052,0.744019,-0.375671,-0.289673,2.0,-13.0,-7.0,-487.0,12288.0,-7400.0,148.0,4769.0,-4210.0,2018.0,597.0,6004.0,-0.077522,0.917795,-0.389393,168.0,23318.0,-12602.0,67.0,-293.0,-145.0
2870.0,2811.0,2891.0,3135.0,3039.0,0.470093,0.743591,-0.376709,-0.290161,-5.0,-11.0,3.0,-295.0,12057.0,-7024.0,338.0,4538.0,-3831.0,1890.0,314.0,5631.0,-0.077346,0.917726,-0.389657,524.0,22762.0,-11794.0,-94.0,-244.0,80.0
2865.0,2807.0,2887.0,3135.0,3035.0,0.472473,0.74054,-0.380005,-0.289612,-16.0,-5.0,20.0,-34.0,11593.0,-6307.0,538.0,4057.0,-3147.0,1599.0,-14.0,4908.0,-0.069854,0.919878,-0.385697,356.0,21622.0,-10816.0,-363.0,-95.0,459.0
2875.0,2819.0,2893.0,3155.0,3031.0,0.477905,0.735352,-0.384827,-0.287598,-24.0,-2.0,35.0,86.0,10935.0,-5797.0,537.0,3363.0,-2702.0,1446.0,18.0,4099.0,-0.055149,0.924207,-0.377728,544.0,19840.0,-10324.0,-531.0,-39.0,818.0
2868.0,2801.0,2893.0,3135.0,3031.0,0.481384,0.732117,-0.388,-0.285889,-25.0,-1.0,42.0,143.0,10633.0,-5587.0,512.0,3041.0,-2530.0,1387.0,74.0,3738.0,-0.045053,0.926709,-0.373076,582.0,19500.0,-9914.0,-569.0,-5.0,973.0
2879.0,2803.0,2890.0,3134.0,3045.0,0.488831,0.725037,-0.394958,-0.281616,-27.0,2.0,50.0,34.0,10202.0,-5310.0,216.0,2572.0,-2332.0,1202.0,410.0,3237.0,-0.022229,0.931294,-0.363407,-448.0,19588.0,-9908.0,-605.0,57.0,1155.0
2871.0,2805.0,2891.0,3155.0,3039.0,0.492981,0.720947,-0.398804,-0.279419,-31.0,1.0,56.0,-11.0,10103.0,-5182.0,68.0,2454.0,-2251.0,1092.0,560.0,3095.0,-0.009687,0.933693,-0.357704,-186.0,19632.0,-9570.0,-689.0,27.0,1284.0
2864.0,2813.0,2893.0,3135.0,3035.0,0.503296,0.710327,-0.408569,-0.274231,-41.0,-1.0,76.0,235.0,9885.0,-4947.0,57.0,2191.0,-2137.0,1073.0,650.0,2791.0,0.021675,0.939094,-0.342984,1852.0,19186.0,-9088.0,-918.0,-10.0,1756.0
2866.0,2805.0,2875.0,3126.0,3039.0,0.509888,0.703308,-0.414856,-0.270569,-46.0,1.0,90.0,494.0,9813.0,-4756.0,146.0,2098.0,-2023.0,1054.0,586.0,2656.0,0.042473,0.94171,-0.333555,2448.0,19230.0,-8286.0,-1045.0,26.0,2066.0
2870.0,2801.0,2887.0,3126.0,3023.0,0.524902,0.686646,-0.428894,-0.262695,-58.0,-4.0,105.0,386.0,9854.0,-4453.0,-347.0,2102.0,-1906.0,715.0,1074.0,2550.0,0.089498,0.946181,-0.310901,-520.0,20460.0,-7944.0,-1317.0,-73.0,2408.0
2871.0,2799.0,2874.0,3114.0,3047.0,0.540588,0.665894,-0.442505,-0.261719,-87.0,-31.0,95.0,117.0,9997.0,-4128.0,-946.0,2201.0,-1846.0,406.0,1674.0,2485.0,0.129872,0.951572,-0.278492,780.0,19822.0,-7520.0,-1971.0,-690.0,2180.0
2865.0,2805.0,2889.0,3139.0,3043.0,0.549133,0.653076,-0.449707,-0.263977,-105.0,-43.0,98.0,473.0,9833.0,-3947.0,-748.0,2012.0,-1837.0,600.0,1552.0,2282.0,0.149104,0.954676,-0.257514,3404.0,18364.0,-6652.0,-2384.0,-967.0,2246.0
2874.0,2800.0,2885.0,3147.0,3039.0,0.568237,0.622253,-0.466187,-0.269287,-120.0,-52.0,112.0,1254.0,8988.0,-3613.0,-340.0,1138.0,-1899.0,1187.0,1259.0,1421.0,0.194679,0.958251,-0.20912,5066.0,15116.0,-6170.0,-2739.0,-1188.0,2574.0
2865.0,2779.0,2887.0,3135.0,3034.0,-1.21228,-1.959412,0.799805,1.121155,-14086.0,21287.0,31315.0,-18968.0,19238.0,27275.0,1138.0,31165.0,-23906.0,11238.0,-29051.0,-19098.0,-2.454433,6.544122,-1.75237,9008.0,13584.0,-3424.0,-2558.0,-974.0,2513.0
2862.0,2749.0,2893.0,3135.0,3030.0,0.596313,0.57428,-0.490112,-0.272766,-104.0,-31.0,101.0,3008.0,7734.0,-2534.0,786.0,-67.0,-1386.0,1551.0,-132.0,343.0,0.271233,0.952274,-0.140016,8828.0,13206.0,-2636.0,-2368.0,-697.0,2334.0
2865.0,2747.0,2885.0,3135.0,3035.0,0.612061,0.548706,-0.499756,-0.27301,-84.0,-21.0,71.0,3251.0,7043.0,-2006.0,693.0,-694.0,-1173.0,1461.0,-316.0,-319.0,0.312157,0.94456,-0.101682,6622.0,11988.0,-3232.0,-1914.0,-477.0,1645.0
2868.0,2742.0,2895.0,3131.0,3031.0,0.621155,0.529419,-0.507812,-0.275757,-59.0,-33.0,46.0,3634.0,6372.0,-1611.0,857.0,-1310.0,-986.0,1450.0,-758.0,-862.0,0.338879,0.937768,-0.076283,9062.0,11090.0,-2212.0,-1347.0,-740.0,1060.0
2877.0,2755.0,2897.0,3145.0,3043.0,0.62384,0.521362,-0.512024,-0.277222,-50.0,-36.0,39.0,3901.0,6103.0,-1487.0,1035.0,-1551.0,-930.0,1487.0,-1039.0,-1024.0,0.349776,0.934382,-0.067959,9200.0,10578.0,-2220.0,-1142.0,-818.0,903.0
2879.0,2753.0,2887.0,3135.0,3038.0,0.627014,0.507202,-0.520325,-0.280823,-42.0,-39.0,27.0,4339.0,5965.0,-1168.0,1327.0,-1639.0,-709.0,1351.0,-1461.0,-993.0,0.367634,0.928284,-0.055984,10344.0,12182.0,-1212.0,-950.0,-872.0,639.0
2873.0,2751.0,2899.0,3134.0,3031.0,0.630737,0.494446,-0.525269,-0.28595,-50.0,-24.0,9.0,4990.0,6298.0,-788.0,1878.0,-1272.0,-453.0,1164.0,-1948.0,-443.0,0.37984,0.924132,-0.040787,11650.0,13642.0,-554.0,-1131.0,-538.0,225.0
2868.0,2739.0,2871.0,3135.0,3039.0,0.633118,0.489258,-0.52533,-0.28949,-53.0,-16.0,-4.0,4999.0,6322.0,-757.0,1870.0,-1244.0,-505.0,1186.0,-1927.0,-419.0,0.381921,0.923671,-0.030702,9494.0,12514.0,-1582.0,-1197.0,-344.0,-80.0
2864.0,2736.0,2885.0,3139.0,3031.0,0.635559,0.482239,-0.523376,-0.299133,-46.0,-21.0,-26.0,4625.0,5944.0,-785.0,1538.0,-1642.0,-678.0,1271.0,-1742.0,-932.0,0.376766,0.926101,-0.013061,8206.0,10166.0,-1326.0,-1032.0,-473.0,-577.0
2864.0,2749.0,2903.0,3131.0,3031.0,0.634033,0.476746,-0.523804,-0.310486,-32.0,-41.0,-24.0,4322.0,5630.0,-523.0,1305.0,-1987.0,-496.0,1023.0,-1727.0,-1365.0,0.368172,0.929812,-0.003257,8040.0,10920.0,296.0,-717.0,-925.0,-531.0
2873.0,2758.0,2903.0,3147.0,3045.0,0.63269,0.473511,-0.525208,-0.315674,-30.0,-42.0,-16.0,4273.0,5807.0,-219.0,1277.0,-1817.0,-218.0,705.0,-1727.0,-1224.0,0.365638,0.93076,-0.000108,8244.0,13278.0,1440.0,-679.0,-947.0,-353.0
2870.0,2763.0,2896.0,3141.0,3039.0,0.633484,0.465515,-0.524597,-0.326782,-54.0,-21.0,-18.0,3352.0,6325.0,10.0,399.0,-1315.0,-122.0,310.0,-794.0,-1084.0,0.360404,0.932651,0.016182,2416.0,12542.0,-470.0,-1235.0,-469.0,-407.0
2869.0,2749.0,2909.0,3137.0,3035.0,0.634399,0.463379,-0.5177,-0.338867,-32.0,3.0,-44.0,1923.0,5321.0,-409.0,-885.0,-2369.0,-692.0,582.0,161.0,-2551.0,0.34281,0.938798,0.03456,-210.0,7152.0,-2060.0,-729.0,87.0,-1005.0
2869.0,2731.0,2883.0,3137.0,3035.0,0.633057,0.466797,-0.513245,-0.343323,-7.0,13.0,-55.0,1209.0,5075.0,-469.0,-1488.0,-2653.0,-774.0,515.0,673.0,-3021.0,0.329302,0.943435,0.037312,-2064.0,9426.0,-1136.0,-147.0,307.0,-1253.0
2863.0,2736.0,2864.0,3135.0,3031.0,0.626526,0.47937,-0.504089,-0.35144,19.0,6.0,-58.0,-684.0,5542.0,-546.0,-3098.0,-2281.0,-809.0,123.0,2391.0,-3117.0,0.29471,0.95499,0.032143,-6898.0,13382.0,-1046.0,440.0,154.0,-1309.0
2865.0,2746.0,2918.0,3139.0,3029.0,0.622131,0.485046,-0.501221,-0.35553,18.0,-6.0,-44.0,-1420.0,6133.0,-379.0,-3703.0,-1730.0,-599.0,-250.0,3108.0,-2709.0,0.278753,0.959923,0.026957,-6944.0,16184.0,496.0,414.0,-136.0,-1005.0
2871.0,2755.0,2899.0,3131.0,3039.0,0.615662,0.490112,-0.497681,-0.364685,-9.0,-21.0,-19.0,-2511.0,7433.0,-87.0,-4602.0,-484.0,-284.0,-803.0,4257.0,-1649.0,0.255333,0.96648,0.024138,-7604.0,17694.0,-134.0,-203.0,-480.0,-432.0
2871.0,2751.0,2895.0,3135.0,3056.0,0.612366,0.489258,-0.495667,-0.373962,-22.0,-19.0,-7.0,-2770.0,7602.0,-259.0,-4745.0,-343.0,-502.0,-588.0,4506.0,-1491.0,0.24113,0.969931,0.029781,-5772.0,14406.0,-1472.0,-489.0,-426.0,-147.0
2864.0,2735.0,2902.0,3143.0,3025.0,0.611206,0.489197,-0.494751,-0.377258,-14.0,-12.0,-7.0,-2712.0,7349.0,-452.0,-4642.0,-607.0,-712.0,-340.0,4404.0,-1706.0,0.235682,0.971298,0.031805,-4794.0,13084.0,-1994.0,-303.0,-256.0,-150.0
2876.0,2741.0,2885.0,3121.0,3054.0,0.607849,0.493164,-0.492981,-0.379883,14.0,4.0,-12.0,-2341.0,7010.0,-681.0,-4181.0,-969.0,-906.0,-36.0,3949.0,-1908.0,0.224627,0.974089,0.02755,-3778.0,13934.0,-1998.0,338.0,100.0,-268.0
2882.0,2751.0,2896.0,3163.0,3047.0,0.605469,0.496826,-0.492126,-0.379944,22.0,6.0,-13.0,-2164.0,7217.0,-708.0,-3953.0,-775.0,-887.0,-10.0,3785.0,-1638.0,0.218402,0.975586,0.021925,-3140.0,16110.0,-1412.0,508.0,151.0,-290.0
2868.0,2747.0,2927.0,3131.0,3039.0,0.601685,0.502686,-0.490662,-0.380127,10.0,2.0,-6.0,-1763.0,7983.0,-615.0,-3469.0,-28.0,-722.0,-92.0,3459.0,-759.0,0.208278,0.977944,0.013079,-2458.0,18058.0,-1082.0,235.0,65.0,-126.0
2871.0,2767.0,2897.0,3135.0,3057.0,0.600281,0.503845,-0.489746,-0.382019,-9.0,-4.0,0.0,-1011.0,8221.0,-584.0,-2674.0,200.0,-686.0,49.0,2744.0,-355.0,0.203013,0.979082,0.012564,1134.0,16346.0,-918.0,-186.0,-81.0,15.0
2864.0,2750.0,2907.0,3135.0,3043.0,0.600586,0.503296,-0.489319,-0.382812,-12.0,0.0,1.0,-568.0,8085.0,-607.0,-2226.0,63.0,-725.0,195.0,2299.0,-399.0,0.20242,0.97918,0.014509,1194.0,15066.0,-1558.0,-259.0,3.0,36.0
2864.0,2736.0,2891.0,3135.0,3038.0,0.600769,0.503418,-0.488403,-0.383545,-3.0,2.0,-2.0,-40.0,7530.0,-820.0,-1683.0,-494.0,-951.0,555.0,1723.0,-836.0,0.200668,0.979525,0.016063,1484.0,13690.0,-1976.0,-68.0,47.0,-31.0
2864.0,2759.0,2891.0,3143.0,3039.0,0.600281,0.504089,-0.488281,-0.383484,2.0,1.0,-3.0,204.0,7414.0,-801.0,-1431.0,-611.0,-922.0,588.0,1455.0,-897.0,0.199591,0.979686,0.014872,1720.0,14304.0,-1344.0,58.0,36.0,-48.0
2870.0,2759.0,3021.0,3135.0,3063.0,0.598511,0.505676,-0.488892,-0.383423,6.0,-6.0,-1.0,397.0,7526.0,-604.0,-1220.0,-503.0,-690.0,411.0,1224.0,-741.0,0.197438,0.98021,0.010505,1538.0,15854.0,-166.0,152.0,-120.0,-14.0
2866.0,2749.0,2887.0,3138.0,3043.0,0.597595,0.505859,-0.489502,-0.383789,4.0,-9.0,0.0,610.0,7725.0,-383.0,-1001.0,-305.0,-455.0,227.0,999.0,-500.0,0.196761,0.980329,0.008908,2690.0,16762.0,586.0,104.0,-192.0,10.0
2867.0,2741.0,2887.0,3135.0,3039.0,0.596924,0.505249,-0.490479,-0.384521,-1.0,-4.0,-1.0,1156.0,7883.0,-142.0,-457.0,-148.0,-210.0,107.0,455.0,-236.0,0.196998,0.980389,0.008329,3688.0,15662.0,-130.0,-6.0,-75.0,-11.0
2874.0,2754.0,2967.0,3138.0,3039.0,0.596741,0.505493,-0.49054,-0.384399,3.0,1.0,-3.0,1400.0,7848.0,-160.0,-212.0,-183.0,-223.0,176.0,217.0,-222.0,0.196827,0.980423,0.00771,4300.0,15526.0,-410.0,73.0,37.0,-66.0
2869.0,2763.0,2891.0,3147.0,3039.0,0.596252,0.507812,-0.489868,-0.382935,8.0,9.0,-6.0,1497.0,7938.0,-303.0,-102.0,-96.0,-338.0,309.0,156.0,-115.0,0.195252,0.980744,0.004312,2408.0,16232.0,-1334.0,190.0,224.0,-122.0
2864.0,2736.0,2901.0,3135.0,3029.0,0.595642,0.50946,-0.48938,-0.382324,8.0,7.0,-6.0,1353.0,7989.0,-405.0,-231.0,-48.0,-420.0,357.0,309.0,-92.0,0.193432,0.981116,0.001919,1794.0,16296.0,-1368.0,204.0,178.0,-121.0
2854.0,2753.0,2897.0,3135.0,2943.0,0.594238,0.511536,-0.489197,-0.381958,2.0,-3.0,-1.0,1069.0,8297.0,-447.0,-492.0,255.0,-430.0,293.0,617.0,157.0,0.190629,0.981653,-0.001971,1602.0,17626.0,-788.0,62.0,-48.0,-19.0
2859.0,2759.0,2935.0,3141.0,3039.0,0.593872,0.511292,-0.48938,-0.382568,-5.0,-7.0,1.0,1060.0,8460.0,-383.0,-496.0,417.0,-367.0,224.0,635.0,315.0,0.19005,0.981726,-0.001869,2190.0,17846.0,-334.0,-106.0,-140.0,44.0
2864.0,2761.0,2913.0,3147.0,3035.0,0.594788,0.508545,-0.489502,-0.384705,-18.0,-8.0,4.0,1177.0,8553.0,-309.0,-387.0,511.0,-337.0,220.0,542.0,426.0,0.19102,0.98158,0.00354,2864.0,16800.0,-586.0,-404.0,-162.0,97.0
2870.0,2745.0,2885.0,3141.0,3031.0,0.595703,0.506775,-0.489319,-0.385864,-19.0,-5.0,3.0,1327.0,8369.0,-329.0,-244.0,329.0,-390.0,313.0,383.0,273.0,0.191885,0.981396,0.0075,3678.0,15390.0,-852.0,-426.0,-109.0,86.0
2875.0,2753.0,2895.0,3151.0,3019.0,0.597107,0.505493,-0.488586,-0.38623,-4.0,6.0,-2.0,1486.0,7866.0,-451.0,-95.0,-171.0,-544.0,514.0,181.0,-192.0,0.193003,0.981081,0.011471,3164.0,14616.0,-1176.0,-89.0,148.0,-36.0
2875.0,2759.0,2951.0,3152.0,3043.0,0.597229,0.50647,-0.487854,-0.385681,3.0,10.0,-5.0,1478.0,7770.0,-476.0,-95.0,-268.0,-565.0,537.0,169.0,-287.0,0.192049,0.981269,0.010919,2760.0,15160.0,-1106.0,86.0,247.0,-112.0
2875.0,2767.0,2878.0,3147.0,3031.0,0.596497,0.509827,-0.48645,-0.384155,8.0,8.0,-5.0,1182.0,7893.0,-527.0,-363.0,-151.0,-582.0,487.0,454.0,-220.0,0.188627,0.981965,0.006826,1308.0,16566.0,-1062.0,200.0,201.0,-94.0
2866.0,2739.0,2900.0,3151.0,3023.0,0.595947,0.511047,-0.486206,-0.383789,6.0,3.0,-2.0,1022.0,8046.0,-524.0,-511.0,-1.0,-563.0,428.0,620.0,-99.0,0.187238,0.982316,0.004881,1192.0,17000.0,-1032.0,140.0,76.0,-26.0
2861.0,2726.0,2894.0,3131.0,3051.0,0.595032,0.511353,-0.486938,-0.383911,-1.0,-6.0,3.0,1048.0,8140.0,-474.0,-482.0,91.0,-497.0,368.0,593.0,-2.0,0.18686,0.982424,0.00286,2526.0,15988.0,-940.0,-9.0,-120.0,74.0
2864.0,2765.0,2911.0,3151.0,3056.0,0.594727,0.511047,-0.487671,-0.38385,0.0,-6.0,4.0,1174.0,8013.0,-490.0,-363.0,-33.0,-506.0,410.0,458.0,-101.0,0.187731,0.982252,0.002048,3216.0,15204.0,-1078.0,21.0,-127.0,94.0
2875.0,2756.0,2909.0,3127.0,3043.0,0.593811,0.511597,-0.48938,-0.382324,11.0,2.0,2.0,1465.0,7751.0,-531.0,-91.0,-291.0,-511.0,489.0,152.0,-301.0,0.190007,0.981787,-0.00244,3650.0,14854.0,-1200.0,267.0,51.0,62.0
2859.0,2755.0,2895.0,3135.0,3011.0,0.593079,0.513,-0.48999,-0.380798,15.0,6.0,0.0,1486.0,7709.0,-623.0,-74.0,-332.0,-569.0,552.0,143.0,-336.0,0.190506,0.981674,-0.00651,3030.0,15228.0,-1788.0,357.0,149.0,10.0
2862.0,2742.0,2874.0,3127.0,3037.0,0.591309,0.517517,-0.490234,-0.377014,22.0,14.0,-4.0,1452.0,7686.0,-758.0,-100.0,-355.0,-623.0,602.0,182.0,-357.0,0.189537,0.981675,-0.016368,2450.0,15334.0,-2048.0,523.0,333.0,-74.0
2863.0,2741.0,2902.0,3151.0,3039.0,0.590149,0.520691,-0.490112,-0.374634,26.0,16.0,-5.0,1298.0,7710.0,-856.0,-244.0,-332.0,-670.0,613.0,339.0,-356.0,0.188342,0.981796,-0.022703,1538.0,15730.0,-2288.0,608.0,378.0,-97.0
2875.0,2763.0,2923.0,3143.0,3067.0,0.58728,0.5271,-0.489868,-0.370605,23.0,11.0,-5.0,974.0,8122.0,-901.0,-538.0,75.0,-609.0,450.0,680.0,-4.0,0.184688,0.982206,-0.035558,1136.0,17958.0,-1698.0,540.0,264.0,-97.0
2864.0,2735.0,2879.0,3152.0,3019.0,0.586121,0.529175,-0.489685,-0.369568,14.0,6.0,-3.0,883.0,8416.0,-868.0,-615.0,369.0,-542.0,339.0,786.0,271.0,0.182897,0.982264,-0.0397,1326.0,18510.0,-1528.0,331.0,146.0,-58.0
2866.0,2747.0,2894.0,3135.0,3051.0,0.585693,0.529968,-0.48938,-0.36969,-7.0,-1.0,1.0,926.0,8710.0,-759.0,-560.0,660.0,-425.0,214.0,751.0,564.0,0.181405,0.982635,-0.040652,2254.0,17548.0,-1264.0,-149.0,-19.0,29.0
2871.0,2759.0,2867.0,3135.0,3039.0,0.586182,0.529236,-0.489014,-0.3703,-12.0,-1.0,1.0,1009.0,8571.0,-756.0,-476.0,521.0,-440.0,263.0,652.0,442.0,0.181349,0.98262,-0.038494,2592.0,16024.0,-1528.0,-262.0,-15.0,36.0
2864.0,2753.0,2907.0,3137.0,3043.0,0.587341,0.52832,-0.488342,-0.370667,-5.0,4.0,0.0,1217.0,7985.0,-767.0,-273.0,-64.0,-478.0,398.0,372.0,-95.0,0.181986,0.982633,-0.035237,2850.0,14220.0,-1522.0,-92.0,100.0,16.0
2871.0,2747.0,2918.0,3135.0,3027.0,0.587463,0.528809,-0.488098,-0.370117,2.0,6.0,-1.0,1240.0,7777.0,-756.0,-251.0,-272.0,-462.0,405.0,313.0,-296.0,0.182037,0.982618,-0.035778,2510.0,14480.0,-1448.0,61.0,146.0,-13.0
2871.0,2751.0,2892.0,3139.0,3058.0,0.586731,0.530823,-0.487854,-0.368713,8.0,3.0,-1.0,1106.0,7760.0,-704.0,-377.0,-289.0,-379.0,294.0,410.0,-337.0,0.181035,0.982657,-0.039572,1738.0,15994.0,-1186.0,189.0,86.0,-13.0
2877.0,2757.0,2870.0,3135.0,3047.0,0.586304,0.531433,-0.487976,-0.368408,4.0,0.0,0.0,1054.0,7892.0,-639.0,-425.0,-158.0,-302.0,197.0,457.0,-219.0,0.180636,0.982711,-0.041065,1854.0,16608.0,-858.0,104.0,5.0,17.0
2871.0,2768.0,2913.0,3143.0,3056.0,0.585938,0.53125,-0.488342,-0.368652,-2.0,-3.0,1.0,1128.0,7870.0,-634.0,-351.0,-179.0,-294.0,210.0,381.0,-227.0,0.180583,0.982616,-0.041477,2824.0,15020.0,-1410.0,-45.0,-64.0,41.0
2864.0,2759.0,2907.0,3183.0,3031.0,0.585815,0.53125,-0.488647,-0.368591,1.0,-1.0,0.0,1234.0,7720.0,-667.0,-247.0,-329.0,-323.0,278.0,265.0,-354.0,0.180886,0.982651,-0.041964,3094.0,14578.0,-1532.0,28.0,-15.0,17.0
2863.0,2757.0,2864.0,3123.0,3024.0,0.584961,0.532776,-0.48877,-0.367432,8.0,5.0,-4.0,1314.0,7641.0,-713.0,-163.0,-407.0,-339.0,322.0,178.0,-413.0,0.180305,0.982485,-0.04556,2564.0,15294.0,-1590.0,194.0,117.0,-81.0
2864.0,2763.0,2911.0,3155.0,3039.0,0.584351,0.534119,-0.488586,-0.36676,9.0,5.0,-5.0,1265.0,7655.0,-761.0,-203.0,-394.0,-367.0,338.0,227.0,-405.0,0.179225,0.982613,-0.048021,2160.0,15450.0,-1852.0,225.0,125.0,-108.0
2861.0,2767.0,2907.0,3127.0,3047.0,0.582642,0.536621,-0.488708,-0.365662,9.0,1.0,-2.0,1137.0,7745.0,-846.0,-313.0,-305.0,-406.0,340.0,358.0,-333.0,0.17704,0.982719,-0.053619,1868.0,15724.0,-1982.0,225.0,29.0,-24.0
2877.0,2754.0,2896.0,3127.0,3023.0,0.581787,0.537415,-0.489319,-0.365051,9.0,-2.0,3.0,1077.0,7794.0,-890.0,-372.0,-255.0,-427.0,341.0,428.0,-292.0,0.176991,0.982575,-0.056509,1810.0,15918.0,-2070.0,216.0,-40.0,69.0
2882.0,2745.0,2903.0,3135.0,3047.0,0.580566,0.537598,-0.49115,-0.364258,2.0,-6.0,5.0,1047.0,8074.0,-818.0,-416.0,29.0,-322.0,201.0,485.0,-26.0,0.178642,0.982033,-0.060498,2270.0,17148.0,-1228.0,61.0,-125.0,132.0
2864.0,2768.0,2891.0,3143.0,3039.0,0.580505,0.537048,-0.491638,-0.364441,-4.0,-5.0,4.0,1114.0,8172.0,-762.0,-355.0,128.0,-267.0,154.0,428.0,78.0,0.179352,0.981865,-0.060325,2658.0,16766.0,-1216.0,-81.0,-106.0,96.0
2863.0,2751.0,2898.0,3151.0,3030.0,0.581421,0.535583,-0.491455,-0.365479,-11.0,-1.0,0.0,1225.0,8132.0,-729.0,-249.0,87.0,-264.0,183.0,320.0,55.0,0.179996,0.982031,-0.056753,2728.0,15876.0,-1448.0,-232.0,-4.0,16.0
2863.0,2739.0,2882.0,3139.0,3039.0,0.58197,0.535095,-0.490906,-0.366028,-10.0,1.0,-2.0,1218.0,8040.0,-752.0,-253.0,-6.0,-304.0,230.0,319.0,-34.0,0.179666,0.982189,-0.05465,2296.0,15452.0,-1708.0,-219.0,41.0,-28.0
2865.0,2743.0,2875.0,3143.0,3027.0,0.582336,0.535034,-0.489929,-0.366821,-4.0,0.0,-3.0,1198.0,7821.0,-790.0,-260.0,-228.0,-358.0,301.0,305.0,-251.0,0.178083,0.982573,-0.052619,2496.0,15110.0,-1520.0,-69.0,19.0,-58.0
2871.0,2763.0,2915.0,3155.0,3024.0,0.582153,0.535278,-0.489807,-0.366943,0.0,0.0,-2.0,1207.0,7804.0,-765.0,-246.0,-246.0,-331.0,280.0,282.0,-267.0,0.177452,0.982691,-0.052884,2462.0,15680.0,-1348.0,15.0,4.0,-41.0
2867.0,2768.0,2887.0,3135.0,3047.0,0.581787,0.5354,-0.48999,-0.367126,-2.0,-3.0,0.0,1198.0,8041.0,-653.0,-252.0,-9.0,-214.0,143.0,294.0,-42.0,0.177021,0.982755,-0.053486,2280.0,16862.0,-1002.0,-26.0,-46.0,19.0
2871.0,2757.0,2899.0,3147.0,3039.0,0.581848,0.535034,-0.48999,-0.367554,-5.0,-3.0,1.0,1206.0,8143.0,-628.0,-243.0,91.0,-196.0,119.0,297.0,56.0,0.176892,0.982813,-0.052709,2524.0,16812.0,-1122.0,-110.0,-65.0,30.0
2863.0,2749.0,2895.0,3127.0,3039.0,0.582581,0.533813,-0.489746,-0.36853,-9.0,-1.0,0.0,1248.0,8116.0,-691.0,-203.0,63.0,-284.0,217.0,277.0,40.0,0.17718,0.982951,-0.049593,2560.0,15700.0,-1796.0,-193.0,-10.0,21.0
2871.0,2757.0,2907.0,3155.0,3039.0,0.582825,0.53363,-0.48938,-0.368774,-5.0,2.0,-2.0,1213.0,7949.0,-785.0,-235.0,-103.0,-387.0,324.0,308.0,-124.0,0.176867,0.982967,-0.048575,2112.0,14778.0,-2188.0,-114.0,48.0,-25.0
2878.0,2769.0,2891.0,3135.0,3045.0,0.581787,0.535767,-0.488831,-0.368164,11.0,5.0,-6.0,1005.0,7643.0,-962.0,-422.0,-412.0,-536.0,449.0,479.0,-450.0,0.174291,0.983344,-0.05198,1294.0,14800.0,-2298.0,258.0,120.0,-122.0
2859.0,2737.0,2897.0,3165.0,3057.0,0.580322,0.537842,-0.488831,-0.367371,18.0,4.0,-7.0,891.0,7687.0,-1004.0,-519.0,-369.0,-541.0,426.0,581.0,-421.0,0.172184,0.983407,-0.056494,1150.0,15920.0,-2182.0,415.0,94.0,-138.0
2885.0,2766.0,2895.0,3133.0,3039.0,0.577026,0.541748,-0.489563,-0.365845,17.0,0.0,-4.0,883.0,8139.0,-927.0,-498.0,82.0,-383.0,233.0,588.0,22.0,0.16859,0.983414,-0.066361,2024.0,17926.0,-1474.0,398.0,2.0,-82.0
2864.0,2755.0,2883.0,3147.0,3058.0,0.575989,0.542847,-0.48999,-0.365356,10.0,-2.0,-1.0,954.0,8414.0,-857.0,-420.0,358.0,-287.0,129.0,528.0,301.0,0.167793,0.983389,-0.069525,2376.0,18448.0,-1234.0,241.0,-24.0,-12.0
2869.0,2750.0,2885.0,3111.0,3047.0,0.575806,0.54248,-0.490356,-0.365601,-7.0,-4.0,3.0,1039.0,8687.0,-767.0,-337.0,632.0,-197.0,34.0,464.0,578.0,0.168038,0.983276,-0.069519,2308.0,17514.0,-1386.0,-154.0,-72.0,72.0
2869.0,2768.0,2880.0,3123.0,3029.0,0.576416,0.541382,-0.490356,-0.366394,-13.0,-5.0,3.0,1105.0,8590.0,-759.0,-276.0,533.0,-209.0,74.0,395.0,491.0,0.16858,0.98345,-0.067044,2682.0,16334.0,-1572.0,-288.0,-101.0,88.0
2864.0,2746.0,2919.0,3147.0,3019.0,0.577637,0.538757,-0.490845,-0.367676,-9.0,-6.0,5.0,1247.0,7991.0,-847.0,-152.0,-64.0,-336.0,292.0,223.0,-67.0,0.170884,0.983355,-0.062338,2854.0,13820.0,-2052.0,-205.0,-128.0,125.0
2875.0,2767.0,2884.0,3121.0,3030.0,0.577637,0.538025,-0.491638,-0.367676,-2.0,-6.0,5.0,1302.0,7718.0,-863.0,-109.0,-335.0,-352.0,347.0,145.0,-326.0,0.172339,0.983093,-0.062329,2938.0,14036.0,-1750.0,-31.0,-132.0,125.0
2877.0,2768.0,2914.0,3125.0,3046.0,0.57666,0.537903,-0.493469,-0.366821,7.0,-4.0,2.0,1467.0,7599.0,-771.0,37.0,-448.0,-232.0,280.0,-43.0,-418.0,0.1745,0.982404,-0.065757,3458.0,15388.0,-1130.0,172.0,-75.0,66.0
2861.0,2743.0,2905.0,3159.0,3055.0,0.576294,0.538086,-0.494202,-0.366211,7.0,-1.0,2.0,1538.0,7690.0,-703.0,100.0,-355.0,-149.0,206.0,-111.0,-321.0,0.175505,0.982155,-0.067547,3412.0,16042.0,-1030.0,164.0,-20.0,53.0
2871.0,2751.0,2895.0,3122.0,3039.0,0.576294,0.53833,-0.494568,-0.365356,-1.0,2.0,1.0,1509.0,7927.0,-628.0,61.0,-116.0,-64.0,89.0,-59.0,-98.0,0.176668,0.98186,-0.068797,2686.0,16412.0,-1120.0,-11.0,46.0,35.0
2874.0,2768.0,2911.0,3154.0,3031.0,0.576599,0.538147,-0.494263,-0.365479,-5.0,1.0,0.0,1418.0,7940.0,-655.0,-28.0,-103.0,-99.0,99.0,36.0,-99.0,0.176621,0.981875,-0.067857,2248.0,15754.0,-1544.0,-101.0,39.0,14.0
2864.0,2766.0,2896.0,3119.0,3027.0,0.576904,0.537842,-0.493896,-0.366028,-3.0,-1.0,0.0,1256.0,7691.0,-804.0,-186.0,-354.0,-259.0,242.0,190.0,-363.0,0.176132,0.982126,-0.066413,2240.0,14448.0,-2034.0,-62.0,-20.0,3.0
2870.0,2771.0,2905.0,3151.0,3021.0,0.576599,0.538025,-0.49408,-0.365967,1.0,-2.0,0.0,1201.0,7575.0,-858.0,-240.0,-470.0,-307.0,288.0,236.0,-483.0,0.175973,0.982083,-0.067187,2020.0,14574.0,-2022.0,40.0,-23.0,1.0
2871.0,2759.0,2877.0,3135.0,3039.0,0.575195,0.539124,-0.494751,-0.365662,6.0,-2.0,-2.0,1153.0,7623.0,-871.0,-279.0,-421.0,-290.0,259.0,277.0,-441.0,0.174883,0.982026,-0.070875,2400.0,15724.0,-1612.0,159.0,-42.0,-40.0
2864.0,2767.0,2883.0,3127.0,3039.0,0.574463,0.539795,-0.494995,-0.365479,6.0,-1.0,-3.0,1187.0,7710.0,-860.0,-239.0,-334.0,-263.0,233.0,245.0,-350.0,0.174146,0.982004,-0.072817,2568.0,15952.0,-1700.0,149.0,-19.0,-54.0
2865.0,2767.0,2915.0,3133.0,3047.0,0.573425,0.541199,-0.494934,-0.365112,4.0,2.0,-4.0,1227.0,7848.0,-880.0,-185.0,-197.0,-259.0,227.0,214.0,-205.0,0.172419,0.982087,-0.075732,2516.0,16068.0,-1890.0,111.0,48.0,-84.0
2863.0,2747.0,2883.0,3141.0,3039.0,0.572998,0.541992,-0.49469,-0.364929,3.0,3.0,-5.0,1192.0,7897.0,-916.0,-211.0,-148.0,-285.0,240.0,253.0,-159.0,0.171335,0.982175,-0.076974,2080.0,16080.0,-2060.0,88.0,69.0,-98.0
2864.0,2742.0,2905.0,3121.0,3021.0,0.572083,0.543579,-0.493958,-0.365051,2.0,1.0,-5.0,1102.0,7933.0,-978.0,-276.0,-116.0,-331.0,264.0,333.0,-134.0,0.1683,0.982584,-0.078931,2122.0,15824.0,-2104.0,56.0,41.0,-104.0
2871.0,2749.0,2903.0,3152.0,3051.0,0.571655,0.544189,-0.493774,-0.36499,3.0,1.0,-4.0,1084.0,7913.0,-1013.0,-286.0,-136.0,-358.0,290.0,347.0,-152.0,0.16729,0.982623,-0.079948,2012.0,15644.0,-2246.0,72.0,35.0,-73.0
2879.0,2765.0,2902.0,3133.0,3023.0,0.57074,0.545288,-0.493958,-0.364563,3.0,0.0,0.0,1116.0,7969.0,-1047.0,-245.0,-80.0,-369.0,304.0,319.0,-88.0,0.166259,0.982592,-0.082683,2430.0,16276.0,-2146.0,83.0,15.0,5.0
2866.0,2750.0,2897.0,3142.0,3026.0,0.570496,0.545654,-0.49408,-0.364197,3.0,1.0,0.0,1136.0,7996.0,-1068.0,-226.0,-52.0,-381.0,316.0,308.0,-56.0,0.166289,0.982471,-0.083749,2352.0,16060.0,-2284.0,73.0,42.0,16.0
2875.0,2759.0,2885.0,3143.0,3049.0,0.570007,0.546753,-0.494141,-0.36322,4.0,3.0,-1.0,1145.0,8026.0,-1069.0,-216.0,-20.0,-362.0,296.0,299.0,-24.0,0.166144,0.98227,-0.086276,2372.0,16288.0,-1932.0,101.0,82.0,-6.0
2863.0,2749.0,2887.0,3143.0,3047.0,0.569885,0.547363,-0.494019,-0.362793,3.0,3.0,-1.0,1162.0,8082.0,-1029.0,-197.0,34.0,-314.0,248.0,276.0,28.0,0.165909,0.982321,-0.087273,2416.0,16516.0,-1800.0,77.0,91.0,-17.0
49.0,7326.0,9638.0,9998.0,104.0,-5.0,-37.0,,,,,,,,,,,,,,,,,,,,,,,
2875.0,2803.0,2896.0,3139.0,3039.0,0.895325,0.36615,-0.231689,0.102478,2.0,-2.0,-3.0,3735.0,4762.0,5013.0,-278.0,-220.0,-101.0,-130.0,-89.0,-333.0,0.489919,0.60816,0.624362,7508.0,10054.0,10054.0,47.0,-42.0,-67.0
2869.0,2795.0,2883.0,3127.0,3035.0,0.895325,0.366455,-0.231689,0.101929,0.0,-3.0,-4.0,3761.0,4842.0,5024.0,-249.0,-146.0,-88.0,-135.0,-45.0,-265.0,0.489579,0.608961,0.624026,7724.0,10112.0,10108.0,8.0,-47.0,-89.0
2871.0,2789.0,2885.0,3135.0,3031.0,0.895386,0.366699,-0.231567,0.100647,-1.0,-2.0,-6.0,3840.0,4905.0,5004.0,-161.0,-92.0,-105.0,-72.0,6.0,-200.0,0.488499,0.610061,0.623754,7940.0,9928.0,9944.0,-17.0,-31.0,-117.0
2877.0,2806.0,2895.0,3141.0,3043.0,0.895386,0.366821,-0.231506,0.100098,-1.0,-1.0,-5.0,3876.0,4934.0,4980.0,-121.0,-67.0,-128.0,-38.0,41.0,-179.0,0.488011,0.610547,0.623582,7948.0,10080.0,9834.0,-6.0,-17.0,-104.0
2871.0,2804.0,2899.0,3139.0,3038.0,0.895386,0.367188,-0.231384,0.099365,0.0,-1.0,-3.0,3906.0,5016.0,4946.0,-86.0,6.0,-159.0,-22.0,115.0,-137.0,0.487328,0.611566,0.623224,7826.0,10376.0,9832.0,3.0,-17.0,-50.0
2865.0,2791.0,2877.0,3131.0,3031.0,0.895325,0.367371,-0.231445,0.09906,-1.0,-2.0,-2.0,3903.0,5082.0,4941.0,-88.0,68.0,-161.0,-45.0,160.0,-101.0,0.487221,0.611978,0.622891,7806.0,10584.0,9906.0,-3.0,-24.0,-30.0
2871.0,2787.0,2885.0,3127.0,3027.0,0.895325,0.367432,-0.231506,0.098694,-2.0,-2.0,-1.0,3890.0,5181.0,4954.0,-100.0,165.0,-147.0,-94.0,219.0,-39.0,0.487073,0.612245,0.622746,7744.0,10478.0,9914.0,-42.0,-24.0,-4.0
2871.0,2801.0,2898.0,3139.0,3043.0,0.895325,0.36731,-0.231628,0.098511,-3.0,-2.0,0.0,3887.0,5193.0,4955.0,-103.0,178.0,-146.0,-101.0,228.0,-32.0,0.487133,0.612087,0.622743,7768.0,10434.0,9926.0,-51.0,-25.0,5.0
2877.0,2803.0,2893.0,3135.0,3043.0,0.895447,0.367004,-0.231873,0.098389,-3.0,-1.0,0.0,3877.0,5158.0,4952.0,-116.0,147.0,-152.0,-100.0,210.0,-61.0,0.487477,0.611639,0.623048,7744.0,10088.0,9888.0,-54.0,-18.0,20.0
2873.0,2787.0,2883.0,3135.0,3027.0,0.895508,0.36676,-0.231995,0.098389,-3.0,-1.0,1.0,3873.0,5106.0,4952.0,-122.0,98.0,-153.0,-87.0,176.0,-94.0,0.487676,0.611222,0.62328,7714.0,9884.0,9904.0,-48.0,-13.0,25.0
2869.0,2787.0,2890.0,3131.0,3029.0,0.895569,0.366333,-0.232239,0.098572,-2.0,-1.0,2.0,3851.0,4980.0,4946.0,-148.0,-20.0,-162.0,-66.0,98.0,-185.0,0.488192,0.610368,0.623625,7662.0,9520.0,9862.0,-31.0,-13.0,47.0
2873.0,2803.0,2895.0,3147.0,3039.0,0.895569,0.366211,-0.232422,0.098755,-1.0,-1.0,2.0,3839.0,4925.0,4945.0,-163.0,-72.0,-164.0,-60.0,62.0,-225.0,0.48863,0.610029,0.623666,7590.0,9540.0,9854.0,-13.0,-18.0,56.0
2877.0,2807.0,2894.0,3139.0,3035.0,0.895508,0.365967,-0.232849,0.099243,-1.0,-1.0,2.0,3849.0,4881.0,4959.0,-162.0,-109.0,-149.0,-51.0,25.0,-238.0,0.489676,0.609235,0.623633,7760.0,9676.0,9918.0,-6.0,-18.0,59.0
2875.0,2791.0,2879.0,3130.0,3027.0,0.895508,0.365845,-0.233032,0.099487,-1.0,-1.0,2.0,3857.0,4874.0,4972.0,-158.0,-113.0,-137.0,-51.0,14.0,-231.0,0.490158,0.608866,0.623686,7766.0,9738.0,10044.0,-18.0,-17.0,54.0
2878.0,2790.0,2887.0,3127.0,3031.0,0.895569,0.365417,-0.233337,0.099731,-2.0,-1.0,1.0,3883.0,4854.0,4979.0,-137.0,-126.0,-132.0,-29.0,1.0,-226.0,0.490827,0.607971,0.624014,7860.0,9646.0,9910.0,-42.0,-12.0,32.0
2879.0,2800.0,2897.0,3135.0,3047.0,0.89563,0.365112,-0.233459,0.099792,-3.0,-1.0,1.0,3897.0,4841.0,4973.0,-125.0,-134.0,-141.0,-13.0,2.0,-230.0,0.491057,0.607416,0.624301,7892.0,9624.0,9914.0,-53.0,-4.0,27.0
2871.0,2807.0,2896.0,3135.0,3031.0,0.895874,0.364441,-0.233582,0.099854,-3.0,0.0,0.0,3918.0,4795.0,4963.0,-106.0,-172.0,-158.0,22.0,-13.0,-255.0,0.491301,0.606338,0.625183,7884.0,9340.0,9850.0,-64.0,13.0,12.0
2867.0,2787.0,2885.0,3127.0,3029.0,0.895996,0.364136,-0.233582,0.099854,-3.0,1.0,0.0,3920.0,4741.0,4960.0,-104.0,-222.0,-165.0,43.0,-44.0,-288.0,0.491297,0.60588,0.625625,7854.0,9160.0,9910.0,-54.0,24.0,0.0
2864.0,2783.0,2883.0,3134.0,3035.0,0.896301,0.363525,-0.233337,0.099915,-2.0,1.0,-1.0,3920.0,4628.0,4981.0,-101.0,-328.0,-153.0,79.0,-128.0,-343.0,0.490924,0.605029,0.626742,7830.0,8940.0,10034.0,-34.0,39.0,-8.0
2875.0,2806.0,2893.0,3135.0,3039.0,0.896484,0.363281,-0.233154,0.099976,-2.0,1.0,-1.0,3899.0,4612.0,5006.0,-120.0,-341.0,-133.0,60.0,-152.0,-348.0,0.490677,0.604732,0.627345,7634.0,9210.0,10132.0,-28.0,41.0,-11.0
2881.0,2803.0,2897.0,3139.0,3039.0,0.896851,0.362732,-0.232666,0.099731,-4.0,1.0,-2.0,3848.0,4754.0,5061.0,-163.0,-195.0,-88.0,-43.0,-80.0,-252.0,0.489685,0.604224,0.628579,7552.0,10160.0,10300.0,-77.0,32.0,-34.0
2870.0,2794.0,2879.0,3131.0,3025.0,0.897095,0.362305,-0.232422,0.099304,-6.0,1.0,-3.0,3831.0,4864.0,5080.0,-174.0,-83.0,-75.0,-97.0,-9.0,-182.0,0.488966,0.603882,0.629356,7562.0,10376.0,10280.0,-126.0,30.0,-58.0
2869.0,2789.0,2886.0,3135.0,3031.0,0.897949,0.360901,-0.231934,0.098145,-10.0,0.0,-4.0,3827.0,5016.0,5094.0,-165.0,79.0,-82.0,-142.0,112.0,-84.0,0.48737,0.602615,0.631903,7720.0,10274.0,10218.0,-210.0,17.0,-79.0
2875.0,2800.0,2896.0,3135.0,3045.0,0.898376,0.360046,-0.231689,0.097473,-10.0,1.0,-4.0,3851.0,5033.0,5097.0,-134.0,103.0,-90.0,-121.0,135.0,-60.0,0.486478,0.601747,0.633268,7870.0,10160.0,10186.0,-211.0,24.0,-78.0
2875.0,2803.0,2903.0,3135.0,3039.0,0.899231,0.358398,-0.231384,0.096619,-8.0,1.0,-1.0,3900.0,5038.0,5107.0,-76.0,123.0,-102.0,-72.0,158.0,-27.0,0.485392,0.599854,0.635963,7942.0,10040.0,10260.0,-183.0,43.0,-20.0
2874.0,2787.0,2887.0,3131.0,3023.0,0.899597,0.357605,-0.231262,0.096558,-7.0,2.0,1.0,3924.0,5035.0,5121.0,-50.0,130.0,-99.0,-53.0,162.0,-9.0,0.485145,0.598741,0.637235,7982.0,10066.0,10326.0,-155.0,52.0,25.0
2869.0,2789.0,2882.0,3135.0,3026.0,0.900024,0.356323,-0.23114,0.097229,-5.0,2.0,4.0,3952.0,4998.0,5142.0,-24.0,111.0,-93.0,-26.0,144.0,-4.0,0.485353,0.596452,0.639105,8004.0,9892.0,10376.0,-95.0,63.0,110.0
2871.0,2805.0,2897.0,3131.0,3039.0,0.900208,0.355774,-0.231079,0.097961,-3.0,3.0,6.0,3954.0,4992.0,5165.0,-25.0,115.0,-77.0,-34.0,136.0,7.0,0.485743,0.595267,0.639997,7880.0,9996.0,10506.0,-66.0,71.0,145.0
2871.0,2801.0,2896.0,3135.0,3037.0,0.900391,0.354736,-0.231079,0.09967,-4.0,2.0,8.0,3933.0,5014.0,5249.0,-55.0,158.0,-5.0,-100.0,117.0,63.0,0.486836,0.592739,0.641402,7792.0,10090.0,10758.0,-78.0,60.0,190.0
2869.0,2791.0,2885.0,3131.0,3023.0,0.900574,0.354065,-0.231201,0.100525,-5.0,2.0,7.0,3920.0,5021.0,5290.0,-74.0,177.0,28.0,-135.0,108.0,86.0,0.487612,0.59124,0.642322,7760.0,10066.0,10812.0,-103.0,50.0,182.0
2867.0,2791.0,2879.0,3163.0,3027.0,0.901123,0.352173,-0.231384,0.101746,-9.0,1.0,6.0,3943.0,4997.0,5347.0,-60.0,183.0,64.0,-137.0,88.0,119.0,0.488675,0.587617,0.644811,8070.0,9874.0,10878.0,-192.0,44.0,142.0
2874.0,2799.0,2896.0,3131.0,3039.0,0.90155,0.350891,-0.231384,0.102173,-11.0,2.0,5.0,3975.0,4958.0,5350.0,-30.0,162.0,53.0,-100.0,82.0,114.0,0.488912,0.58541,0.646569,8126.0,9636.0,10680.0,-233.0,65.0,115.0
2879.0,2803.0,2890.0,3141.0,3045.0,0.90271,0.347961,-0.231262,0.102722,-14.0,4.0,3.0,4037.0,4909.0,5344.0,31.0,151.0,12.0,-29.0,103.0,110.0,0.489012,0.580705,0.650878,8202.0,9724.0,10572.0,-302.0,105.0,83.0
2874.0,2793.0,2885.0,3135.0,3027.0,0.903381,0.346252,-0.231079,0.102905,-15.0,4.0,3.0,4058.0,4860.0,5316.0,54.0,124.0,-36.0,16.0,117.0,74.0,0.488768,0.578038,0.653399,8260.0,9356.0,10486.0,-341.0,113.0,77.0
2875.0,2797.0,2890.0,3135.0,3026.0,0.904846,0.34259,-0.23053,0.103271,-15.0,6.0,3.0,4067.0,4712.0,5299.0,69.0,23.0,-98.0,86.0,84.0,-17.0,0.487948,0.572369,0.658899,8054.0,9042.0,10550.0,-334.0,147.0,72.0
2875.0,2799.0,2895.0,3141.0,3039.0,0.905579,0.34082,-0.230225,0.103516,-15.0,6.0,3.0,4039.0,4671.0,5294.0,45.0,4.0,-126.0,81.0,88.0,-59.0,0.487533,0.569615,0.661626,7886.0,9120.0,10580.0,-330.0,145.0,80.0
2867.0,2783.0,2883.0,3135.0,3025.0,0.906311,0.338989,-0.229919,0.10376,-15.0,5.0,3.0,4005.0,4627.0,5288.0,14.0,-15.0,-154.0,70.0,91.0,-103.0,0.487104,0.566747,0.664389,7830.0,8986.0,10550.0,-335.0,133.0,83.0
2879.0,2790.0,2886.0,3120.0,3035.0,0.907715,0.335388,-0.22937,0.104126,-15.0,6.0,2.0,4029.0,4497.0,5257.0,45.0,-99.0,-229.0,152.0,77.0,-187.0,0.486251,0.561107,0.669693,8214.0,8602.0,10322.0,-331.0,144.0,48.0
2871.0,2810.0,2895.0,3127.0,3039.0,0.908447,0.333679,-0.228943,0.104187,-15.0,7.0,0.0,4065.0,4442.0,5227.0,87.0,-133.0,-281.0,218.0,86.0,-220.0,0.485495,0.558554,0.672375,8388.0,8564.0,10308.0,-334.0,174.0,13.0
2877.0,2801.0,2887.0,3135.0,3031.0,0.910217,0.330017,-0.227356,0.103943,-17.0,11.0,-3.0,4110.0,4391.0,5190.0,157.0,-143.0,-369.0,313.0,136.0,-253.0,0.482493,0.55351,0.678698,8228.0,8816.0,10252.0,-376.0,269.0,-55.0
2870.0,2799.0,2887.0,3135.0,3013.0,0.911255,0.328064,-0.226135,0.103699,-19.0,13.0,-3.0,4101.0,4385.0,5175.0,167.0,-128.0,-415.0,332.0,176.0,-273.0,0.480173,0.551,0.682376,8154.0,8690.0,10286.0,-417.0,309.0,-67.0
2871.0,2791.0,2887.0,3135.0,3027.0,0.913635,0.323669,-0.223206,0.103149,-19.0,16.0,-4.0,4010.0,4327.0,5226.0,121.0,-140.0,-432.0,300.0,173.0,-317.0,0.47463,0.545385,0.690787,7552.0,8524.0,10694.0,-435.0,371.0,-91.0
2878.0,2802.0,2887.0,3135.0,3039.0,0.914856,0.321411,-0.221497,0.102844,-20.0,15.0,-4.0,3915.0,4323.0,5297.0,53.0,-121.0,-397.0,221.0,160.0,-316.0,0.471386,0.54253,0.695173,7196.0,8654.0,11054.0,-445.0,365.0,-86.0
2870.0,2803.0,2896.0,3135.0,3039.0,0.917358,0.316528,-0.218506,0.102173,-21.0,12.0,-3.0,3717.0,4314.0,5570.0,-97.0,-77.0,-197.0,5.0,58.0,-225.0,0.465578,0.536089,0.704051,6898.0,8474.0,12064.0,-471.0,292.0,-48.0
2870.0,2797.0,2895.0,3137.0,3031.0,0.918518,0.314148,-0.217224,0.101929,-20.0,11.0,-2.0,3638.0,4270.0,5702.0,-155.0,-94.0,-99.0,-73.0,-19.0,-191.0,0.46309,0.532818,0.70819,6824.0,8236.0,12136.0,-440.0,256.0,-30.0
2866.0,2797.0,2887.0,3135.0,3029.0,0.920471,0.309814,-0.21521,0.101807,-15.0,8.0,1.0,3552.0,4131.0,5943.0,-210.0,-182.0,83.0,-155.0,-205.0,-132.0,0.459271,0.526531,0.715331,6936.0,7788.0,12590.0,-328.0,201.0,31.0
2871.0,2801.0,2895.0,3140.0,3049.0,0.921204,0.308044,-0.214355,0.102112,-12.0,8.0,2.0,3544.0,4066.0,6052.0,-206.0,-224.0,168.0,-166.0,-291.0,-90.0,0.45784,0.523767,0.718203,7038.0,7734.0,12744.0,-263.0,196.0,63.0
2875.0,2803.0,2891.0,3135.0,3035.0,0.922424,0.305115,-0.21283,0.103455,-7.0,7.0,6.0,3558.0,3935.0,6277.0,-175.0,-315.0,352.0,-170.0,-473.0,11.0,0.455769,0.518854,0.723178,7148.0,7488.0,13218.0,-149.0,172.0,138.0
2875.0,2794.0,2887.0,3139.0,3043.0,0.922791,0.303894,-0.212341,0.104492,-5.0,5.0,8.0,3566.0,3880.0,6378.0,-164.0,-351.0,438.0,-176.0,-554.0,61.0,0.455402,0.516485,0.725021,7184.0,7464.0,13346.0,-106.0,132.0,186.0
2871.0,2799.0,2891.0,3143.0,3027.0,0.923218,0.301819,-0.21228,0.106995,-3.0,1.0,11.0,3608.0,3786.0,6596.0,-132.0,-407.0,635.0,-192.0,-715.0,193.0,0.456548,0.511863,0.727621,7416.0,7256.0,13896.0,-48.0,31.0,255.0
2871.0,2806.0,2894.0,3135.0,3039.0,0.923279,0.300903,-0.212585,0.108337,-2.0,-1.0,12.0,3658.0,3728.0,6713.0,-91.0,-446.0,745.0,-178.0,-809.0,273.0,0.457749,0.509573,0.728445,7644.0,7094.0,14088.0,-23.0,-15.0,276.0
2867.0,2801.0,2896.0,3135.0,3039.0,0.923035,0.299255,-0.214294,0.111572,1.0,-6.0,15.0,3753.0,3520.0,6875.0,-34.0,-613.0,903.0,-122.0,-1032.0,333.0,0.46238,0.504628,0.728966,7644.0,6050.0,14070.0,42.0,-123.0,356.0
2881.0,2799.0,2885.0,3147.0,3039.0,0.922668,0.298828,-0.215637,0.113403,6.0,-9.0,16.0,3737.0,3299.0,6923.0,-78.0,-817.0,956.0,-108.0,-1230.0,249.0,0.465699,0.502531,0.72838,7320.0,5166.0,14104.0,151.0,-203.0,380.0
2877.0,2789.0,2891.0,3135.0,3031.0,0.920837,0.299805,-0.219666,0.117493,19.0,-20.0,18.0,3649.0,2801.0,7001.0,-242.0,-1299.0,1073.0,-118.0,-1697.0,11.0,0.475002,0.500525,0.72361,7046.0,4140.0,14282.0,454.0,-439.0,420.0
2871.0,2800.0,2885.0,3101.0,3038.0,0.919434,0.301331,-0.222412,0.11969,26.0,-25.0,18.0,3608.0,2508.0,7013.0,-333.0,-1595.0,1119.0,-102.0,-1967.0,-154.0,0.481119,0.500866,0.719417,6964.0,3060.0,13952.0,607.0,-551.0,433.0
2875.0,2801.0,2896.0,3135.0,3038.0,0.9151,0.307007,-0.229553,0.125,46.0,-35.0,23.0,3525.0,1705.0,6910.0,-545.0,-2427.0,1125.0,40.0,-2638.0,-700.0,0.49688,0.504496,0.706085,6906.0,1076.0,13432.0,1072.0,-784.0,540.0
2877.0,2799.0,2890.0,3139.0,3034.0,0.911926,0.311584,-0.233948,0.128662,59.0,-39.0,27.0,3479.0,1322.0,6768.0,-673.0,-2840.0,1063.0,135.0,-2922.0,-1043.0,0.506864,0.508084,0.696347,6612.0,398.0,12512.0,1373.0,-885.0,640.0
2871.0,2798.0,2887.0,3135.0,3039.0,0.902832,0.32605,-0.24408,0.137512,93.0,-54.0,31.0,3204.0,775.0,6304.0,-1141.0,-3498.0,830.0,172.0,-3267.0,-1875.0,0.530397,0.521609,0.668132,5334.0,410.0,11178.0,2137.0,-1218.0,715.0
2875.0,2801.0,2893.0,3135.0,3045.0,0.896729,0.336548,-0.249939,0.141602,110.0,-65.0,25.0,2951.0,614.0,6040.0,-1501.0,-3750.0,727.0,73.0,-3368.0,-2342.0,0.543566,0.532801,0.648439,4276.0,300.0,10408.0,2529.0,-1475.0,580.0
2875.0,2801.0,2893.0,3131.0,3043.0,0.881348,0.364563,-0.263123,0.145264,140.0,-93.0,-5.0,2328.0,565.0,5484.0,-2339.0,-4073.0,603.0,-307.0,-3402.0,-3279.0,0.56972,0.566169,0.595736,2852.0,1650.0,9448.0,3217.0,-2121.0,-114.0
2869.0,2802.0,2896.0,3137.0,3033.0,0.862732,0.400024,-0.276245,0.138855,150.0,-113.0,-45.0,1880.0,1074.0,5164.0,-2934.0,-3951.0,844.0,-861.0,-3235.0,-3703.0,0.587742,0.613512,0.527256,2310.0,4546.0,9414.0,3454.0,-2580.0,-1008.0
2877.0,2802.0,2886.0,3139.0,3035.0,0.852844,0.418213,-0.283142,0.132385,141.0,-125.0,-52.0,1665.0,1444.0,4831.0,-3198.0,-3785.0,818.0,-1126.0,-2937.0,-3914.0,0.593683,0.638373,0.489798,2254.0,4860.0,7404.0,3252.0,-2842.0,-1175.0
2870.0,2800.0,2891.0,3139.0,3031.0,0.832031,0.451721,-0.30011,0.116211,122.0,-139.0,-52.0,1509.0,1878.0,4004.0,-3442.0,-3708.0,631.0,-1255.0,-2344.0,-4349.0,0.604391,0.68194,0.411663,2234.0,4732.0,4692.0,2808.0,-3180.0,-1180.0
2869.0,2800.0,2890.0,3151.0,3031.0,0.808899,0.483398,-0.320007,0.097656,123.0,-153.0,-59.0,1165.0,1482.0,2404.0,-3849.0,-4412.0,-281.0,-806.0,-1445.0,-5622.0,0.612121,0.71954,0.327776,1282.0,512.0,-74.0,2820.0,-3495.0,-1334.0
2879.0,2807.0,2933.0,3133.0,3043.0,0.795105,0.501526,-0.329651,0.087036,143.0,-157.0,-75.0,985.0,979.0,1481.0,-4024.0,-5084.0,-809.0,-350.0,-984.0,-6449.0,0.611516,0.740148,0.279569,926.0,-1154.0,-2808.0,3287.0,-3577.0,-1714.0
2875.0,2807.0,2893.0,3134.0,3035.0,0.760559,0.545532,-0.346008,0.064819,192.0,-152.0,-100.0,1253.0,241.0,47.0,-3637.0,-6189.0,-1307.0,806.0,-295.0,-7245.0,0.597042,0.784963,0.165325,3838.0,-584.0,-3310.0,4417.0,-3460.0,-2286.0
2873.0,2798.0,2890.0,3135.0,3043.0,0.740662,0.570374,-0.350769,0.054749,210.0,-136.0,-110.0,1334.0,407.0,-502.0,-3434.0,-6199.0,-1347.0,1030.0,157.0,-7137.0,0.582057,0.806499,0.103212,2866.0,2644.0,-4276.0,4828.0,-3101.0,-2507.0
2874.0,2795.0,2895.0,3139.0,3031.0,0.699646,0.619507,-0.354004,0.035156,196.0,-115.0,-102.0,641.0,2440.0,-1529.0,-3773.0,-4457.0,-1378.0,-20.0,1673.0,-5760.0,0.538914,0.84198,-0.018367,-2792.0,13362.0,-6756.0,4510.0,-2629.0,-2336.0
2871.0,2800.0,2891.0,3142.0,3031.0,0.66333,0.656799,-0.358459,0.008972,115.0,-140.0,-85.0,-726.0,5390.0,-2986.0,-4718.0,-1695.0,-2004.0,-1756.0,3692.0,-3525.0,0.48734,0.864917,-0.119791,-4096.0,18406.0,-9982.0,2642.0,-3204.0,-1939.0
2875.0,2806.0,2895.0,3135.0,3047.0,0.648499,0.669678,-0.361755,-0.00824,78.0,-145.0,-92.0,-839.0,6319.0,-3553.0,-4592.0,-845.0,-2252.0,-1907.0,4129.0,-2485.0,0.45816,0.874532,-0.158717,-1764.0,17504.0,-10390.0,1788.0,-3318.0,-2103.0
2877.0,2810.0,2902.0,3141.0,3039.0,0.623779,0.690002,-0.364258,-0.04541,46.0,-126.0,-120.0,-189.0,6589.0,-4723.0,-3398.0,-733.0,-2940.0,-634.0,4302.0,-1346.0,0.391767,0.893901,-0.217624,2188.0,11648.0,-13402.0,1060.0,-2875.0,-2742.0
2869.0,2802.0,2897.0,3135.0,3039.0,0.59729,0.712158,-0.360901,-0.075867,80.0,-90.0,-120.0,579.0,6092.0,-6198.0,-2067.0,-1325.0,-3945.0,1183.0,4424.0,-783.0,0.323067,0.905491,-0.274908,3156.0,11808.0,-16740.0,1836.0,-2053.0,-2747.0
2871.0,2807.0,2903.0,3139.0,3039.0,0.565186,0.73822,-0.355896,-0.094421,115.0,-67.0,-90.0,327.0,7297.0,-7621.0,-1826.0,-89.0,-4808.0,1310.0,4852.0,1090.0,0.262887,0.901671,-0.343281,-1502.0,20786.0,-19386.0,2655.0,-1530.0,-2042.0
2871.0,2800.0,2895.0,3143.0,3047.0,0.548584,0.750183,-0.354797,-0.10199,112.0,-71.0,-72.0,59.0,8672.0,-8158.0,-1876.0,1336.0,-5067.0,821.0,4816.0,2664.0,0.23625,0.895448,-0.37731,-1006.0,26116.0,-19082.0,2568.0,-1609.0,-1635.0
2871.0,2803.0,2893.0,3143.0,3037.0,0.522278,0.766846,-0.354187,-0.116943,68.0,-65.0,-57.0,611.0,11514.0,-8324.0,-950.0,4273.0,-4825.0,165.0,3227.0,5656.0,0.190613,0.883853,-0.427051,4088.0,30548.0,-16296.0,1577.0,-1480.0,-1295.0
2875.0,2803.0,2897.0,3135.0,3031.0,0.508911,0.774719,-0.35199,-0.129944,21.0,-42.0,-48.0,1674.0,12905.0,-8018.0,388.0,5696.0,-4346.0,357.0,1432.0,7021.0,0.156923,0.880004,-0.448211,6276.0,27768.0,-14796.0,494.0,-959.0,-1082.0
2875.0,2805.0,2907.0,3133.0,3039.0,0.505554,0.776794,-0.350342,-0.134827,10.0,-30.0,-42.0,2008.0,12994.0,-7811.0,822.0,5785.0,-4105.0,544.0,869.0,7066.0,0.144768,0.879894,-0.452386,5670.0,26130.0,-14420.0,238.0,-686.0,-951.0
2875.0,2815.0,2894.0,3127.0,3039.0,0.501343,0.779663,-0.347351,-0.141663,5.0,-19.0,-27.0,2370.0,12476.0,-7224.0,1326.0,5265.0,-3479.0,829.0,123.0,6393.0,0.127386,0.88017,-0.457114,6196.0,22664.0,-11358.0,125.0,-415.0,-597.0
2883.0,2799.0,2889.0,3151.0,3031.0,0.499695,0.780823,-0.34668,-0.142883,13.0,-9.0,-18.0,2503.0,12108.0,-6846.0,1492.0,4903.0,-3079.0,871.0,-199.0,5911.0,0.123335,0.879416,-0.45976,5572.0,22076.0,-11624.0,302.0,-204.0,-396.0
2869.0,2799.0,2889.0,3143.0,3027.0,0.497009,0.782471,-0.346863,-0.142578,13.0,-3.0,-2.0,2571.0,11690.0,-5898.0,1574.0,4508.0,-2086.0,507.0,-857.0,5114.0,0.121662,0.876701,-0.465227,4932.0,22584.0,-8798.0,310.0,-59.0,-41.0
2873.0,2802.0,2895.0,3143.0,3037.0,0.497498,0.781982,-0.347534,-0.141968,-2.0,-2.0,3.0,2318.0,11471.0,-4959.0,1304.0,4288.0,-1152.0,-134.0,-1239.0,4456.0,0.123762,0.876746,-0.464618,3656.0,22144.0,-7278.0,-25.0,-31.0,89.0
2877.0,2809.0,2894.0,3135.0,3047.0,0.499146,0.780701,-0.3479,-0.142456,-12.0,-4.0,5.0,2143.0,11270.0,-4560.0,1120.0,4073.0,-782.0,-384.0,-1293.0,4078.0,0.124875,0.878488,-0.461088,3228.0,21208.0,-6798.0,-272.0,-73.0,131.0
2878.0,2815.0,2895.0,3135.0,3031.0,0.505066,0.77594,-0.348816,-0.145447,-34.0,-10.0,8.0,1770.0,10641.0,-4002.0,732.0,3388.0,-336.0,-619.0,-1109.0,3242.0,0.126634,0.88527,-0.447509,2546.0,18898.0,-6616.0,-778.0,-211.0,185.0
2875.0,2801.0,2890.0,3141.0,3027.0,0.50885,0.772644,-0.349548,-0.147644,-40.0,-12.0,10.0,1681.0,10042.0,-3870.0,635.0,2754.0,-278.0,-459.0,-903.0,2652.0,0.127583,0.889537,-0.438436,3040.0,15990.0,-7094.0,-913.0,-259.0,235.0
2867.0,2801.0,2899.0,3151.0,3039.0,0.514709,0.766968,-0.352844,-0.149292,-23.0,-5.0,19.0,1805.0,8287.0,-3772.0,705.0,956.0,-286.0,296.0,-505.0,1071.0,0.13422,0.894885,-0.425525,4024.0,11444.0,-7374.0,-506.0,-110.0,454.0
2871.0,2806.0,2886.0,3135.0,3038.0,0.516357,0.764465,-0.357666,-0.144897,5.0,7.0,26.0,1768.0,7392.0,-3636.0,556.0,75.0,-156.0,452.0,-296.0,215.0,0.147829,0.893124,-0.424712,2602.0,13846.0,-6898.0,120.0,179.0,618.0
2878.0,2813.0,2899.0,3139.0,3051.0,0.516357,0.76416,-0.359497,-0.142212,8.0,8.0,22.0,1439.0,7474.0,-3625.0,178.0,171.0,-132.0,133.0,-68.0,236.0,0.153913,0.891409,-0.42633,672.0,15836.0,-7272.0,197.0,206.0,520.0
2871.0,2810.0,2903.0,3134.0,3039.0,0.517151,0.762817,-0.361389,-0.141296,-11.0,-5.0,10.0,919.0,7976.0,-3573.0,-377.0,676.0,-90.0,-484.0,186.0,580.0,0.158219,0.891109,-0.425083,872.0,17406.0,-6978.0,-234.0,-92.0,245.0
2877.0,2803.0,2891.0,3143.0,3039.0,0.51886,0.761047,-0.362122,-0.142883,-25.0,-11.0,8.0,809.0,8090.0,-3619.0,-487.0,772.0,-172.0,-548.0,304.0,684.0,0.158299,0.893236,-0.420694,1144.0,16506.0,-7634.0,-550.0,-230.0,185.0
2869.0,2799.0,2899.0,3147.0,3029.0,0.523438,0.755859,-0.364441,-0.147583,-33.0,-16.0,11.0,980.0,7533.0,-3795.0,-317.0,169.0,-449.0,-14.0,499.0,285.0,0.15842,0.898861,-0.408373,2914.0,12516.0,-8074.0,-751.0,-362.0,255.0
2871.0,2813.0,2902.0,3143.0,3039.0,0.525146,0.753479,-0.366394,-0.148865,-25.0,-13.0,15.0,1162.0,7097.0,-3879.0,-152.0,-279.0,-569.0,352.0,546.0,-45.0,0.160488,0.90046,-0.404036,3474.0,11614.0,-8224.0,-559.0,-296.0,354.0
2875.0,2811.0,2903.0,3143.0,3039.0,0.526367,0.75061,-0.371216,-0.147339,-1.0,-2.0,23.0,1472.0,6674.0,-3931.0,82.0,-695.0,-634.0,723.0,491.0,-356.0,0.169603,0.899582,-0.402446,3420.0,13030.0,-8028.0,-14.0,-44.0,541.0
2871.0,2806.0,2890.0,3143.0,3035.0,0.526001,0.749939,-0.373901,-0.145142,6.0,0.0,26.0,1492.0,6794.0,-3940.0,53.0,-558.0,-626.0,646.0,481.0,-238.0,0.17565,0.897475,-0.404468,3008.0,14608.0,-7860.0,157.0,8.0,617.0
2871.0,2803.0,2894.0,3152.0,3031.0,0.524841,0.748718,-0.379456,-0.141235,7.0,-6.0,28.0,1340.0,7443.0,-3993.0,-190.0,126.0,-641.0,210.0,550.0,339.0,0.186817,0.893102,-0.40916,2216.0,17248.0,-8286.0,169.0,-119.0,657.0
2875.0,2813.0,2901.0,3143.0,3031.0,0.524536,0.747314,-0.382935,-0.140381,0.0,-13.0,32.0,1282.0,7834.0,-4044.0,-290.0,530.0,-683.0,-1.0,587.0,697.0,0.191909,0.8915,-0.410273,2204.0,17944.0,-8416.0,3.0,-296.0,735.0
2875.0,2814.0,2899.0,3135.0,3043.0,0.524414,0.742065,-0.392456,-0.142273,-16.0,-39.0,41.0,926.0,8307.0,-4313.0,-716.0,1016.0,-958.0,-309.0,1018.0,1152.0,0.200467,0.889971,-0.409431,798.0,17588.0,-9652.0,-351.0,-883.0,959.0
2871.0,2803.0,2886.0,3135.0,3037.0,0.524109,0.737854,-0.399597,-0.145325,-23.0,-57.0,50.0,959.0,8332.0,-4444.0,-715.0,1044.0,-1099.0,-216.0,1115.0,1231.0,0.204408,0.889574,-0.408297,2636.0,16440.0,-9512.0,-512.0,-1299.0,1155.0
2870.0,2799.0,2895.0,3146.0,3047.0,0.523926,0.725708,-0.419617,-0.150696,-26.0,-68.0,78.0,2003.0,7994.0,-4435.0,192.0,728.0,-1112.0,519.0,485.0,1139.0,0.220974,0.886903,-0.405523,7654.0,14728.0,-8566.0,-585.0,-1557.0,1788.0
2871.0,2811.0,2899.0,3147.0,3046.0,0.524109,0.718323,-0.431824,-0.151062,-21.0,-65.0,93.0,2432.0,7850.0,-4319.0,501.0,612.0,-1001.0,678.0,185.0,1064.0,0.235623,0.883423,-0.404949,7026.0,15092.0,-7810.0,-472.0,-1481.0,2132.0
2874.0,2797.0,2895.0,3141.0,3047.0,0.524719,0.702454,-0.456848,-0.149841,-19.0,-59.0,100.0,2981.0,8220.0,-3758.0,778.0,1059.0,-445.0,212.0,-388.0,1314.0,0.268921,0.874091,-0.404369,7608.0,19014.0,-4762.0,-425.0,-1341.0,2302.0
2867.0,2758.0,2899.0,3151.0,3029.0,0.53064,0.68573,-0.475159,-0.149658,-44.0,-31.0,76.0,3650.0,9122.0,-3087.0,1200.0,1995.0,124.0,-466.0,-1015.0,2045.0,0.299026,0.869974,-0.392025,8718.0,19992.0,-5474.0,-1007.0,-698.0,1751.0
2865.0,2742.0,2891.0,3143.0,3027.0,0.535889,0.67688,-0.481689,-0.15033,-62.0,-25.0,70.0,3620.0,9192.0,-3164.0,1057.0,2062.0,-47.0,-459.0,-753.0,2142.0,0.312754,0.870289,-0.380415,6498.0,18290.0,-6994.0,-1414.0,-556.0,1614.0
2875.0,2759.0,2895.0,3139.0,3031.0,0.545715,0.658264,-0.494385,-0.156311,-76.0,-46.0,63.0,3238.0,8516.0,-3383.0,503.0,1364.0,-470.0,-72.0,-32.0,1525.0,0.333799,0.873005,-0.35549,5990.0,14224.0,-7056.0,-1732.0,-1052.0,1450.0
2867.0,2739.0,2896.0,3139.0,3039.0,0.549377,0.648499,-0.50177,-0.160767,-74.0,-58.0,62.0,3298.0,8030.0,-3369.0,489.0,871.0,-545.0,218.0,-10.0,1116.0,0.342808,0.873877,-0.344662,7216.0,13308.0,-6594.0,-1675.0,-1310.0,1424.0
2871.0,2746.0,2903.0,3143.0,3031.0,0.553955,0.628784,-0.518372,-0.170349,-66.0,-73.0,60.0,3723.0,7380.0,-3274.0,773.0,226.0,-585.0,669.0,-311.0,667.0,0.360083,0.873245,-0.328194,9296.0,13144.0,-6034.0,-1490.0,-1651.0,1381.0
2882.0,2741.0,2896.0,3149.0,3039.0,0.556335,0.610596,-0.533875,-0.180603,-57.0,-69.0,40.0,4432.0,7137.0,-2995.0,1372.0,-8.0,-408.0,836.0,-973.0,634.0,0.373476,0.872231,-0.315723,11384.0,14268.0,-4806.0,-1298.0,-1572.0,937.0
2877.0,2736.0,2895.0,3147.0,3031.0,0.557495,0.602905,-0.53949,-0.185974,-56.0,-60.0,25.0,4820.0,7085.0,-2813.0,1729.0,-65.0,-280.0,862.0,-1364.0,682.0,0.377276,0.872896,-0.309157,11764.0,13608.0,-4642.0,-1263.0,-1362.0,582.0
2865.0,2735.0,2896.0,3143.0,3031.0,0.559692,0.591125,-0.546143,-0.197449,-54.0,-49.0,0.0,5048.0,6926.0,-2622.0,1952.0,-261.0,-201.0,915.0,-1660.0,568.0,0.37791,0.877367,-0.29546,10216.0,13610.0,-4588.0,-1217.0,-1103.0,5.0
2871.0,2746.0,2899.0,3147.0,3031.0,0.560669,0.586243,-0.547913,-0.204346,-56.0,-48.0,-10.0,5042.0,6760.0,-2517.0,1971.0,-459.0,-159.0,948.0,-1754.0,379.0,0.374803,0.881303,-0.287782,9956.0,12130.0,-4412.0,-1269.0,-1085.0,-221.0
2875.0,2751.0,2898.0,3139.0,3039.0,0.560486,0.577515,-0.552063,-0.218079,-42.0,-58.0,-8.0,4902.0,5859.0,-2252.0,1895.0,-1416.0,13.0,1105.0,-2013.0,-565.0,0.36696,0.888164,-0.276594,9786.0,9020.0,-3180.0,-952.0,-1325.0,-166.0
2871.0,2751.0,2897.0,3139.0,3039.0,0.556458,0.569519,-0.559753,-0.229492,-18.0,-67.0,-4.0,4514.0,5480.0,-1681.0,1552.0,-1816.0,574.0,602.0,-2048.0,-1214.0,0.361558,0.890744,-0.275364,7070.0,10674.0,-1910.0,-398.0,-1515.0,-80.0
2870.0,2743.0,2899.0,3135.0,3031.0,0.55304,0.566956,-0.563416,-0.234985,-11.0,-65.0,-10.0,4390.0,5535.0,-1483.0,1467.0,-1771.0,792.0,340.0,-2042.0,-1276.0,0.35673,0.891887,-0.277805,8522.0,11612.0,-1820.0,-251.0,-1482.0,-216.0
2864.0,2741.0,2897.0,3151.0,3039.0,0.548401,0.562866,-0.567932,-0.244629,-16.0,-42.0,-15.0,4065.0,5636.0,-1243.0,1218.0,-1697.0,1040.0,-18.0,-1877.0,-1385.0,0.347522,0.895218,-0.278778,5834.0,11786.0,-2312.0,-346.0,-940.0,-332.0
2875.0,2743.0,2909.0,3147.0,3039.0,0.546204,0.560364,-0.567261,-0.256714,-36.0,-33.0,-32.0,2689.0,5935.0,-1206.0,-30.0,-1465.0,1018.0,-409.0,-651.0,-1609.0,0.331973,0.903393,-0.271552,530.0,12318.0,-2350.0,-819.0,-754.0,-724.0
2875.0,2749.0,2899.0,3143.0,3031.0,0.545105,0.559875,-0.564758,-0.265442,-43.0,-34.0,-47.0,1853.0,5718.0,-1325.0,-755.0,-1738.0,844.0,-341.0,30.0,-2045.0,0.318476,0.910203,-0.264814,-1244.0,9524.0,-3616.0,-969.0,-772.0,-1068.0
2875.0,2751.0,2910.0,3143.0,3043.0,0.539612,0.56189,-0.55957,-0.282776,-21.0,-35.0,-57.0,860.0,4835.0,-1535.0,-1483.0,-2725.0,576.0,33.0,649.0,-3087.0,0.286124,0.922871,-0.257696,-694.0,7622.0,-3220.0,-459.0,-796.0,-1283.0
2871.0,2743.0,2899.0,3143.0,3031.0,0.531372,0.568298,-0.554749,-0.294739,6.0,-20.0,-53.0,88.0,4962.0,-1565.0,-1997.0,-2664.0,577.0,-108.0,1244.0,-3139.0,0.254557,0.930968,-0.261482,-1480.0,11688.0,-2898.0,144.0,-446.0,-1208.0
2871.0,2743.0,2896.0,3147.0,3030.0,0.527832,0.572388,-0.551697,-0.29895,9.0,-7.0,-50.0,-325.0,5368.0,-1584.0,-2292.0,-2284.0,578.0,-299.0,1633.0,-2836.0,0.240176,0.934109,-0.264019,-3592.0,13326.0,-3570.0,208.0,-157.0,-1132.0
2877.0,2743.0,2907.0,3157.0,3031.0,0.521423,0.580688,-0.544861,-0.306702,2.0,-6.0,-39.0,-1648.0,6242.0,-1992.0,-3384.0,-1456.0,204.0,-471.0,2968.0,-2140.0,0.21201,0.939789,-0.268124,-7348.0,15176.0,-5168.0,58.0,-123.0,-892.0
2875.0,2743.0,2903.0,3143.0,3035.0,0.515747,0.584778,-0.539795,-0.317261,-17.0,-23.0,-27.0,-2498.0,7080.0,-2276.0,-4019.0,-667.0,-91.0,-580.0,3799.0,-1353.0,0.185741,0.945706,-0.266694,-6628.0,15918.0,-5322.0,-376.0,-512.0,-613.0
2877.0,2751.0,2907.0,3150.0,3035.0,0.513428,0.584839,-0.53833,-0.323303,-23.0,-30.0,-20.0,-2580.0,7212.0,-2421.0,-4010.0,-559.0,-260.0,-438.0,3862.0,-1161.0,0.174627,0.948633,-0.263703,-5152.0,14872.0,-5640.0,-511.0,-671.0,-450.0
2870.0,2741.0,2897.0,3147.0,3031.0,0.509827,0.58252,-0.538147,-0.333313,-20.0,-30.0,-5.0,-2037.0,7246.0,-2506.0,-3351.0,-558.0,-393.0,-136.0,3276.0,-967.0,0.160401,0.952711,-0.25791,-1808.0,14866.0,-5072.0,-441.0,-666.0,-95.0
2871.0,2743.0,2901.0,3149.0,3045.0,0.50824,0.580322,-0.53833,-0.339172,-13.0,-12.0,-4.0,-1277.0,7151.0,-2636.0,-2534.0,-672.0,-561.0,233.0,2518.0,-888.0,0.153543,0.955059,-0.253228,-914.0,13242.0,-6108.0,-286.0,-259.0,-88.0
2871.0,2754.0,2901.0,3147.0,3039.0,0.507141,0.580811,-0.537964,-0.340576,-4.0,-5.0,-8.0,-1086.0,6942.0,-2867.0,-2315.0,-885.0,-789.0,552.0,2339.0,-992.0,0.150027,0.955541,-0.253562,-1056.0,12606.0,-7156.0,-69.0,-108.0,-175.0
2875.0,2751.0,2896.0,3151.0,3031.0,0.503479,0.584656,-0.53717,-0.340759,14.0,3.0,-13.0,-747.0,6917.0,-3063.0,-1913.0,-904.0,-926.0,762.0,1988.0,-894.0,0.142454,0.954815,-0.260766,-1182.0,14740.0,-6466.0,331.0,81.0,-287.0
2847.0,2750.0,2901.0,3139.0,3039.0,0.501221,0.587158,-0.53656,-0.340759,14.0,1.0,-15.0,-698.0,7140.0,-3070.0,-1826.0,-677.0,-896.0,685.0,1921.0,-659.0,0.137711,0.954267,-0.265312,-902.0,15720.0,-5934.0,343.0,30.0,-321.0
2871.0,2743.0,2894.0,3139.0,3043.0,0.498108,0.589905,-0.535645,-0.342041,1.0,-5.0,-8.0,-187.0,7703.0,-2753.0,-1252.0,-112.0,-542.0,299.0,1329.0,-123.0,0.130074,0.954097,-0.269799,1400.0,16892.0,-4542.0,44.0,-108.0,-181.0
2869.0,2743.0,2897.0,3155.0,3031.0,0.497803,0.589722,-0.535461,-0.343079,-6.0,-7.0,-3.0,103.0,7843.0,-2614.0,-949.0,23.0,-410.0,196.0,1015.0,10.0,0.128467,0.954541,-0.26898,1956.0,16346.0,-4412.0,-132.0,-146.0,-66.0
2879.0,2751.0,2899.0,3151.0,3035.0,0.498718,0.587891,-0.535278,-0.345093,-12.0,-3.0,1.0,642.0,7803.0,-2415.0,-407.0,-27.0,-249.0,164.0,448.0,-12.0,0.128153,0.955825,-0.264329,2536.0,14840.0,-4660.0,-255.0,-64.0,30.0
2871.0,2747.0,2899.0,3133.0,3039.0,0.499268,0.587341,-0.535156,-0.345459,-7.0,-1.0,0.0,759.0,7558.0,-2453.0,-294.0,-275.0,-300.0,304.0,331.0,-221.0,0.128568,0.95623,-0.262752,2072.0,13422.0,-5254.0,-150.0,0.0,7.0
2871.0,2751.0,2897.0,3151.0,3037.0,0.497925,0.588928,-0.5354,-0.34436,13.0,2.0,-5.0,877.0,7312.0,-2456.0,-168.0,-513.0,-268.0,367.0,186.0,-439.0,0.127571,0.955225,-0.266977,2058.0,14948.0,-4522.0,305.0,66.0,-110.0
2871.0,2746.0,2903.0,3147.0,3031.0,0.496704,0.590454,-0.5354,-0.343445,16.0,3.0,-7.0,848.0,7492.0,-2407.0,-186.0,-325.0,-190.0,237.0,200.0,-282.0,0.126294,0.954323,-0.27062,1414.0,16248.0,-4564.0,375.0,82.0,-142.0
2874.0,2751.0,2901.0,3151.0,3031.0,0.494507,0.592712,-0.5354,-0.342773,8.0,-2.0,-5.0,871.0,8045.0,-2281.0,-138.0,236.0,-20.0,-77.0,153.0,213.0,0.123186,0.953243,-0.275931,2214.0,17710.0,-4174.0,187.0,-45.0,-96.0
2871.0,2750.0,2899.0,3147.0,3049.0,0.494202,0.592773,-0.535461,-0.343018,1.0,-4.0,-2.0,984.0,8250.0,-2228.0,-20.0,441.0,34.0,-166.0,39.0,408.0,0.122588,0.953245,-0.276203,2640.0,17580.0,-4182.0,32.0,-72.0,-29.0
2871.0,2755.0,2898.0,3135.0,3042.0,0.49469,0.591492,-0.535583,-0.344421,-10.0,-6.0,1.0,1078.0,8410.0,-2285.0,74.0,593.0,-45.0,-117.0,-24.0,587.0,0.122451,0.954143,-0.273368,2546.0,16822.0,-4662.0,-222.0,-126.0,25.0
2869.0,2742.0,2904.0,3147.0,3043.0,0.4953,0.590515,-0.535522,-0.345276,-11.0,-4.0,1.0,1168.0,8355.0,-2293.0,162.0,533.0,-73.0,-55.0,-107.0,548.0,0.122708,0.954771,-0.270955,2820.0,16314.0,-4630.0,-244.0,-79.0,27.0
2877.0,2751.0,2906.0,3149.0,3047.0,0.49646,0.589233,-0.535217,-0.346252,-8.0,-2.0,1.0,1049.0,8146.0,-2401.0,38.0,316.0,-211.0,114.0,29.0,363.0,0.123381,0.955702,-0.26729,1434.0,15546.0,-5148.0,-165.0,-24.0,40.0
2870.0,2719.0,2896.0,3139.0,3039.0,0.496582,0.588806,-0.535339,-0.346619,-4.0,-3.0,2.0,995.0,8041.0,-2426.0,-16.0,210.0,-242.0,164.0,81.0,263.0,0.123497,0.955898,-0.266543,1800.0,15528.0,-4902.0,-87.0,-66.0,67.0
2877.0,2757.0,2899.0,3135.0,3037.0,0.49646,0.587891,-0.536438,-0.34668,0.0,-4.0,4.0,969.0,8036.0,-2391.0,-55.0,207.0,-206.0,124.0,111.0,245.0,0.12502,0.955673,-0.266722,1758.0,16176.0,-4672.0,1.0,-85.0,109.0
2876.0,2753.0,2897.0,3149.0,3045.0,0.496277,0.587585,-0.536926,-0.346619,0.0,-3.0,4.0,952.0,8012.0,-2407.0,-76.0,185.0,-218.0,137.0,132.0,225.0,0.125592,0.955427,-0.267111,1836.0,15798.0,-4958.0,20.0,-66.0,97.0
2877.0,2750.0,2897.0,3149.0,3039.0,0.49585,0.587463,-0.537842,-0.345947,3.0,-1.0,2.0,989.0,7957.0,-2425.0,-50.0,135.0,-222.0,160.0,104.0,182.0,0.126915,0.954717,-0.268841,2142.0,15810.0,-4788.0,72.0,-2.0,64.0
2871.0,2755.0,2898.0,3135.0,3039.0,0.495789,0.587524,-0.538147,-0.34552,2.0,1.0,2.0,1023.0,7943.0,-2435.0,-22.0,124.0,-226.0,172.0,77.0,176.0,0.127611,0.954457,-0.269597,2276.0,15794.0,-4890.0,64.0,23.0,58.0
2871.0,2751.0,2901.0,3135.0,3039.0,0.496033,0.587463,-0.538574,-0.344666,-1.0,2.0,3.0,1027.0,7850.0,-2445.0,-32.0,34.0,-230.0,200.0,82.0,90.0,0.129344,0.954058,-0.270333,1778.0,15312.0,-4978.0,-10.0,49.0,74.0
2871.0,2753.0,2903.0,3151.0,3035.0,0.496216,0.587341,-0.538696,-0.344421,-2.0,1.0,3.0,974.0,7752.0,-2463.0,-91.0,-62.0,-248.0,234.0,136.0,-3.0,0.130033,0.953973,-0.270307,1642.0,14854.0,-4974.0,-29.0,25.0,77.0
2875.0,2753.0,2902.0,3147.0,3039.0,0.496033,0.587036,-0.539307,-0.344238,0.0,-3.0,3.0,754.0,7591.0,-2495.0,-318.0,-221.0,-275.0,265.0,351.0,-177.0,0.130867,0.953678,-0.270915,798.0,14866.0,-5106.0,6.0,-67.0,84.0
2877.0,2750.0,2899.0,3135.0,3047.0,0.495605,0.586792,-0.539856,-0.34436,1.0,-6.0,4.0,709.0,7596.0,-2465.0,-363.0,-214.0,-240.0,222.0,388.0,-186.0,0.130975,0.953445,-0.27156,1266.0,15460.0,-4636.0,26.0,-121.0,101.0
2871.0,2754.0,2901.0,3139.0,3039.0,0.495117,0.585938,-0.540894,-0.344849,-2.0,-5.0,3.0,808.0,7745.0,-2361.0,-269.0,-64.0,-134.0,97.0,285.0,-59.0,0.131492,0.953268,-0.271827,2256.0,15706.0,-4462.0,-32.0,-109.0,70.0
2871.0,2751.0,2898.0,3147.0,3039.0,0.495178,0.58551,-0.541199,-0.345032,-3.0,-3.0,1.0,962.0,7765.0,-2325.0,-118.0,-44.0,-101.0,87.0,132.0,-30.0,0.13194,0.953325,-0.27147,2934.0,15618.0,-4466.0,-50.0,-55.0,43.0
2874.0,2751.0,2902.0,3151.0,3039.0,0.496094,0.585388,-0.540771,-0.344666,-3.0,6.0,-2.0,1225.0,7765.0,-2331.0,135.0,-46.0,-117.0,147.0,-110.0,5.0,0.13302,0.953585,-0.27021,2824.0,15478.0,-4856.0,-59.0,158.0,-42.0
2878.0,2751.0,2901.0,3139.0,3039.0,0.496704,0.585876,-0.539978,-0.344177,-3.0,9.0,-4.0,1176.0,7714.0,-2388.0,85.0,-98.0,-178.0,211.0,-52.0,-34.0,0.133128,0.953711,-0.269655,1822.0,14980.0,-5212.0,-53.0,228.0,-77.0
2874.0,2753.0,2899.0,3143.0,3038.0,0.496826,0.587158,-0.538818,-0.343628,1.0,2.0,-2.0,855.0,7582.0,-2483.0,-225.0,-231.0,-269.0,278.0,259.0,-177.0,0.13187,0.953737,-0.270164,1060.0,15118.0,-4850.0,41.0,55.0,-30.0
2871.0,2751.0,2897.0,3152.0,3039.0,0.49646,0.58728,-0.539001,-0.343628,2.0,-3.0,1.0,825.0,7689.0,-2407.0,-252.0,-122.0,-188.0,166.0,276.0,-98.0,0.131573,0.953554,-0.270868,1600.0,16176.0,-4282.0,46.0,-50.0,39.0
2875.0,2755.0,2902.0,3155.0,3039.0,0.496399,0.586182,-0.539856,-0.344238,-4.0,-6.0,4.0,872.0,7854.0,-2274.0,-212.0,41.0,-61.0,7.0,222.0,27.0,0.132396,0.953638,-0.270141,1990.0,15814.0,-4264.0,-80.0,-133.0,107.0
2876.0,2757.0,2897.0,3139.0,3047.0,0.496521,0.585388,-0.540344,-0.344666,-4.0,-6.0,4.0,961.0,7826.0,-2226.0,-129.0,12.0,-19.0,-8.0,130.0,0.0,0.133058,0.953791,-0.269324,2528.0,15462.0,-4144.0,-91.0,-131.0,108.0
2873.0,2751.0,2899.0,3141.0,3039.0,0.497253,0.583923,-0.541077,-0.344971,-4.0,-2.0,3.0,1155.0,7771.0,-2129.0,47.0,-44.0,62.0,-37.0,-62.0,-52.0,0.135232,0.954027,-0.267465,2740.0,15280.0,-4004.0,-90.0,-27.0,89.0
2871.0,2751.0,2903.0,3151.0,3039.0,0.497681,0.583557,-0.541077,-0.344971,-4.0,1.0,1.0,1181.0,7679.0,-2121.0,67.0,-137.0,63.0,-7.0,-89.0,-138.0,0.135947,0.954161,-0.266612,2442.0,14708.0,-4250.0,-72.0,33.0,38.0
2875.0,2751.0,2907.0,3151.0,3043.0,0.498047,0.583862,-0.540649,-0.344604,1.0,3.0,-3.0,1148.0,7463.0,-2163.0,32.0,-353.0,19.0,89.0,-63.0,-337.0,0.136134,0.954202,-0.266394,2082.0,14354.0,-4528.0,33.0,85.0,-55.0
2873.0,2753.0,2898.0,3135.0,3043.0,0.497864,0.584534,-0.540344,-0.344238,3.0,3.0,-4.0,1069.0,7412.0,-2203.0,-41.0,-403.0,-13.0,121.0,10.0,-386.0,0.135598,0.954051,-0.267283,1588.0,14608.0,-4698.0,86.0,90.0,-83.0
2871.0,2751.0,2895.0,3139.0,3039.0,0.496826,0.586304,-0.539673,-0.343811,5.0,2.0,-5.0,814.0,7483.0,-2356.0,-276.0,-329.0,-144.0,181.0,274.0,-311.0,0.133092,0.953673,-0.269957,806.0,15244.0,-5294.0,118.0,62.0,-114.0
2875.0,2753.0,2899.0,3151.0,3043.0,0.496033,0.587219,-0.539368,-0.34375,4.0,1.0,-5.0,703.0,7555.0,-2465.0,-373.0,-255.0,-240.0,232.0,395.0,-226.0,0.131375,0.953375,-0.271531,832.0,15616.0,-5508.0,113.0,38.0,-111.0
2873.0,2757.0,2906.0,3153.0,3045.0,0.495056,0.588501,-0.538696,-0.344116,-2.0,0.0,-5.0,634.0,7823.0,-2509.0,-417.0,12.0,-272.0,175.0,464.0,32.0,0.128344,0.95343,-0.273031,1174.0,16348.0,-5068.0,-24.0,18.0,-102.0
2873.0,2753.0,2897.0,3143.0,3045.0,0.495056,0.588684,-0.538086,-0.344727,-6.0,0.0,-5.0,668.0,7871.0,-2495.0,-371.0,57.0,-265.0,164.0,421.0,79.0,0.126895,0.953848,-0.272168,1694.0,15886.0,-4790.0,-125.0,1.0,-97.0
2877.0,2753.0,2898.0,3143.0,3043.0,0.496094,0.587708,-0.537109,-0.346436,-12.0,-2.0,-1.0,839.0,7735.0,-2385.0,-190.0,-90.0,-191.0,170.0,219.0,-58.0,0.125708,0.955264,-0.26776,2214.0,14782.0,-4486.0,-264.0,-43.0,-21.0
2871.0,2757.0,2907.0,3151.0,3045.0,0.496704,0.586975,-0.536743,-0.347351,-12.0,-3.0,-2.0,926.0,7584.0,-2338.0,-101.0,-247.0,-164.0,206.0,115.0,-205.0,0.125432,0.955983,-0.265265,2352.0,14198.0,-4398.0,-260.0,-56.0,-25.0
2878.0,2758.0,2907.0,3151.0,3039.0,0.497131,0.586426,-0.536194,-0.34845,-3.0,-1.0,-5.0,1107.0,7154.0,-2310.0,87.0,-683.0,-156.0,355.0,-99.0,-601.0,0.124438,0.956734,-0.262842,2636.0,13116.0,-4582.0,-60.0,-11.0,-98.0
2871.0,2753.0,2896.0,3135.0,3039.0,0.496826,0.586914,-0.536133,-0.348267,3.0,1.0,-5.0,1156.0,7071.0,-2299.0,140.0,-765.0,-138.0,372.0,-160.0,-678.0,0.123924,0.956623,-0.263781,2570.0,13948.0,-4494.0,88.0,25.0,-103.0
2874.0,2755.0,2897.0,3139.0,3039.0,0.49585,0.58844,-0.536011,-0.347107,7.0,3.0,-3.0,1122.0,7318.0,-2219.0,113.0,-510.0,-29.0,194.0,-137.0,-465.0,0.123058,0.955662,-0.267219,1872.0,15676.0,-4176.0,182.0,87.0,-60.0
2875.0,2755.0,2906.0,3153.0,3043.0,0.495544,0.589111,-0.535889,-0.346619,5.0,3.0,-2.0,1015.0,7529.0,-2193.0,9.0,-297.0,6.0,81.0,-29.0,-284.0,0.122719,0.95536,-0.26852,1368.0,16368.0,-4266.0,132.0,82.0,-36.0
2875.0,2757.0,2905.0,3153.0,3039.0,0.495422,0.589661,-0.5354,-0.346741,-2.0,0.0,-2.0,882.0,7764.0,-2184.0,-113.0,-63.0,17.0,-18.0,102.0,-78.0,0.12158,0.955552,-0.268681,1470.0,15802.0,-4454.0,-39.0,8.0,-36.0
2871.0,2753.0,2898.0,3135.0,3039.0,0.495422,0.5896,-0.535156,-0.347168,-4.0,-2.0,-2.0,838.0,7760.0,-2210.0,-152.0,-69.0,-14.0,4.0,146.0,-80.0,0.120877,0.95578,-0.268051,1422.0,15436.0,-4604.0,-78.0,-38.0,-42.0
2875.0,2755.0,2897.0,3141.0,3039.0,0.495117,0.589233,-0.535095,-0.348328,-2.0,-5.0,-2.0,888.0,7688.0,-2230.0,-89.0,-145.0,-42.0,64.0,86.0,-138.0,0.119377,0.956256,-0.26705,2000.0,15178.0,-4526.0,-43.0,-99.0,-38.0
2878.0,2759.0,2907.0,3152.0,3043.0,0.494751,0.589172,-0.535278,-0.348694,0.0,-5.0,-1.0,903.0,7674.0,-2249.0,-70.0,-159.0,-59.0,88.0,70.0,-144.0,0.118777,0.956284,-0.267281,1864.0,15310.0,-4590.0,10.0,-92.0,-22.0
2875.0,2762.0,2909.0,3152.0,3039.0,0.493591,0.589355,-0.536133,-0.348633,5.0,-4.0,1.0,808.0,7684.0,-2316.0,-161.0,-144.0,-107.0,112.0,170.0,-127.0,0.118324,0.955628,-0.269601,1270.0,15468.0,-4892.0,135.0,-79.0,45.0
2870.0,2752.0,2895.0,3135.0,3039.0,0.492859,0.5896,-0.536865,-0.348145,8.0,-3.0,4.0,762.0,7752.0,-2339.0,-210.0,-71.0,-112.0,87.0,223.0,-62.0,0.118666,0.954992,-0.271737,1280.0,16034.0,-4812.0,195.0,-61.0,102.0
2871.0,2753.0,2898.0,3139.0,3039.0,0.49176,0.589783,-0.538635,-0.34668,7.0,-2.0,7.0,720.0,7991.0,-2384.0,-269.0,179.0,-123.0,14.0,299.0,172.0,0.120827,0.953531,-0.275957,1390.0,16700.0,-4814.0,164.0,-33.0,165.0
2875.0,2762.0,2903.0,3151.0,3046.0,0.491516,0.589661,-0.539307,-0.346191,4.0,-2.0,6.0,730.0,8076.0,-2397.0,-268.0,268.0,-126.0,-8.0,305.0,257.0,0.121885,0.953062,-0.277115,1608.0,16562.0,-4856.0,94.0,-31.0,148.0
2875.0,2759.0,2905.0,3155.0,3045.0,0.491638,0.589294,-0.539978,-0.345642,-1.0,1.0,2.0,909.0,8038.0,-2402.0,-103.0,233.0,-127.0,31.0,142.0,244.0,0.123578,0.952718,-0.277668,2510.0,15710.0,-4820.0,-4.0,29.0,53.0
2874.0,2753.0,2897.0,3135.0,3045.0,0.491882,0.589355,-0.539917,-0.345215,0.0,4.0,0.0,971.0,7944.0,-2430.0,-46.0,140.0,-154.0,94.0,86.0,170.0,0.124243,0.952562,-0.277729,2196.0,15260.0,-5098.0,17.0,95.0,8.0
2877.0,2751.0,2897.0,3135.0,3039.0,0.49176,0.590454,-0.539673,-0.343933,4.0,4.0,-1.0,963.0,7846.0,-2452.0,-57.0,47.0,-160.0,125.0,92.0,82.0,0.124626,0.951946,-0.279765,1834.0,15770.0,-4676.0,112.0,110.0,-7.0
2877.0,2799.0,2887.0,3143.0,3043.0,0.944641,0.268982,-0.179626,0.054688,0.0,-1.0,-1.0,2838.0,3873.0,6368.0,-183.0,-129.0,-109.0,-110.0,-53.0,-216.0,0.368785,0.488536,0.790721,5626.0,7932.0,12706.0,15.0,-18.0,-3.0
2871.0,2802.0,2898.0,3131.0,3046.0,0.944641,0.268982,-0.179626,0.054565,-1.0,-2.0,-2.0,2827.0,3904.0,6367.0,-193.0,-98.0,-110.0,-125.0,-26.0,-206.0,0.368719,0.48858,0.790707,5570.0,7992.0,12768.0,-14.0,-23.0,-25.0
2879.0,2807.0,2891.0,3139.0,3039.0,0.944763,0.268616,-0.179688,0.053833,-3.0,-2.0,-3.0,2803.0,3884.0,6363.0,-215.0,-115.0,-117.0,-140.0,-37.0,-227.0,0.368445,0.48821,0.791033,5580.0,7522.0,12736.0,-55.0,-35.0,-60.0
2877.0,2802.0,2894.0,3143.0,3031.0,0.944824,0.268372,-0.179749,0.053406,-2.0,-2.0,-3.0,2803.0,3842.0,6359.0,-214.0,-155.0,-122.0,-130.0,-68.0,-250.0,0.368327,0.487929,0.791212,5598.0,7460.0,12696.0,-44.0,-37.0,-64.0
2875.0,2799.0,2899.0,3151.0,3037.0,0.944885,0.26825,-0.179871,0.052673,0.0,-2.0,-3.0,2830.0,3808.0,6350.0,-186.0,-189.0,-132.0,-94.0,-91.0,-265.0,0.368173,0.487981,0.791271,5774.0,7618.0,12664.0,2.0,-34.0,-62.0
2875.0,2807.0,2897.0,3133.0,3047.0,0.944885,0.268372,-0.179871,0.052307,0.0,-2.0,-3.0,2834.0,3835.0,6342.0,-180.0,-165.0,-139.0,-91.0,-67.0,-256.0,0.36799,0.488344,0.791167,5670.0,7874.0,12628.0,18.0,-26.0,-56.0
2877.0,2805.0,2891.0,3135.0,3043.0,0.944763,0.268799,-0.179993,0.051758,1.0,-2.0,-2.0,2827.0,3921.0,6333.0,-187.0,-87.0,-143.0,-112.0,1.0,-224.0,0.367926,0.48927,0.790606,5682.0,8080.0,12578.0,23.0,-42.0,-37.0
2879.0,2799.0,2891.0,3151.0,3037.0,0.944702,0.268982,-0.180176,0.051575,1.0,-3.0,-2.0,2845.0,3947.0,6314.0,-171.0,-64.0,-160.0,-96.0,29.0,-220.0,0.36817,0.489631,0.790308,5826.0,8050.0,12526.0,23.0,-52.0,-23.0
2871.0,2799.0,2883.0,3143.0,3039.0,0.944519,0.26947,-0.180603,0.05127,1.0,-2.0,-1.0,2915.0,3977.0,6290.0,-106.0,-41.0,-177.0,-35.0,58.0,-198.0,0.368797,0.490521,0.789513,6004.0,8040.0,12524.0,32.0,-45.0,-15.0
2879.0,2807.0,2899.0,3143.0,3039.0,0.944397,0.269653,-0.180786,0.051147,1.0,-2.0,-1.0,2935.0,3988.0,6286.0,-88.0,-32.0,-178.0,-19.0,66.0,-188.0,0.369052,0.490826,0.789105,5974.0,8058.0,12504.0,29.0,-39.0,-18.0
2879.0,2811.0,2902.0,3142.0,3039.0,0.944275,0.269958,-0.181152,0.050842,0.0,-2.0,-2.0,2955.0,3980.0,6288.0,-72.0,-45.0,-171.0,-4.0,52.0,-183.0,0.369566,0.49141,0.788546,5932.0,7928.0,12576.0,2.0,-40.0,-28.0
2873.0,2801.0,2895.0,3185.0,3035.0,0.944275,0.269958,-0.181335,0.050659,-1.0,-2.0,-2.0,2968.0,3962.0,6292.0,-61.0,-64.0,-167.0,8.0,34.0,-185.0,0.369813,0.491457,0.788461,6024.0,7796.0,12604.0,-12.0,-35.0,-24.0
2879.0,2801.0,2901.0,3155.0,3031.0,0.944275,0.269836,-0.181519,0.050415,0.0,-1.0,-1.0,2981.0,3912.0,6287.0,-50.0,-112.0,-171.0,29.0,-4.0,-208.0,0.370014,0.491297,0.788436,5930.0,7758.0,12526.0,3.0,-5.0,-8.0
2879.0,2811.0,2897.0,3127.0,3039.0,0.944275,0.269897,-0.181519,0.050415,0.0,-1.0,0.0,2988.0,3907.0,6298.0,-43.0,-118.0,-160.0,33.0,-15.0,-200.0,0.370021,0.491412,0.788403,6058.0,7782.0,12640.0,7.0,-5.0,1.0
2877.0,2807.0,2899.0,3135.0,3043.0,0.944214,0.269958,-0.181519,0.050598,0.0,0.0,0.0,3001.0,3898.0,6329.0,-30.0,-127.0,-128.0,37.0,-40.0,-174.0,0.370103,0.491428,0.788273,5990.0,7824.0,12794.0,22.0,14.0,11.0
2886.0,2799.0,2895.0,3149.0,3031.0,0.944214,0.27002,-0.181458,0.05072,0.0,0.0,0.0,2990.0,3922.0,6361.0,-41.0,-104.0,-96.0,12.0,-37.0,-141.0,0.37006,0.491505,0.788275,5908.0,7990.0,12916.0,13.0,17.0,11.0
2879.0,2811.0,2896.0,3150.0,3039.0,0.944275,0.269897,-0.181213,0.050781,-1.0,1.0,0.0,2957.0,3925.0,6397.0,-71.0,-99.0,-62.0,-27.0,-51.0,-123.0,0.369642,0.49131,0.788551,5732.0,7842.0,12892.0,-8.0,23.0,4.0
2878.0,2815.0,2897.0,3135.0,3046.0,0.944336,0.269775,-0.18103,0.050781,-1.0,0.0,-1.0,2925.0,3934.0,6415.0,-100.0,-89.0,-46.0,-61.0,-51.0,-116.0,0.369306,0.491131,0.788798,5660.0,7948.0,12946.0,-16.0,18.0,-3.0
2877.0,2805.0,2891.0,3123.0,3045.0,0.944519,0.26947,-0.180664,0.050659,-2.0,1.0,-2.0,2873.0,3962.0,6459.0,-146.0,-58.0,-8.0,-122.0,-44.0,-88.0,0.368584,0.490735,0.789429,5530.0,8044.0,13060.0,-35.0,24.0,-25.0
2849.0,2803.0,2895.0,3151.0,3039.0,0.944641,0.269287,-0.18042,0.050354,-3.0,0.0,-2.0,2825.0,3985.0,6476.0,-189.0,-33.0,5.0,-170.0,-30.0,-81.0,0.367984,0.49059,0.789815,5380.0,8108.0,13058.0,-51.0,12.0,-42.0
2879.0,2800.0,2893.0,3151.0,3038.0,0.944885,0.268738,-0.180115,0.049561,-4.0,-1.0,-3.0,2779.0,3986.0,6492.0,-227.0,-28.0,15.0,-210.0,-30.0,-85.0,0.367013,0.49,0.790603,5512.0,7986.0,12990.0,-69.0,-13.0,-63.0
2879.0,2802.0,2896.0,3133.0,3046.0,0.945007,0.268433,-0.179993,0.049133,-3.0,-1.0,-3.0,2769.0,3970.0,6467.0,-233.0,-41.0,-12.0,-205.0,-27.0,-114.0,0.366567,0.489654,0.791,5466.0,7818.0,12774.0,-64.0,-18.0,-63.0
2877.0,2807.0,2895.0,3139.0,3045.0,0.945129,0.268127,-0.180054,0.048462,-2.0,-2.0,-2.0,2766.0,3946.0,6427.0,-235.0,-62.0,-55.0,-189.0,-22.0,-159.0,0.366336,0.489379,0.791306,5574.0,7828.0,12726.0,-25.0,-45.0,-32.0
2875.0,2805.0,2895.0,3151.0,3030.0,0.945129,0.268066,-0.180237,0.048279,-1.0,-3.0,-1.0,2777.0,3944.0,6404.0,-226.0,-64.0,-77.0,-173.0,-12.0,-175.0,0.366578,0.489312,0.791256,5596.0,7898.0,12658.0,-11.0,-61.0,-13.0
2879.0,2805.0,2893.0,3151.0,3041.0,0.945007,0.268066,-0.180969,0.047974,-2.0,-4.0,0.0,2818.0,3965.0,6377.0,-194.0,-43.0,-100.0,-140.0,17.0,-171.0,0.367755,0.489286,0.790731,5848.0,7972.0,12698.0,-24.0,-90.0,5.0
2874.0,2799.0,2894.0,3173.0,3029.0,0.944946,0.267883,-0.181458,0.047852,-2.0,-4.0,0.0,2853.0,3952.0,6366.0,-166.0,-53.0,-109.0,-109.0,13.0,-173.0,0.368572,0.488905,0.790525,5922.0,7802.0,12670.0,-36.0,-83.0,9.0
2877.0,2804.0,2901.0,3139.0,3037.0,0.944946,0.267456,-0.18219,0.047668,-2.0,-4.0,0.0,2901.0,3914.0,6362.0,-128.0,-84.0,-113.0,-67.0,-11.0,-177.0,0.369818,0.488094,0.79047,5978.0,7754.0,12788.0,-44.0,-72.0,14.0
2879.0,2805.0,2894.0,3147.0,3046.0,0.944946,0.267212,-0.182617,0.047607,-2.0,-3.0,0.0,2946.0,3904.0,6375.0,-89.0,-90.0,-100.0,-33.0,-23.0,-155.0,0.370569,0.487614,0.790439,6184.0,7760.0,12822.0,-43.0,-65.0,16.0
2877.0,2805.0,2895.0,3153.0,3049.0,0.944946,0.266785,-0.183228,0.047668,-2.0,-2.0,0.0,3060.0,3912.0,6416.0,14.0,-75.0,-59.0,46.0,-33.0,-77.0,0.371715,0.486726,0.790449,6468.0,7906.0,12996.0,-38.0,-28.0,22.0
2875.0,2805.0,2895.0,3135.0,3035.0,0.945007,0.266479,-0.183411,0.047729,-3.0,-1.0,1.0,3115.0,3931.0,6454.0,66.0,-51.0,-23.0,78.0,-32.0,-18.0,0.372087,0.486142,0.790666,6578.0,7982.0,13152.0,-47.0,-7.0,26.0
2871.0,2799.0,2891.0,3135.0,3043.0,0.945129,0.265808,-0.183594,0.048157,-3.0,1.0,2.0,3205.0,3985.0,6539.0,152.0,13.0,57.0,120.0,-19.0,108.0,0.372641,0.484764,0.791228,6558.0,8232.0,13324.0,-57.0,35.0,52.0
2879.0,2801.0,2895.0,3151.0,3031.0,0.945251,0.265442,-0.183533,0.048523,-3.0,1.0,3.0,3207.0,4035.0,6590.0,153.0,70.0,104.0,95.0,4.0,173.0,0.372729,0.484008,0.791711,6354.0,8386.0,13472.0,-67.0,43.0,77.0
2875.0,2807.0,2900.0,3151.0,3039.0,0.945496,0.264282,-0.183411,0.0495,-6.0,1.0,5.0,3164.0,4119.0,6692.0,108.0,173.0,196.0,4.0,46.0,279.0,0.372992,0.481598,0.792928,6186.0,8380.0,13678.0,-116.0,40.0,120.0
2879.0,2803.0,2896.0,3135.0,3038.0,0.94574,0.263489,-0.18335,0.050049,-7.0,1.0,5.0,3141.0,4128.0,6738.0,83.0,195.0,234.0,-35.0,45.0,310.0,0.373177,0.480031,0.793885,6142.0,8292.0,13744.0,-143.0,36.0,131.0
2877.0,2807.0,2895.0,3135.0,3043.0,0.946228,0.261475,-0.18335,0.051208,-8.0,1.0,5.0,3115.0,4084.0,6828.0,53.0,184.0,307.0,-84.0,0.0,351.0,0.373761,0.476051,0.795984,6174.0,8052.0,13928.0,-176.0,41.0,132.0
2879.0,2807.0,2902.0,3151.0,3047.0,0.946533,0.260315,-0.183228,0.051636,-9.0,2.0,5.0,3099.0,4097.0,6861.0,37.0,215.0,329.0,-112.0,16.0,378.0,0.373745,0.473871,0.797255,6116.0,8300.0,13936.0,-203.0,53.0,118.0
2879.0,2807.0,2897.0,3149.0,3031.0,0.947388,0.257507,-0.1828,0.052002,-15.0,2.0,2.0,3048.0,4304.0,6947.0,-8.0,462.0,389.0,-220.0,200.0,525.0,0.373147,0.468907,0.800522,5922.0,9490.0,14168.0,-338.0,61.0,56.0
2879.0,2803.0,2896.0,3139.0,3039.0,0.947998,0.255615,-0.182373,0.051697,-20.0,3.0,0.0,3032.0,4457.0,6987.0,-17.0,641.0,410.0,-269.0,347.0,621.0,0.372208,0.465789,0.802774,5992.0,9848.0,14186.0,-453.0,69.0,4.0
2875.0,2802.0,2899.0,3135.0,3039.0,0.949768,0.250183,-0.181213,0.049866,-32.0,4.0,-4.0,2970.0,4683.0,7070.0,-54.0,937.0,441.0,-364.0,597.0,765.0,0.369172,0.457159,0.809116,5708.0,9654.0,14346.0,-713.0,104.0,-89.0
2879.0,2813.0,2893.0,3152.0,3043.0,0.950867,0.24646,-0.180603,0.048645,-36.0,3.0,-4.0,2931.0,4636.0,7097.0,-79.0,940.0,435.0,-383.0,609.0,748.0,0.367437,0.45113,0.813154,5624.0,8840.0,14340.0,-822.0,87.0,-89.0
2882.0,2805.0,2897.0,3151.0,3039.0,0.953308,0.237671,-0.180176,0.046509,-40.0,-1.0,0.0,2897.0,4243.0,7100.0,-98.0,668.0,366.0,-325.0,417.0,556.0,0.365634,0.436388,0.822009,5964.0,6886.0,14266.0,-910.0,-3.0,6.0
2877.0,2801.0,2895.0,3135.0,3039.0,0.954407,0.233093,-0.180481,0.046021,-37.0,-1.0,3.0,2943.0,3937.0,7119.0,-54.0,428.0,351.0,-237.0,217.0,453.0,0.365959,0.42832,0.826104,6130.0,6016.0,14332.0,-840.0,-2.0,70.0
2879.0,2803.0,2896.0,3135.0,3047.0,0.956238,0.224976,-0.18103,0.046326,-28.0,1.0,8.0,2994.0,3438.0,7112.0,-12.0,50.0,286.0,-112.0,-83.0,254.0,0.36706,0.413488,0.833151,6050.0,5694.0,14172.0,-631.0,25.0,199.0
2874.0,2805.0,2899.0,3151.0,3031.0,0.95697,0.221497,-0.181274,0.047058,-26.0,1.0,11.0,2994.0,3293.0,7092.0,-18.0,-40.0,242.0,-88.0,-142.0,179.0,0.367795,0.40687,0.836085,5980.0,5844.0,14112.0,-573.0,33.0,254.0
2881.0,2807.0,2895.0,3153.0,3031.0,0.958313,0.214844,-0.181763,0.04895,-27.0,1.0,12.0,2947.0,3255.0,7117.0,-79.0,27.0,222.0,-150.0,-72.0,168.0,0.369404,0.39398,0.841564,5762.0,6528.0,14402.0,-616.0,24.0,285.0
2877.0,2803.0,2901.0,3135.0,3035.0,0.959045,0.211121,-0.182129,0.049683,-30.0,0.0,11.0,2958.0,3224.0,7143.0,-75.0,54.0,224.0,-152.0,-47.0,182.0,0.370318,0.386851,0.844494,6030.0,6260.0,14456.0,-686.0,4.0,259.0
2879.0,2800.0,2897.0,3137.0,3043.0,0.960632,0.202698,-0.183044,0.050476,-35.0,-1.0,9.0,3071.0,3062.0,7192.0,22.0,23.0,222.0,-57.0,-69.0,205.0,0.37214,0.370957,0.850771,6510.0,5310.0,14524.0,-797.0,-15.0,208.0
2879.0,2803.0,2899.0,3151.0,3031.0,0.961426,0.19812,-0.183716,0.050781,-36.0,-2.0,8.0,3144.0,2908.0,7217.0,85.0,-59.0,221.0,15.0,-140.0,199.0,0.37338,0.362297,0.853915,6742.0,4904.0,14572.0,-810.0,-38.0,205.0
2875.0,2811.0,2902.0,3155.0,3046.0,0.962891,0.188904,-0.185486,0.051514,-34.0,-3.0,9.0,3295.0,2469.0,7260.0,209.0,-354.0,217.0,180.0,-403.0,143.0,0.376667,0.344677,0.859722,6930.0,3142.0,14626.0,-764.0,-62.0,227.0
2877.0,2802.0,2893.0,3135.0,3039.0,0.963501,0.184631,-0.186462,0.052185,-28.0,-4.0,10.0,3306.0,2190.0,7246.0,204.0,-565.0,182.0,222.0,-585.0,44.0,0.378583,0.336324,0.8622,6612.0,2816.0,14428.0,-637.0,-70.0,243.0
2875.0,2803.0,2896.0,3135.0,3038.0,0.964355,0.177612,-0.188477,0.054138,-20.0,-5.0,13.0,3216.0,1734.0,7203.0,80.0,-905.0,110.0,191.0,-879.0,-165.0,0.382748,0.322155,0.865843,5884.0,1992.0,14130.0,-444.0,-112.0,300.0
2879.0,2810.0,2902.0,3155.0,3037.0,0.9646,0.174744,-0.189514,0.055237,-15.0,-6.0,11.0,3083.0,1419.0,7169.0,-70.0,-1171.0,66.0,114.0,-1118.0,-339.0,0.384915,0.316179,0.867053,5198.0,850.0,14050.0,-324.0,-132.0,259.0
2879.0,2805.0,2899.0,3149.0,3038.0,0.964722,0.171204,-0.191833,0.056152,2.0,-15.0,0.0,2640.0,384.0,7105.0,-549.0,-2145.0,-3.0,-130.0,-2027.0,-878.0,0.389359,0.308784,0.86773,3734.0,-3248.0,13946.0,50.0,-326.0,14.0
2877.0,2805.0,2895.0,3131.0,3039.0,0.964355,0.170959,-0.193787,0.055908,17.0,-24.0,-7.0,2321.0,-536.0,7020.0,-897.0,-3059.0,-76.0,-264.0,-2871.0,-1360.0,0.392874,0.308063,0.866327,2612.0,-7132.0,13448.0,391.0,-545.0,-141.0
2871.0,2805.0,2895.0,3135.0,3043.0,0.961548,0.178528,-0.20166,0.053528,79.0,-58.0,-26.0,1544.0,-3073.0,6588.0,-1789.0,-5708.0,-415.0,-481.0,-5215.0,-2919.0,0.406924,0.321737,0.8549,774.0,-14122.0,11378.0,1831.0,-1321.0,-584.0
2877.0,2807.0,2895.0,3134.0,3039.0,-1.21228,1.220703,1.11969,0.604614,18083.0,-18708.0,30246.0,-21156.0,-19479.0,13287.0,10049.0,-6325.0,20730.0,26768.0,31136.0,-32103.0,4.190865,-1.605708,-0.90864,1934.0,-13740.0,9338.0,3750.0,-2280.0,-832.0
2877.0,2809.0,2903.0,3155.0,3039.0,0.946106,0.224792,-0.227905,0.048828,200.0,-112.0,-42.0,1185.0,-5338.0,5387.0,-2527.0,-8640.0,-1125.0,-108.0,-7196.0,-5522.0,0.453197,0.403099,0.795028,2890.0,-12374.0,8006.0,4597.0,-2544.0,-959.0
2871.0,2807.0,2893.0,3149.0,3042.0,0.926819,0.278137,-0.248047,0.04541,258.0,-108.0,-62.0,1493.0,-4927.0,4317.0,-2480.0,-8965.0,-1598.0,521.0,-6547.0,-6777.0,0.48505,0.493038,0.722168,3784.0,-6958.0,5000.0,5922.0,-2454.0,-1420.0
2877.0,2801.0,2897.0,3151.0,3047.0,0.901794,0.34198,-0.261292,0.039124,272.0,-86.0,-86.0,1515.0,-2937.0,3143.0,-2564.0,-7822.0,-2014.0,639.0,-4407.0,-7209.0,0.498021,0.596346,0.62954,2190.0,1996.0,3012.0,6240.0,-1956.0,-1959.0
2877.0,2802.0,2896.0,3133.0,3039.0,0.888184,0.374146,-0.264404,0.033325,256.0,-79.0,-102.0,1112.0,-1424.0,2525.0,-2939.0,-6724.0,-2227.0,197.0,-2898.0,-7095.0,0.494616,0.646997,0.580086,-578.0,6462.0,1230.0,5883.0,-1806.0,-2319.0
2875.0,2801.0,2895.0,3135.0,3043.0,0.860962,0.432312,-0.267578,0.012512,197.0,-88.0,-127.0,308.0,1580.0,1350.0,-3555.0,-4463.0,-2606.0,-743.0,-89.0,-6227.0,0.471568,0.737712,0.48292,-1026.0,11164.0,-482.0,4515.0,-2007.0,-2900.0
2875.0,2801.0,2895.0,3131.0,3035.0,0.834961,0.478088,-0.272034,-0.01532,155.0,-101.0,-131.0,-165.0,2555.0,-100.0,-3766.0,-4053.0,-3334.0,-692.0,1511.0,-6241.0,0.439627,0.806705,0.394824,-1508.0,4656.0,-4958.0,3563.0,-2291.0,-2986.0
2878.0,2806.0,2899.0,3155.0,3039.0,0.820557,0.5,-0.275146,-0.029663,166.0,-105.0,-131.0,-352.0,2289.0,-921.0,-3808.0,-4566.0,-3775.0,-373.0,1994.0,-6743.0,0.421883,0.83688,0.348487,-1702.0,2790.0,-6738.0,3818.0,-2397.0,-2982.0
2879.0,2811.0,2899.0,3152.0,3046.0,0.785339,0.548462,-0.281738,-0.054626,209.0,-94.0,-123.0,-202.0,2443.0,-2197.0,-3336.0,-4866.0,-4159.0,389.0,2862.0,-6614.0,0.382599,0.892238,0.239555,556.0,7832.0,-7594.0,4799.0,-2136.0,-2798.0
2878.0,2807.0,2896.0,3155.0,3043.0,0.746094,0.598999,-0.281433,-0.072998,199.0,-56.0,-117.0,-373.0,5399.0,-3072.0,-3096.0,-2259.0,-4087.0,16.0,4252.0,-3648.0,0.332499,0.934907,0.12398,-2514.0,22310.0,-8318.0,4563.0,-1274.0,-2658.0
2875.0,2803.0,2892.0,3133.0,3039.0,0.728516,0.620544,-0.278015,-0.082825,161.0,-51.0,-117.0,-860.0,7389.0,-3441.0,-3336.0,-395.0,-4057.0,-625.0,4949.0,-1688.0,0.302284,0.950206,0.075227,-4796.0,26612.0,-9014.0,3705.0,-1150.0,-2658.0
2879.0,2803.0,2896.0,3107.0,3039.0,0.701904,0.649719,-0.271179,-0.107849,72.0,-66.0,-107.0,-1429.0,10094.0,-4079.0,-3399.0,2143.0,-4149.0,-1089.0,5537.0,1226.0,0.24054,0.970574,0.008628,-3756.0,25394.0,-10132.0,1666.0,-1493.0,-2448.0
2875.0,2809.0,2898.0,3133.0,3039.0,0.682678,0.666748,-0.266602,-0.135437,41.0,-71.0,-102.0,-1307.0,10426.0,-4669.0,-2809.0,2376.0,-4413.0,-308.0,5393.0,1957.0,0.183401,0.982564,-0.031237,-1574.0,20078.0,-10702.0,943.0,-1610.0,-2332.0
2879.0,2813.0,2903.0,3151.0,3043.0,0.673157,0.674377,-0.264587,-0.148193,47.0,-66.0,-100.0,-1023.0,10195.0,-4850.0,-2303.0,2114.0,-4442.0,258.0,5064.0,1945.0,0.156341,0.986344,-0.04969,-88.0,18922.0,-10658.0,1091.0,-1502.0,-2285.0
2879.0,2813.0,2907.0,3152.0,3039.0,0.652161,0.691833,-0.261292,-0.166504,79.0,-40.0,-80.0,-261.0,9847.0,-4986.0,-1165.0,1741.0,-4217.0,1216.0,4090.0,1989.0,0.110422,0.989385,-0.09387,1180.0,19468.0,-10416.0,1832.0,-909.0,-1826.0
2877.0,2811.0,2898.0,3158.0,3047.0,0.628418,0.71228,-0.259827,-0.173523,104.0,-19.0,-45.0,208.0,10729.0,-4992.0,-442.0,2656.0,-3764.0,1400.0,3090.0,3146.0,0.079366,0.985391,-0.149834,1870.0,26250.0,-9490.0,2396.0,-426.0,-1025.0
2878.0,2805.0,2898.0,3135.0,3039.0,0.617737,0.721436,-0.260254,-0.173706,97.0,-10.0,-30.0,383.0,11767.0,-4852.0,-197.0,3724.0,-3406.0,1191.0,2466.0,4242.0,0.070901,0.98173,-0.176429,1642.0,30008.0,-8764.0,2244.0,-221.0,-668.0
2876.0,2802.0,2896.0,3134.0,3039.0,0.602356,0.734436,-0.260742,-0.172363,59.0,-4.0,-14.0,393.0,13415.0,-4546.0,-106.0,5430.0,-2786.0,543.0,1526.0,5884.0,0.06094,0.974669,-0.214841,226.0,30226.0,-8602.0,1370.0,-75.0,-300.0
2875.0,2807.0,2895.0,3147.0,3043.0,0.593384,0.741516,-0.260925,-0.172852,37.0,-6.0,-15.0,394.0,13625.0,-3974.0,-42.0,5677.0,-2041.0,89.0,731.0,5987.0,0.053313,0.97021,-0.235946,982.0,26520.0,-6222.0,870.0,-129.0,-333.0
2879.0,2815.0,2902.0,3159.0,3043.0,0.589722,0.744324,-0.260864,-0.173523,33.0,-9.0,-14.0,471.0,13380.0,-3704.0,66.0,5446.0,-1703.0,16.0,385.0,5693.0,0.04936,0.96842,-0.244186,1608.0,25046.0,-5740.0,774.0,-185.0,-308.0
2879.0,2815.0,2907.0,3122.0,3043.0,0.583679,0.748291,-0.262878,-0.173767,31.0,-10.0,1.0,791.0,12670.0,-3087.0,407.0,4765.0,-972.0,-30.0,-341.0,4867.0,0.046817,0.964883,-0.258168,2392.0,23230.0,-4454.0,732.0,-221.0,29.0
2875.0,2803.0,2896.0,3131.0,3039.0,0.580872,0.75,-0.264832,-0.172974,33.0,-9.0,6.0,899.0,12399.0,-2829.0,504.0,4510.0,-655.0,-110.0,-624.0,4540.0,0.048206,0.962925,-0.265304,2368.0,23382.0,-4170.0,762.0,-196.0,157.0
2875.0,2801.0,2895.0,3133.0,3039.0,0.576782,0.751892,-0.270081,-0.170227,23.0,-8.0,21.0,1163.0,12290.0,-2425.0,707.0,4431.0,-158.0,-276.0,-1139.0,4333.0,0.055571,0.959306,-0.27663,3636.0,24712.0,-3622.0,535.0,-179.0,488.0
2879.0,2815.0,2901.0,3155.0,3047.0,0.576477,0.751465,-0.273193,-0.167969,13.0,-2.0,27.0,1320.0,12287.0,-2290.0,807.0,4437.0,-6.0,-318.0,-1308.0,4303.0,0.062534,0.95818,-0.278795,3288.0,24454.0,-3984.0,304.0,-40.0,632.0
2877.0,2797.0,2903.0,3154.0,3045.0,0.578064,0.749329,-0.278564,-0.163391,-3.0,-1.0,30.0,1058.0,12083.0,-2342.0,425.0,4240.0,-62.0,-597.0,-957.0,4109.0,0.077189,0.95735,-0.278237,1124.0,23322.0,-4898.0,-61.0,-13.0,701.0
2892.0,2800.0,2894.0,3125.0,3035.0,0.579651,0.747375,-0.28125,-0.162109,-11.0,-6.0,29.0,963.0,11909.0,-2347.0,276.0,4064.0,-90.0,-675.0,-788.0,3939.0,0.08374,0.95762,-0.275397,1456.0,22666.0,-4720.0,-240.0,-117.0,683.0
2875.0,2803.0,2895.0,3129.0,3039.0,0.583862,0.742126,-0.286926,-0.161255,-22.0,-13.0,29.0,1028.0,11266.0,-2383.0,243.0,3408.0,-202.0,-503.0,-516.0,3345.0,0.095708,0.959136,-0.26618,2664.0,19994.0,-5032.0,-493.0,-275.0,672.0
2875.0,2803.0,2895.0,3127.0,3039.0,0.587952,0.736267,-0.294373,-0.159729,-17.0,-13.0,37.0,1239.0,10304.0,-2489.0,330.0,2441.0,-379.0,-123.0,-242.0,2477.0,0.110947,0.959819,-0.257544,2962.0,17998.0,-5294.0,-377.0,-291.0,868.0
2879.0,2814.0,2906.0,3153.0,3047.0,0.589417,0.733521,-0.299072,-0.158142,-12.0,-14.0,44.0,1368.0,9987.0,-2525.0,380.0,2128.0,-435.0,10.0,-171.0,2198.0,0.120555,0.95929,-0.255076,3642.0,18402.0,-5218.0,-268.0,-307.0,1018.0
2879.0,2810.0,2902.0,3153.0,3039.0,0.592712,0.727478,-0.31012,-0.152527,-11.0,-8.0,57.0,1798.0,9869.0,-2463.0,604.0,2029.0,-408.0,151.0,-281.0,2132.0,0.145704,0.956974,-0.250826,4676.0,19886.0,-4718.0,-240.0,-176.0,1312.0
2873.0,2801.0,2894.0,3126.0,3039.0,0.594788,0.724121,-0.315613,-0.148987,-13.0,-5.0,58.0,1834.0,9899.0,-2456.0,525.0,2072.0,-424.0,67.0,-200.0,2168.0,0.159676,0.955441,-0.247993,3588.0,19992.0,-4976.0,-284.0,-108.0,1329.0
2850.0,2801.0,2895.0,3127.0,3037.0,0.598877,0.71698,-0.326172,-0.144287,-22.0,-18.0,55.0,1621.0,9988.0,-2508.0,115.0,2181.0,-533.0,-238.0,181.0,2227.0,0.183772,0.95289,-0.240976,2406.0,20238.0,-5166.0,-486.0,-395.0,1264.0
2875.0,2800.0,2893.0,3125.0,3037.0,-0.001953,0.00354,0.088806,0.609253,-2532.0,-19862.0,26108.0,16678.0,17489.0,-4994.0,16639.0,16602.0,-7970.0,-6288.0,-6923.0,-1021.0,0.00466,0.108197,0.363294,2168.0,18348.0,-5462.0,-802.0,-1129.0,1418.0
2879.0,2810.0,2899.0,3153.0,3043.0,0.604431,0.700439,-0.34967,-0.147278,-38.0,-67.0,67.0,1400.0,9487.0,-2585.0,-372.0,1706.0,-734.0,-335.0,752.0,1705.0,0.216385,0.949732,-0.225857,3470.0,16796.0,-5038.0,-862.0,-1523.0,1538.0
2878.0,2813.0,2903.0,3152.0,3043.0,0.605835,0.685547,-0.373596,-0.152649,-34.0,-88.0,81.0,2054.0,8741.0,-2375.0,60.0,1001.0,-579.0,96.0,386.0,1087.0,0.243379,0.944715,-0.219211,6916.0,15312.0,-3542.0,-764.0,-2003.0,1871.0
2877.0,2811.0,2903.0,3151.0,3043.0,0.606018,0.669617,-0.400208,-0.155457,-22.0,-83.0,85.0,2910.0,8218.0,-1785.0,641.0,550.0,-6.0,217.0,-430.0,693.0,0.276873,0.936029,-0.217128,7652.0,14978.0,-1496.0,-494.0,-1887.0,1948.0
2877.0,2798.0,2894.0,3127.0,3035.0,0.605347,0.662476,-0.412537,-0.156433,-14.0,-81.0,78.0,2943.0,7967.0,-1570.0,549.0,339.0,217.0,60.0,-525.0,428.0,0.292189,0.931124,-0.218144,5592.0,14350.0,-2118.0,-319.0,-1842.0,1807.0
2874.0,2789.0,2891.0,3135.0,3039.0,0.60022,0.649597,-0.437744,-0.16156,-12.0,-106.0,72.0,2544.0,7709.0,-1586.0,-41.0,162.0,275.0,-286.0,-127.0,73.0,0.315587,0.921246,-0.227231,3874.0,15344.0,-3378.0,-252.0,-2417.0,1661.0
2875.0,2795.0,2899.0,3151.0,3043.0,0.596558,0.64209,-0.451538,-0.167053,-21.0,-125.0,70.0,2431.0,7724.0,-1613.0,-224.0,212.0,290.0,-419.0,21.0,54.0,0.324211,0.916949,-0.232378,4460.0,15494.0,-3408.0,-473.0,-2853.0,1620.0
2877.0,2777.0,2902.0,3151.0,3027.0,0.590637,0.621765,-0.480652,-0.183167,-57.0,-143.0,65.0,3406.0,7811.0,-1375.0,620.0,351.0,551.0,-280.0,-756.0,400.0,0.340009,0.910554,-0.235216,11652.0,15506.0,-1564.0,-1292.0,-3263.0,1509.0
2876.0,2753.0,2894.0,3135.0,3039.0,0.589905,0.609741,-0.493286,-0.191956,-68.0,-127.0,52.0,4365.0,7657.0,-1084.0,1515.0,212.0,802.0,-68.0,-1640.0,535.0,0.347897,0.908757,-0.230281,14584.0,14076.0,-180.0,-1547.0,-2887.0,1192.0
2875.0,2743.0,2895.0,3139.0,3035.0,0.590881,0.591736,-0.508423,-0.2052,-44.0,-67.0,11.0,5200.0,6431.0,-982.0,2267.0,-1006.0,798.0,591.0,-2522.0,-275.0,0.357987,0.907948,-0.217397,10472.0,8756.0,-3150.0,-995.0,-1534.0,255.0
2871.0,2738.0,2896.0,3133.0,3035.0,0.58551,0.587463,-0.51532,-0.215637,-3.0,-60.0,-25.0,4262.0,5389.0,-1421.0,1394.0,-2067.0,392.0,917.0,-1826.0,-1480.0,0.350092,0.910176,-0.221346,4632.0,8998.0,-4166.0,-51.0,-1365.0,-570.0
2875.0,2749.0,2899.0,3147.0,3043.0,0.579529,0.588074,-0.518433,-0.222595,5.0,-77.0,-36.0,3614.0,5286.0,-1608.0,836.0,-2188.0,269.0,841.0,-1304.0,-1774.0,0.339088,0.912413,-0.229201,3382.0,10180.0,-4274.0,132.0,-1743.0,-805.0
2874.0,2754.0,2899.0,3147.0,3043.0,0.564026,0.587585,-0.527405,-0.241638,-6.0,-111.0,-33.0,3104.0,5663.0,-1711.0,556.0,-1854.0,311.0,552.0,-980.0,-1605.0,0.310974,0.917709,-0.246898,7134.0,13770.0,-3084.0,-130.0,-2530.0,-746.0
2877.0,2747.0,2898.0,3143.0,3042.0,0.556519,0.576843,-0.536804,-0.263245,-65.0,-94.0,-12.0,3643.0,6709.0,-1409.0,1236.0,-865.0,572.0,119.0,-1502.0,-575.0,0.293781,0.92467,-0.241896,7522.0,15726.0,-2298.0,-1472.0,-2134.0,-252.0
2875.0,2755.0,2896.0,3133.0,3039.0,0.557007,0.568848,-0.538879,-0.275208,-91.0,-81.0,-13.0,3308.0,6828.0,-1438.0,955.0,-793.0,429.0,106.0,-1182.0,-561.0,0.287217,0.930311,-0.227983,3840.0,13820.0,-3220.0,-2072.0,-1834.0,-295.0
2879.0,2749.0,2896.0,3135.0,3039.0,0.559021,0.553528,-0.537659,-0.303467,-109.0,-73.0,-43.0,2510.0,5923.0,-1706.0,337.0,-1820.0,-142.0,678.0,-643.0,-1603.0,0.26517,0.94519,-0.190873,3804.0,7890.0,-3906.0,-2483.0,-1652.0,-984.0
2874.0,2742.0,2897.0,3139.0,3039.0,0.557495,0.545837,-0.531311,-0.330139,-69.0,-49.0,-72.0,1885.0,4202.0,-2146.0,-15.0,-3657.0,-831.0,1563.0,-452.0,-3378.0,0.232002,0.959417,-0.160437,2118.0,3046.0,-5666.0,-1559.0,-1104.0,-1648.0
2879.0,2747.0,2901.0,3143.0,3043.0,0.554199,0.546448,-0.527893,-0.339905,-36.0,-36.0,-74.0,1552.0,3551.0,-2231.0,-198.0,-4350.0,-964.0,1751.0,-319.0,-4089.0,0.213635,0.964549,-0.154604,858.0,3936.0,-4794.0,-808.0,-813.0,-1687.0
2879.0,2795.0,2903.0,3147.0,3039.0,0.545654,0.552917,-0.521851,-0.352356,1.0,-16.0,-56.0,468.0,4082.0,-1997.0,-1005.0,-3873.0,-717.0,1225.0,592.0,-3830.0,0.179852,0.971158,-0.156152,-2914.0,12504.0,-2388.0,33.0,-346.0,-1282.0
2879.0,2746.0,2899.0,3147.0,3039.0,0.539246,0.558716,-0.515015,-0.363098,-12.0,-15.0,-42.0,-1487.0,5541.0,-1718.0,-2713.0,-2459.0,-450.0,326.0,2451.0,-2737.0,0.149701,0.976572,-0.154777,-9294.0,14640.0,-3474.0,-259.0,-328.0,-950.0
2875.0,2743.0,2899.0,3143.0,3038.0,0.535767,0.560486,-0.512146,-0.369507,-16.0,-25.0,-37.0,-2290.0,5890.0,-1727.0,-3392.0,-2130.0,-474.0,149.0,3185.0,-2469.0,0.134575,0.979062,-0.152857,-8840.0,13600.0,-3276.0,-351.0,-572.0,-832.0
2877.0,2743.0,2895.0,3135.0,3038.0,0.528442,0.561462,-0.50946,-0.382019,-11.0,-37.0,-23.0,-3053.0,6425.0,-1575.0,-3949.0,-1624.0,-349.0,-135.0,3798.0,-1975.0,0.109462,0.982648,-0.1496,-7304.0,14456.0,-2546.0,-248.0,-847.0,-514.0
2877.0,2743.0,2896.0,3139.0,3107.0,0.521423,0.560974,-0.508911,-0.392944,-9.0,-36.0,-18.0,-3076.0,6850.0,-1455.0,-3812.0,-1218.0,-247.0,-223.0,3709.0,-1505.0,0.089853,0.984958,-0.147395,-5428.0,14686.0,-2944.0,-184.0,-815.0,-409.0
2879.0,2751.0,2902.0,3143.0,3039.0,0.518372,0.56073,-0.508911,-0.397339,-6.0,-30.0,-16.0,-2738.0,6976.0,-1437.0,-3409.0,-1099.0,-234.0,-164.0,3330.0,-1328.0,0.082011,0.985753,-0.146821,-3128.0,14624.0,-2752.0,-132.0,-685.0,-347.0
2879.0,2751.0,2906.0,3143.0,3039.0,0.514709,0.561218,-0.508545,-0.401917,-1.0,-7.0,-9.0,-1950.0,7321.0,-1459.0,-2542.0,-760.0,-253.0,-40.0,2509.0,-896.0,0.07238,0.986514,-0.147121,-2314.0,15780.0,-3200.0,-4.0,-144.0,-201.0
2879.0,2750.0,2900.0,3145.0,3039.0,0.512817,0.563782,-0.506653,-0.403076,2.0,5.0,-8.0,-1554.0,7658.0,-1551.0,-2087.0,-424.0,-329.0,50.0,2094.0,-505.0,0.065147,0.986674,-0.149095,-1446.0,16398.0,-2886.0,64.0,133.0,-181.0
2878.0,2741.0,2897.0,3135.0,3039.0,0.512512,0.565002,-0.505554,-0.403137,2.0,8.0,-7.0,-1351.0,7791.0,-1512.0,-1864.0,-292.0,-286.0,19.0,1873.0,-362.0,0.062658,0.986757,-0.149624,-1782.0,16260.0,-2908.0,48.0,202.0,-145.0
2877.0,2715.0,2897.0,3135.0,3038.0,0.511658,0.567017,-0.503723,-0.403625,0.0,1.0,-5.0,-1189.0,8016.0,-1485.0,-1662.0,-68.0,-251.0,-21.0,1677.0,-125.0,0.057743,0.986868,-0.150538,-1732.0,16536.0,-2786.0,3.0,33.0,-110.0
2879.0,2750.0,2902.0,3143.0,3039.0,0.510925,0.567505,-0.503235,-0.404419,0.0,-4.0,-5.0,-1072.0,8042.0,-1465.0,-1524.0,-43.0,-230.0,-22.0,1538.0,-91.0,0.055211,0.986941,-0.150708,-1410.0,16146.0,-2836.0,1.0,-79.0,-109.0
2877.0,2750.0,2906.0,3147.0,3043.0,0.508972,0.56781,-0.503723,-0.405945,4.0,-9.0,-2.0,-530.0,8150.0,-1317.0,-954.0,64.0,-69.0,-98.0,953.0,24.0,0.051763,0.986967,-0.152301,1096.0,16926.0,-2022.0,103.0,-198.0,-38.0
2879.0,2743.0,2896.0,3139.0,3039.0,0.50824,0.567749,-0.504395,-0.406128,6.0,-6.0,-1.0,-201.0,8223.0,-1246.0,-623.0,139.0,11.0,-133.0,615.0,103.0,0.051549,0.986803,-0.153505,1448.0,16774.0,-2160.0,143.0,-133.0,-3.0
2878.0,2743.0,2896.0,3135.0,3039.0,0.507141,0.568665,-0.505554,-0.404724,11.0,3.0,0.0,256.0,8357.0,-1212.0,-173.0,279.0,82.0,-153.0,163.0,253.0,0.05247,0.986006,-0.157971,1508.0,17342.0,-2448.0,266.0,72.0,8.0
2881.0,2751.0,2906.0,3150.0,3045.0,0.506714,0.569641,-0.505737,-0.403687,11.0,6.0,-2.0,350.0,8436.0,-1269.0,-81.0,361.0,46.0,-118.0,81.0,344.0,0.052615,0.985609,-0.160539,1226.0,17296.0,-2964.0,261.0,139.0,-42.0
2879.0,2750.0,2906.0,3151.0,3039.0,0.505798,0.571716,-0.505554,-0.402161,7.0,3.0,-4.0,363.0,8476.0,-1417.0,-59.0,407.0,-66.0,-15.0,78.0,408.0,0.051573,0.984974,-0.164879,334.0,16900.0,-3418.0,173.0,82.0,-90.0
2877.0,2746.0,2897.0,3139.0,3038.0,0.505005,0.572388,-0.505676,-0.402039,5.0,-3.0,-3.0,311.0,8478.0,-1487.0,-102.0,411.0,-121.0,29.0,130.0,419.0,0.050494,0.98472,-0.166671,364.0,17024.0,-3292.0,128.0,-56.0,-56.0
2877.0,2743.0,2896.0,3135.0,3035.0,0.503662,0.57196,-0.506836,-0.402954,-1.0,-10.0,0.0,319.0,8587.0,-1521.0,-87.0,521.0,-144.0,35.0,120.0,532.0,0.0496,0.984613,-0.167974,692.0,17292.0,-3200.0,-12.0,-225.0,19.0
2879.0,2754.0,2905.0,3143.0,3039.0,0.503174,0.571289,-0.507446,-0.403625,-2.0,-10.0,1.0,393.0,8601.0,-1525.0,-12.0,535.0,-150.0,50.0,48.0,551.0,0.049494,0.984552,-0.167775,1350.0,17296.0,-2986.0,-38.0,-219.0,38.0
2881.0,2751.0,2903.0,3151.0,3042.0,0.503479,0.570129,-0.508057,-0.404114,-4.0,0.0,1.0,593.0,8679.0,-1444.0,176.0,612.0,-81.0,0.0,-146.0,625.0,0.050797,0.984722,-0.16637,1742.0,17296.0,-2640.0,-80.0,13.0,44.0
2879.0,2743.0,2895.0,3131.0,3035.0,0.504211,0.569885,-0.507751,-0.403992,-6.0,4.0,1.0,489.0,8615.0,-1563.0,66.0,546.0,-210.0,121.0,-17.0,575.0,0.05157,0.98494,-0.165142,-18.0,16624.0,-4168.0,-130.0,110.0,31.0
2879.0,2747.0,2896.0,3131.0,3039.0,0.504517,0.570374,-0.506897,-0.404053,-2.0,2.0,-2.0,259.0,8282.0,-1711.0,-155.0,211.0,-363.0,292.0,217.0,259.0,0.050554,0.985152,-0.164475,146.0,15844.0,-3582.0,-25.0,66.0,-39.0
2881.0,2755.0,2901.0,3151.0,3039.0,0.504333,0.570801,-0.506653,-0.403931,1.0,2.0,-2.0,206.0,8214.0,-1715.0,-202.0,144.0,-363.0,295.0,262.0,191.0,0.049916,0.985053,-0.164998,52.0,16128.0,-3398.0,28.0,49.0,-41.0
2879.0,2754.0,2906.0,3149.0,3043.0,0.503784,0.571045,-0.506714,-0.404175,-1.0,-3.0,0.0,249.0,8233.0,-1596.0,-151.0,164.0,-238.0,179.0,191.0,193.0,0.048945,0.984969,-0.165695,1228.0,16674.0,-2556.0,-20.0,-59.0,16.0
2879.0,2746.0,2896.0,3135.0,3039.0,0.504089,0.570557,-0.506836,-0.404297,-4.0,-2.0,2.0,374.0,8270.0,-1504.0,-32.0,200.0,-153.0,109.0,61.0,220.0,0.049633,0.985047,-0.164856,1420.0,16728.0,-2590.0,-80.0,-34.0,59.0
2879.0,2747.0,2896.0,3135.0,3035.0,0.505432,0.56958,-0.506592,-0.404358,-7.0,2.0,2.0,464.0,8147.0,-1487.0,42.0,74.0,-159.0,148.0,-13.0,100.0,0.051467,0.985457,-0.16209,898.0,15612.0,-3230.0,-139.0,68.0,48.0
2879.0,2751.0,2899.0,3147.0,3039.0,0.505981,0.569458,-0.506287,-0.404236,-5.0,4.0,0.0,438.0,8006.0,-1533.0,12.0,-67.0,-212.0,219.0,21.0,-31.0,0.051953,0.985589,-0.161185,616.0,15110.0,-3306.0,-110.0,92.0,12.0
2883.0,2754.0,2906.0,3150.0,3038.0,0.506104,0.569946,-0.505798,-0.403992,0.0,1.0,0.0,211.0,7775.0,-1609.0,-210.0,-298.0,-287.0,295.0,248.0,-258.0,0.051465,0.98558,-0.161321,-312.0,15086.0,-3310.0,12.0,33.0,0.0
2879.0,2746.0,2896.0,3135.0,3031.0,0.505737,0.57019,-0.50592,-0.403931,2.0,-2.0,1.0,82.0,7760.0,-1602.0,-336.0,-312.0,-273.0,263.0,369.0,-280.0,0.051091,0.985447,-0.162142,-604.0,15510.0,-3128.0,49.0,-39.0,34.0
2879.0,2747.0,2896.0,3135.0,3035.0,0.504944,0.569519,-0.50708,-0.404358,-1.0,-7.0,5.0,47.0,7850.0,-1464.0,-375.0,-221.0,-128.0,102.0,385.0,-216.0,0.051515,0.985234,-0.163009,278.0,15942.0,-2466.0,-6.0,-157.0,118.0
2882.0,2753.0,2903.0,3147.0,3039.0,0.504883,0.568848,-0.507629,-0.404663,-3.0,-6.0,4.0,122.0,7871.0,-1410.0,-305.0,-200.0,-77.0,60.0,308.0,-200.0,0.052203,0.985241,-0.162616,834.0,15786.0,-2530.0,-52.0,-130.0,100.0
2879.0,2751.0,2907.0,3150.0,3039.0,0.505554,0.568054,-0.507751,-0.404846,-4.0,3.0,0.0,359.0,7769.0,-1397.0,-78.0,-304.0,-77.0,113.0,81.0,-291.0,0.053443,0.985487,-0.161012,1104.0,15030.0,-2952.0,-83.0,71.0,11.0
2879.0,2747.0,2899.0,3137.0,3063.0,0.505981,0.568359,-0.507263,-0.404541,-2.0,6.0,-2.0,344.0,7661.0,-1470.0,-94.0,-412.0,-153.0,202.0,106.0,-386.0,0.053482,0.985576,-0.160678,518.0,14710.0,-3408.0,-37.0,153.0,-41.0
2879.0,2743.0,2895.0,3135.0,3039.0,0.506287,0.569702,-0.50647,-0.403259,3.0,8.0,0.0,293.0,7589.0,-1536.0,-144.0,-482.0,-207.0,259.0,164.0,-449.0,0.053362,0.985342,-0.162128,278.0,15244.0,-3112.0,83.0,190.0,11.0
2881.0,2755.0,2906.0,3143.0,3043.0,0.506409,0.570374,-0.506348,-0.402283,4.0,7.0,3.0,221.0,7635.0,-1528.0,-220.0,-434.0,-189.0,221.0,237.0,-408.0,0.053935,0.985074,-0.163433,-84.0,15556.0,-2940.0,108.0,170.0,71.0
2883.0,2751.0,2907.0,3151.0,3043.0,0.506287,0.570923,-0.506897,-0.40094,3.0,-1.0,6.0,6.0,7781.0,-1462.0,-448.0,-284.0,-103.0,75.0,451.0,-287.0,0.055459,0.984572,-0.165818,-290.0,16072.0,-2662.0,91.0,-4.0,140.0
2879.0,2749.0,2898.0,3135.0,3037.0,0.506226,0.570618,-0.507507,-0.400696,1.0,-4.0,7.0,43.0,7871.0,-1377.0,-420.0,-193.0,-14.0,-21.0,410.0,-211.0,0.056538,0.984435,-0.166347,386.0,16284.0,-2158.0,37.0,-81.0,166.0
2879.0,2749.0,2897.0,3135.0,3039.0,0.50647,0.569031,-0.508606,-0.401123,-6.0,-7.0,5.0,56.0,8069.0,-1351.0,-424.0,4.0,1.0,-69.0,417.0,-21.0,0.058684,0.984421,-0.165065,330.0,16564.0,-2776.0,-129.0,-145.0,134.0
2881.0,2753.0,2903.0,3143.0,3045.0,0.506836,0.567993,-0.508911,-0.401917,-9.0,-7.0,4.0,133.0,8046.0,-1387.0,-352.0,-21.0,-50.0,-3.0,354.0,-33.0,0.059297,0.984838,-0.163187,776.0,15748.0,-3098.0,-201.0,-146.0,98.0
2880.0,2751.0,2902.0,3151.0,3043.0,0.506714,0.566956,-0.509583,-0.402588,1.0,-5.0,1.0,270.0,7719.0,-1546.0,-220.0,-349.0,-216.0,235.0,240.0,-321.0,0.059926,0.984872,-0.162277,1090.0,14686.0,-3338.0,29.0,-92.0,33.0
2877.0,2749.0,2896.0,3135.0,3035.0,0.506104,0.567139,-0.510254,-0.402222,7.0,-3.0,1.0,354.0,7718.0,-1527.0,-139.0,-347.0,-182.0,214.0,155.0,-320.0,0.060252,0.984532,-0.164082,1096.0,15680.0,-2906.0,170.0,-56.0,41.0
2879.0,2747.0,2896.0,3139.0,3038.0,0.504944,0.567627,-0.511902,-0.401001,8.0,-3.0,4.0,418.0,7988.0,-1448.0,-87.0,-71.0,-67.0,64.0,94.0,-63.0,0.061725,0.983786,-0.168474,996.0,16806.0,-2514.0,185.0,-62.0,100.0
2883.0,2753.0,2903.0,3143.0,3039.0,0.504578,0.567505,-0.512634,-0.400635,4.0,-4.0,4.0,431.0,8121.0,-1401.0,-81.0,64.0,-10.0,-14.0,83.0,59.0,0.062603,0.983459,-0.169749,924.0,16998.0,-2536.0,109.0,-75.0,107.0
2885.0,2754.0,2901.0,3147.0,3039.0,0.504578,0.566833,-0.513367,-0.400635,-2.0,-2.0,1.0,512.0,8132.0,-1377.0,-11.0,76.0,13.0,-27.0,11.0,71.0,0.06388,0.983368,-0.169739,1252.0,15960.0,-2884.0,-37.0,-37.0,36.0
2878.0,2746.0,2896.0,3127.0,3025.0,0.504761,0.566711,-0.513367,-0.400757,-3.0,-1.0,0.0,497.0,8049.0,-1439.0,-27.0,-8.0,-51.0,46.0,34.0,0.0,0.064028,0.983578,-0.169318,840.0,15544.0,-3348.0,-53.0,-1.0,0.0
2879.0,2747.0,2896.0,3135.0,3035.0,0.504517,0.566895,-0.513245,-0.400879,0.0,-1.0,-2.0,398.0,7842.0,-1590.0,-121.0,-214.0,-201.0,215.0,143.0,-184.0,0.063369,0.983513,-0.169549,286.0,15188.0,-3616.0,10.0,-7.0,-24.0
2883.0,2753.0,2903.0,3147.0,3039.0,0.503967,0.5672,-0.513367,-0.400879,2.0,-3.0,-1.0,331.0,7801.0,-1642.0,-182.0,-254.0,-244.0,254.0,209.0,-219.0,0.062683,0.983296,-0.170574,408.0,15468.0,-3538.0,58.0,-49.0,-16.0
2886.0,2759.0,2910.0,3152.0,3039.0,0.502991,0.567261,-0.514343,-0.400818,3.0,-4.0,2.0,351.0,7902.0,-1569.0,-162.0,-150.0,-154.0,152.0,178.0,-131.0,0.062683,0.98297,-0.172679,638.0,16304.0,-2886.0,78.0,-84.0,48.0
2879.0,2747.0,2895.0,3151.0,3035.0,0.502625,0.567078,-0.514771,-0.400879,1.0,-5.0,1.0,373.0,8003.0,-1518.0,-141.0,-47.0,-98.0,82.0,152.0,-38.0,0.062814,0.982776,-0.17323,1018.0,16634.0,-2672.0,30.0,-104.0,41.0
2879.0,2748.0,2896.0,3135.0,3035.0,0.502808,0.566406,-0.514954,-0.401489,-4.0,-1.0,-2.0,553.0,8042.0,-1447.0,36.0,-11.0,-38.0,44.0,-29.0,-2.0,0.063033,0.983083,-0.171984,1494.0,15810.0,-2936.0,-89.0,-12.0,-26.0
2879.0,2755.0,2903.0,3143.0,3039.0,0.503052,0.566345,-0.514587,-0.401733,-5.0,1.0,-4.0,580.0,7957.0,-1483.0,66.0,-97.0,-81.0,105.0,-55.0,-77.0,0.062689,0.983256,-0.171096,1254.0,15342.0,-3168.0,-95.0,31.0,-69.0
2883.0,2762.0,2906.0,3151.0,3037.0,0.503113,0.566956,-0.51355,-0.402161,-2.0,2.0,-6.0,530.0,7827.0,-1544.0,32.0,-230.0,-148.0,189.0,-16.0,-199.0,0.060733,0.983544,-0.170316,816.0,15478.0,-3228.0,-25.0,62.0,-118.0
2879.0,2742.0,2891.0,3135.0,3035.0,0.50293,0.567444,-0.513062,-0.402283,-1.0,2.0,-5.0,453.0,7834.0,-1574.0,-34.0,-223.0,-177.0,206.0,54.0,-191.0,0.059522,0.98356,-0.170455,366.0,15790.0,-3362.0,-4.0,53.0,-107.0
2879.0,2747.0,2895.0,3135.0,3039.0,0.502319,0.567993,-0.512512,-0.402954,-3.0,-3.0,-3.0,243.0,7955.0,-1619.0,-225.0,-103.0,-221.0,199.0,253.0,-76.0,0.057139,0.983666,-0.170588,18.0,16284.0,-3242.0,-46.0,-61.0,-48.0
2879.0,2759.0,2903.0,3143.0,3039.0,0.502075,0.56781,-0.512512,-0.403564,-4.0,-5.0,-1.0,206.0,8018.0,-1609.0,-255.0,-41.0,-215.0,178.0,284.0,-18.0,0.056343,0.98383,-0.170133,284.0,16404.0,-3140.0,-76.0,-108.0,-22.0
2882.0,2759.0,2899.0,3152.0,3047.0,0.501831,0.567017,-0.512512,-0.404846,-5.0,-4.0,-1.0,317.0,8091.0,-1567.0,-135.0,29.0,-187.0,157.0,162.0,52.0,0.05528,0.98407,-0.168442,1158.0,16318.0,-2994.0,-109.0,-86.0,-16.0
2882.0,2747.0,2896.0,3135.0,3031.0,0.502014,0.566711,-0.51239,-0.405334,-5.0,-2.0,-2.0,388.0,8067.0,-1565.0,-62.0,3.0,-193.0,178.0,90.0,31.0,0.055039,0.984373,-0.167391,1132.0,15878.0,-3150.0,-114.0,-29.0,-24.0
2879.0,2743.0,2895.0,3187.0,3035.0,0.502136,0.567017,-0.511841,-0.405396,0.0,2.0,-3.0,416.0,7893.0,-1609.0,-28.0,-171.0,-240.0,259.0,59.0,-129.0,0.054296,0.984435,-0.167003,820.0,15346.0,-3262.0,9.0,68.0,-58.0
2882.0,2758.0,2903.0,3149.0,3043.0,0.502014,0.567566,-0.511597,-0.40509,2.0,3.0,-3.0,383.0,7885.0,-1592.0,-57.0,-178.0,-217.0,233.0,85.0,-141.0,0.053827,0.984338,-0.167746,468.0,15826.0,-3038.0,67.0,91.0,-60.0
2881.0,2757.0,2903.0,3147.0,3042.0,0.50116,0.568909,-0.511108,-0.404907,3.0,-1.0,-4.0,176.0,7940.0,-1565.0,-246.0,-122.0,-174.0,153.0,267.0,-103.0,0.051583,0.984131,-0.169778,-2.0,16108.0,-2914.0,76.0,0.0,-74.0
2877.0,2736.0,2893.0,3133.0,3035.0,0.500671,0.569153,-0.511169,-0.40509,2.0,-3.0,-2.0,219.0,8000.0,-1499.0,-196.0,-61.0,-102.0,80.0,207.0,-52.0,0.050739,0.984057,-0.170459,822.0,16430.0,-2574.0,51.0,-63.0,-41.0
2878.0,2746.0,2895.0,3133.0,3033.0,0.500427,0.568726,-0.511414,-0.40564,-3.0,-3.0,0.0,302.0,8134.0,-1448.0,-111.0,72.0,-55.0,24.0,119.0,74.0,0.050455,0.984111,-0.170022,744.0,16396.0,-2962.0,-61.0,-66.0,8.0
2879.0,2757.0,2907.0,3151.0,3043.0,0.500549,0.56842,-0.511414,-0.406006,-4.0,-2.0,0.0,357.0,8098.0,-1466.0,-55.0,34.0,-79.0,62.0,67.0,44.0,0.050411,0.984319,-0.169255,1112.0,15912.0,-3052.0,-74.0,-39.0,0.0
2881.0,2759.0,2903.0,3147.0,3043.0,0.500854,0.568481,-0.511047,-0.405884,-1.0,3.0,-2.0,418.0,8027.0,-1527.0,4.0,-36.0,-144.0,147.0,17.0,-10.0,0.050446,0.984305,-0.168744,794.0,15972.0,-3200.0,-17.0,82.0,-31.0
2878.0,2743.0,2894.0,3133.0,3031.0,0.500977,0.568848,-0.510742,-0.40564,-1.0,4.0,-2.0,387.0,8008.0,-1546.0,-24.0,-55.0,-162.0,163.0,47.0,-27.0,0.050245,0.984313,-0.168924,530.0,15870.0,-3192.0,-1.0,102.0,-38.0
2879.0,2745.0,2895.0,3139.0,3055.0,0.500854,0.56958,-0.510315,-0.405273,1.0,1.0,0.0,208.0,8046.0,-1558.0,-197.0,-16.0,-167.0,135.0,220.0,2.0,0.049516,0.984188,-0.169741,-42.0,16396.0,-2968.0,24.0,24.0,8.0
2883.0,2755.0,2903.0,3147.0,3039.0,0.500732,0.56958,-0.510376,-0.405334,-1.0,-2.0,1.0,145.0,8115.0,-1525.0,-259.0,52.0,-133.0,81.0,277.0,60.0,0.049383,0.98416,-0.169876,-52.0,16626.0,-2862.0,-2.0,-27.0,33.0
2885.0,2757.0,2910.0,3149.0,3043.0,0.500793,0.568787,-0.510742,-0.405945,-4.0,-4.0,3.0,182.0,8204.0,-1453.0,-225.0,140.0,-70.0,10.0,236.0,138.0,0.049761,0.984356,-0.168791,736.0,16622.0,-2734.0,-80.0,-82.0,73.0
2879.0,2747.0,2893.0,3133.0,3035.0,0.50116,0.568115,-0.510925,-0.40625,-6.0,-3.0,3.0,256.0,8213.0,-1438.0,-157.0,147.0,-65.0,14.0,168.0,147.0,0.050517,0.98456,-0.167599,984.0,16408.0,-2828.0,-117.0,-61.0,86.0
2879.0,2750.0,2893.0,3135.0,3035.0,0.502136,0.567078,-0.510925,-0.406494,-5.0,1.0,2.0,380.0,8017.0,-1496.0,-46.0,-51.0,-142.0,140.0,65.0,-29.0,0.052081,0.984877,-0.165243,972.0,15194.0,-3248.0,-97.0,31.0,46.0
2882.0,2759.0,2903.0,3149.0,3045.0,0.50238,0.567139,-0.510803,-0.40625,-1.0,3.0,0.0,393.0,7896.0,-1522.0,-36.0,-172.0,-169.0,188.0,57.0,-143.0,0.052435,0.984866,-0.165141,822.0,15102.0,-3172.0,-22.0,73.0,11.0
2882.0,2759.0,2906.0,3153.0,3047.0,0.502258,0.568115,-0.51062,-0.405273,4.0,3.0,-1.0,314.0,7841.0,-1510.0,-115.0,-224.0,-142.0,159.0,129.0,-202.0,0.052442,0.984563,-0.166978,182.0,15906.0,-2906.0,114.0,90.0,-8.0
2875.0,2749.0,2895.0,3134.0,3025.0,0.501953,0.568542,-0.510681,-0.404907,4.0,1.0,0.0,242.0,7932.0,-1464.0,-186.0,-131.0,-86.0,78.0,193.0,-124.0,0.052262,0.98432,-0.168129,120.0,16520.0,-2594.0,101.0,26.0,20.0
2879.0,2750.0,2896.0,3135.0,3035.0,0.501892,0.568054,-0.511169,-0.40509,-3.0,-4.0,3.0,259.0,8101.0,-1355.0,-174.0,37.0,21.0,-52.0,169.0,23.0,0.052877,0.984343,-0.167986,670.0,16436.0,-2534.0,-53.0,-78.0,79.0
2881.0,2763.0,2903.0,3147.0,3047.0,0.502075,0.567383,-0.511414,-0.405457,-5.0,-5.0,3.0,280.0,8087.0,-1359.0,-157.0,22.0,9.0,-35.0,154.0,11.0,0.053438,0.98445,-0.166993,688.0,15978.0,-2778.0,-108.0,-96.0,79.0
49.0,3043.0,0.917969,0.312012,-0.233337,0.074158,1.0,0.0,1.0,3676.0,4261.0,5558.0,-212.0,-148.0,-146.0,-89.0,-26.0,-281.0,0.474669,0.538226,0.696368,7448.0,8534.0,11032.0,36.0,11.0,43.0,,,
2870.0,2803.0,2896.0,3135.0,3037.0,0.917908,0.312134,-0.233276,0.074402,1.0,0.0,1.0,3673.0,4264.0,5549.0,-215.0,-145.0,-154.0,-89.0,-19.0,-287.0,0.474699,0.538308,0.696245,7310.0,8560.0,11028.0,38.0,15.0,37.0
2871.0,2809.0,2893.0,3127.0,3031.0,0.917786,0.312378,-0.233215,0.074768,1.0,0.0,1.0,3677.0,4245.0,5541.0,-212.0,-166.0,-160.0,-78.0,-32.0,-301.0,0.474795,0.538518,0.695951,7378.0,8396.0,11058.0,31.0,3.0,26.0
2871.0,2819.0,2903.0,3151.0,3043.0,0.917786,0.312439,-0.233215,0.074951,1.0,0.0,1.0,3679.0,4238.0,5539.0,-211.0,-173.0,-162.0,-74.0,-36.0,-306.0,0.474919,0.538544,0.695941,7388.0,8454.0,11070.0,30.0,4.0,27.0
2879.0,2815.0,2903.0,3147.0,3043.0,0.917725,0.312622,-0.233154,0.075256,1.0,0.0,0.0,3706.0,4246.0,5549.0,-185.0,-167.0,-150.0,-58.0,-39.0,-282.0,0.474996,0.538709,0.695789,7492.0,8582.0,11172.0,25.0,13.0,16.0
2871.0,2800.0,2890.0,3131.0,3035.0,0.917664,0.312744,-0.233032,0.075317,0.0,0.0,0.0,3709.0,4279.0,5554.0,-180.0,-135.0,-144.0,-65.0,-17.0,-258.0,0.474801,0.538885,0.695666,7402.0,8798.0,11138.0,21.0,18.0,10.0
2869.0,2800.0,2894.0,3135.0,3035.0,0.917664,0.312805,-0.232849,0.075439,-1.0,0.0,0.0,3724.0,4357.0,5578.0,-163.0,-58.0,-121.0,-80.0,28.0,-192.0,0.47455,0.538968,0.695732,7576.0,8894.0,11212.0,-2.0,7.0,14.0
2875.0,2819.0,2903.0,3147.0,3038.0,0.917725,0.312805,-0.232788,0.0755,-1.0,0.0,0.0,3742.0,4380.0,5601.0,-145.0,-35.0,-99.0,-80.0,33.0,-156.0,0.474505,0.538987,0.695881,7584.0,8906.0,11326.0,-7.0,14.0,15.0
2875.0,2819.0,2905.0,3149.0,3047.0,0.917786,0.312622,-0.232666,0.075684,-2.0,0.0,1.0,3751.0,4431.0,5626.0,-135.0,18.0,-77.0,-94.0,62.0,-107.0,0.474396,0.538622,0.696193,7492.0,8952.0,11304.0,-25.0,15.0,30.0
2875.0,2805.0,2896.0,3179.0,3023.0,0.917847,0.3125,-0.232605,0.075867,-2.0,0.0,1.0,3758.0,4432.0,5643.0,-128.0,21.0,-62.0,-95.0,55.0,-92.0,0.474408,0.53836,0.696437,7582.0,8844.0,11384.0,-31.0,9.0,41.0
2875.0,2802.0,2896.0,3135.0,3039.0,0.917908,0.312012,-0.232727,0.076233,-2.0,0.0,2.0,3782.0,4376.0,5644.0,-107.0,-25.0,-64.0,-62.0,19.0,-108.0,0.474815,0.537313,0.696853,7614.0,8522.0,11260.0,-31.0,5.0,52.0
2873.0,2819.0,2910.0,3147.0,3051.0,0.917969,0.311768,-0.232849,0.076477,-2.0,-1.0,2.0,3778.0,4336.0,5637.0,-114.0,-61.0,-73.0,-55.0,-3.0,-137.0,0.475183,0.536771,0.697098,7516.0,8458.0,11224.0,-35.0,-1.0,54.0
2875.0,2819.0,2903.0,3147.0,3043.0,0.918091,0.311157,-0.233032,0.076904,-3.0,0.0,1.0,3800.0,4263.0,5621.0,-97.0,-123.0,-94.0,-14.0,-40.0,-177.0,0.475748,0.535499,0.697682,7786.0,8270.0,11184.0,-49.0,1.0,45.0
2891.0,2806.0,2891.0,3138.0,3029.0,0.918213,0.310791,-0.233093,0.077087,-3.0,1.0,1.0,3825.0,4236.0,5609.0,-74.0,-145.0,-110.0,18.0,-48.0,-189.0,0.475975,0.534808,0.698134,7738.0,8354.0,11122.0,-46.0,24.0,35.0
2871.0,2805.0,2896.0,3135.0,3031.0,0.918457,0.31012,-0.23291,0.077393,-4.0,2.0,1.0,3851.0,4261.0,5581.0,-47.0,-110.0,-146.0,45.0,1.0,-183.0,0.475838,0.533612,0.699132,7764.0,8634.0,11110.0,-71.0,51.0,26.0
