flex_1,flex_2,flex_3,flex_4,flex_5,Qw,Qx,Qy,Qz,GYRx,GYRy,GYRz,ACCx,ACCy,ACCz,ACCx_real,ACCy_real,ACCz_real,ACCx_world,ACCy_world,ACCz_world,GRAx,GRAy,GRAz,ACCx_raw,ACCy_raw,ACCz_raw,GYRx_raw,GYRy_raw,GYRz_raw
2843.0,2781.0,2855.0,3135.0,3039.0,1.0,0.0,0.0,0.0,0.0,0.0,0.0,0.0,0.0,0.0,0.0,0.0,0.0,0.0,0.0,0.0,0.0,0.0,0.0,0.0,0.0,0.0,0.0,0.0,0.0
2830.0,2783.0,2832.0,3167.0,3088.0,0.937561,-0.036316,-0.345886,0.000366,-3.0,-4.0,0.0,6201.0,-519.0,4802.0,888.0,40.0,-1408.0,1589.0,-32.0,-494.0,0.648552,-0.06835,0.758065,12520.0,-1398.0,9528.0,-64.0,-72.0,6.0
2834.0,2774.0,2851.0,3153.0,3055.0,0.936768,-0.036621,-0.347961,0.000366,1.0,-2.0,0.0,6300.0,-617.0,4802.0,959.0,-52.0,-1383.0,1627.0,-121.0,-415.0,0.651891,-0.068866,0.755115,12846.0,-1368.0,9630.0,23.0,-29.0,1.0
2859.0,2789.0,2847.0,3149.0,3047.0,0.936462,-0.036499,-0.348755,0.000427,1.0,0.0,-1.0,6323.0,-598.0,4818.0,972.0,-35.0,-1358.0,1621.0,-101.0,-386.0,0.65316,-0.068658,0.754,12780.0,-986.0,9764.0,42.0,5.0,-1.0
2835.0,2783.0,2870.0,3133.0,3035.0,0.936096,-0.036133,-0.349854,0.000366,0.0,1.0,-1.0,6290.0,-493.0,4823.0,924.0,63.0,-1342.0,1578.0,-3.0,-409.0,0.654967,-0.067904,0.752573,12328.0,-680.0,9598.0,5.0,36.0,-17.0
2862.0,2783.0,2832.0,3135.0,3061.0,0.935852,-0.036133,-0.350464,0.000122,-2.0,0.0,-2.0,6247.0,-458.0,4810.0,873.0,96.0,-1347.0,1544.0,27.0,-446.0,0.655956,-0.067715,0.751689,12252.0,-756.0,9536.0,-29.0,9.0,-25.0
2863.0,2783.0,2861.0,3135.0,3071.0,0.935242,-0.036499,-0.352112,-0.000427,-3.0,-3.0,-2.0,6208.0,-496.0,4763.0,812.0,60.0,-1375.0,1517.0,-14.0,-499.0,0.658651,-0.06797,0.749362,12396.0,-1180.0,9394.0,-53.0,-52.0,-38.0
2839.0,2783.0,2869.0,3143.0,3043.0,0.934814,-0.036682,-0.353149,-0.000671,-2.0,-4.0,-2.0,6223.0,-536.0,4745.0,813.0,21.0,-1381.0,1522.0,-54.0,-497.0,0.660308,-0.068108,0.747818,12594.0,-1330.0,9398.0,-44.0,-72.0,-40.0
2839.0,2770.0,2855.0,3147.0,3025.0,0.934021,-0.036987,-0.355286,-0.001099,-1.0,-3.0,-2.0,6331.0,-566.0,4728.0,893.0,-6.0,-1373.0,1578.0,-80.0,-429.0,0.66377,-0.068313,0.7448,13058.0,-1122.0,9446.0,-19.0,-49.0,-25.0
2863.0,2783.0,2863.0,3147.0,3055.0,0.933716,-0.037048,-0.35614,-0.001221,-1.0,-1.0,-1.0,6396.0,-572.0,4719.0,947.0,-12.0,-1372.0,1618.0,-85.0,-389.0,0.665158,-0.068316,0.743618,13176.0,-1186.0,9362.0,-8.0,-2.0,-16.0
2847.0,2783.0,2861.0,3151.0,3058.0,0.933289,-0.036987,-0.357117,-0.001282,0.0,3.0,-1.0,6430.0,-557.0,4691.0,968.0,1.0,-1388.0,1646.0,-72.0,-384.0,0.666681,-0.068124,0.742129,12760.0,-978.0,9266.0,21.0,85.0,-2.0
2855.0,2767.0,2869.0,3155.0,3039.0,0.933228,-0.036865,-0.357361,-0.001343,0.0,4.0,-1.0,6402.0,-524.0,4687.0,937.0,31.0,-1390.0,1625.0,-43.0,-408.0,0.667097,-0.067848,0.74185,12642.0,-832.0,9396.0,21.0,92.0,-6.0
2845.0,2769.0,2864.0,3147.0,3023.0,0.932983,-0.036682,-0.357971,-0.001465,-1.0,2.0,-1.0,6325.0,-481.0,4727.0,852.0,71.0,-1343.0,1532.0,-2.0,-430.0,0.66807,-0.067399,0.740971,12530.0,-872.0,9644.0,-2.0,49.0,-3.0
2851.0,2780.0,2879.0,3153.0,3039.0,0.9328,-0.036743,-0.358459,-0.001526,-1.0,1.0,0.0,6270.0,-484.0,4727.0,790.0,68.0,-1337.0,1482.0,-6.0,-465.0,0.668854,-0.067454,0.740276,12202.0,-1024.0,9452.0,-14.0,25.0,1.0
2855.0,2791.0,2850.0,3159.0,3055.0,0.932251,-0.036987,-0.359802,-0.001648,-1.0,-2.0,-1.0,6251.0,-511.0,4772.0,754.0,44.0,-1275.0,1415.0,-27.0,-438.0,0.670974,-0.067777,0.738269,12488.0,-1140.0,9654.0,-17.0,-28.0,-4.0
2845.0,2762.0,2845.0,3185.0,3043.0,0.931946,-0.037048,-0.360596,-0.001648,-1.0,-2.0,-1.0,6265.0,-526.0,4796.0,758.0,29.0,-1242.0,1396.0,-40.0,-407.0,0.672233,-0.067866,0.737124,12654.0,-1134.0,9748.0,-7.0,-37.0,-4.0
2843.0,2770.0,2843.0,3139.0,3026.0,0.931396,-0.037048,-0.362,-0.001709,0.0,-1.0,-1.0,6314.0,-519.0,4842.0,788.0,36.0,-1179.0,1377.0,-28.0,-337.0,0.674457,-0.067776,0.735086,12728.0,-990.0,9772.0,15.0,0.0,-4.0
2845.0,2787.0,2864.0,3153.0,3045.0,0.931213,-0.036926,-0.362549,-0.001709,1.0,0.0,-1.0,6309.0,-513.0,4837.0,776.0,40.0,-1178.0,1368.0,-24.0,-343.0,0.675347,-0.067533,0.734356,12558.0,-962.0,9646.0,23.0,21.0,-9.0
2855.0,2785.0,2867.0,3149.0,3051.0,0.930847,-0.036621,-0.363586,-0.00177,0.0,0.0,-1.0,6265.0,-466.0,4825.0,718.0,81.0,-1179.0,1328.0,15.0,-383.0,0.677016,-0.06689,0.732943,12444.0,-716.0,9680.0,19.0,4.0,-4.0
2865.0,2775.0,2832.0,3145.0,3015.0,0.930603,-0.036499,-0.364197,-0.00177,0.0,-1.0,0.0,6258.0,-440.0,4830.0,704.0,105.0,-1166.0,1310.0,40.0,-383.0,0.677974,-0.066643,0.732054,12464.0,-768.0,9684.0,3.0,-18.0,6.0
2855.0,2781.0,2835.0,3126.0,3043.0,0.929993,-0.036621,-0.365723,-0.001709,-1.0,-3.0,0.0,6263.0,-449.0,4827.0,689.0,98.0,-1151.0,1290.0,34.0,-377.0,0.680364,-0.066865,0.729795,12582.0,-1024.0,9714.0,-16.0,-53.0,16.0
2839.0,2769.0,2862.0,3151.0,3031.0,0.929626,-0.036743,-0.366638,-0.001648,-1.0,-3.0,0.0,6279.0,-478.0,4824.0,693.0,71.0,-1143.0,1287.0,7.0,-364.0,0.681794,-0.067106,0.728435,12686.0,-1140.0,9594.0,-3.0,-62.0,19.0
2850.0,2787.0,2849.0,3151.0,3039.0,0.928955,-0.036743,-0.368347,-0.001343,0.0,-2.0,1.0,6346.0,-507.0,4834.0,738.0,44.0,-1112.0,1299.0,-14.0,-305.0,0.684455,-0.067276,0.72593,12892.0,-1060.0,9658.0,21.0,-36.0,32.0
2861.0,2771.0,2847.0,3103.0,3071.0,0.928711,-0.036682,-0.368958,-0.001099,1.0,-1.0,1.0,6381.0,-516.0,4827.0,766.0,35.0,-1112.0,1320.0,-22.0,-283.0,0.68539,-0.067323,0.72503,12954.0,-1072.0,9594.0,34.0,-2.0,35.0
2864.0,2775.0,2857.0,3131.0,3051.0,0.928345,-0.036438,-0.369934,-0.00061,1.0,1.0,1.0,6336.0,-477.0,4779.0,708.0,73.0,-1149.0,1305.0,12.0,-350.0,0.686897,-0.067202,0.723645,12326.0,-688.0,9354.0,38.0,27.0,34.0
2839.0,2768.0,2860.0,3147.0,3056.0,0.928101,-0.036316,-0.370422,-0.000488,0.0,-1.0,1.0,6282.0,-433.0,4772.0,649.0,116.0,-1149.0,1264.0,54.0,-392.0,0.687614,-0.067048,0.722839,12290.0,-628.0,9532.0,7.0,-7.0,26.0
2850.0,2789.0,2867.0,3119.0,3055.0,0.92749,-0.036682,-0.37207,-0.000427,-3.0,-4.0,1.0,6258.0,-441.0,4755.0,603.0,113.0,-1146.0,1230.0,50.0,-417.0,0.690215,-0.067727,0.720456,12538.0,-1108.0,9446.0,-54.0,-82.0,35.0
2858.0,2797.0,2847.0,3123.0,3025.0,0.927063,-0.037048,-0.373108,-0.000305,-2.0,-5.0,1.0,6279.0,-494.0,4750.0,611.0,66.0,-1138.0,1229.0,3.0,-399.0,0.691812,-0.068465,0.718864,12702.0,-1290.0,9466.0,-43.0,-102.0,41.0
2862.0,2768.0,2833.0,3151.0,3043.0,0.926208,-0.037415,-0.375122,6.1e-05,0.0,-4.0,1.0,6352.0,-539.0,4783.0,659.0,29.0,-1080.0,1224.0,-27.0,-317.0,0.694878,-0.069353,0.715746,12932.0,-1078.0,9690.0,5.0,-77.0,31.0
2847.0,2795.0,2861.0,3152.0,3047.0,0.925842,-0.037476,-0.375977,0.000183,0.0,-3.0,1.0,6385.0,-537.0,4800.0,681.0,32.0,-1052.0,1221.0,-21.0,-279.0,0.696176,-0.069531,0.714421,12980.0,-1082.0,9716.0,2.0,-50.0,27.0
2851.0,2793.0,2851.0,3135.0,3057.0,0.925354,-0.037537,-0.377197,0.000427,0.0,0.0,1.0,6388.0,-553.0,4799.0,669.0,18.0,-1038.0,1203.0,-34.0,-273.0,0.69805,-0.069792,0.712593,12668.0,-1124.0,9538.0,17.0,2.0,27.0
2854.0,2773.0,2842.0,3135.0,3043.0,0.925171,-0.037476,-0.377686,0.00061,1.0,0.0,1.0,6346.0,-534.0,4783.0,621.0,37.0,-1048.0,1177.0,-17.0,-314.0,0.698802,-0.069804,0.711891,12386.0,-910.0,9478.0,24.0,7.0,27.0
2851.0,2779.0,2859.0,3142.0,3039.0,0.924683,-0.037354,-0.378845,0.000854,0.0,-2.0,1.0,6275.0,-485.0,4773.0,536.0,86.0,-1044.0,1115.0,30.0,-371.0,0.700559,-0.069728,0.71012,12382.0,-844.0,9540.0,11.0,-42.0,28.0
2847.0,2790.0,2839.0,3158.0,3071.0,0.924377,-0.037415,-0.379639,0.001038,-1.0,-4.0,1.0,6233.0,-471.0,4751.0,484.0,102.0,-1056.0,1088.0,44.0,-416.0,0.701781,-0.069958,0.708949,12222.0,-876.0,9336.0,-10.0,-80.0,37.0
2853.0,2801.0,2839.0,3151.0,3047.0,0.923462,-0.037781,-0.381836,0.001404,-1.0,-6.0,2.0,6279.0,-504.0,4740.0,502.0,76.0,-1039.0,1090.0,20.0,-384.0,0.705116,-0.07085,0.705558,12792.0,-1200.0,9440.0,-12.0,-136.0,53.0
2833.0,2771.0,2851.0,3127.0,3059.0,0.922974,-0.037842,-0.382935,0.001709,0.0,-6.0,2.0,6330.0,-536.0,4731.0,540.0,46.0,-1034.0,1113.0,-7.0,-349.0,0.706748,-0.071163,0.703812,13026.0,-1278.0,9436.0,17.0,-119.0,50.0
2855.0,2779.0,2851.0,3123.0,3047.0,0.922241,-0.037659,-0.384705,0.00238,1.0,-2.0,2.0,6439.0,-536.0,4721.0,627.0,48.0,-1022.0,1167.0,0.0,-275.0,0.709402,-0.071292,0.701119,13026.0,-958.0,9340.0,45.0,-30.0,54.0
2847.0,2779.0,2855.0,3141.0,3055.0,0.921997,-0.037598,-0.385254,0.002686,1.0,-1.0,2.0,6425.0,-491.0,4703.0,607.0,93.0,-1033.0,1163.0,43.0,-298.0,0.710204,-0.071399,0.700252,12684.0,-684.0,9288.0,25.0,-6.0,56.0
2855.0,2797.0,2853.0,3155.0,3046.0,0.921509,-0.037842,-0.386475,0.002991,-2.0,-3.0,2.0,6345.0,-450.0,4654.0,511.0,140.0,-1067.0,1121.0,85.0,-391.0,0.712053,-0.072055,0.698393,12572.0,-978.0,9172.0,-42.0,-48.0,54.0
2847.0,2770.0,2861.0,3154.0,3027.0,0.921143,-0.038208,-0.387329,0.003235,-2.0,-4.0,2.0,6336.0,-485.0,4621.0,492.0,112.0,-1089.0,1124.0,55.0,-416.0,0.713323,-0.072896,0.69703,12648.0,-1190.0,9026.0,-41.0,-74.0,67.0
2838.0,2775.0,2850.0,3119.0,3031.0,0.920227,-0.038818,-0.389343,0.003967,-1.0,-6.0,3.0,6328.0,-560.0,4578.0,460.0,50.0,-1105.0,1113.0,-8.0,-440.0,0.71626,-0.074533,0.693739,12652.0,-1264.0,9030.0,-10.0,-121.0,83.0
2847.0,2787.0,2865.0,3131.0,3087.0,0.919739,-0.039001,-0.390503,0.004395,0.0,-7.0,3.0,6347.0,-575.0,4584.0,465.0,40.0,-1084.0,1103.0,-16.0,-419.0,0.717979,-0.075174,0.691925,12838.0,-1224.0,9238.0,2.0,-138.0,81.0
2833.0,2785.0,2842.0,3147.0,3059.0,0.918884,-0.039368,-0.392578,0.005127,-1.0,-5.0,3.0,6398.0,-548.0,4651.0,491.0,77.0,-990.0,1055.0,28.0,-333.0,0.721064,-0.076374,0.688707,12932.0,-1024.0,9432.0,-19.0,-100.0,73.0
2851.0,2756.0,2864.0,3133.0,3043.0,0.918457,-0.039612,-0.393433,0.005371,-2.0,-4.0,3.0,6420.0,-551.0,4662.0,503.0,79.0,-967.0,1048.0,33.0,-307.0,0.722276,-0.07699,0.687234,12938.0,-1166.0,9374.0,-36.0,-75.0,72.0
2845.0,2767.0,2847.0,3133.0,3047.0,0.917847,-0.040161,-0.394836,0.005859,-1.0,-3.0,2.0,6399.0,-578.0,4625.0,465.0,63.0,-986.0,1036.0,14.0,-343.0,0.724328,-0.078351,0.684968,12678.0,-1186.0,9074.0,-20.0,-55.0,61.0
2858.0,2779.0,2864.0,3131.0,3071.0,0.91748,-0.040405,-0.39563,0.006165,-1.0,-4.0,2.0,6367.0,-583.0,4593.0,423.0,64.0,-1007.0,1023.0,12.0,-386.0,0.725467,-0.07902,0.683653,12536.0,-1200.0,8990.0,-18.0,-72.0,63.0
2854.0,2783.0,2847.0,3147.0,3029.0,0.916565,-0.041016,-0.397644,0.006775,-2.0,-7.0,3.0,6292.0,-612.0,4532.0,325.0,48.0,-1041.0,982.0,-10.0,-475.0,0.728377,-0.080575,0.680334,12454.0,-1364.0,8956.0,-33.0,-156.0,74.0
2853.0,2774.0,2859.0,3151.0,3045.0,0.915955,-0.041321,-0.398987,0.007141,-1.0,-9.0,3.0,6290.0,-643.0,4517.0,307.0,23.0,-1038.0,968.0,-35.0,-481.0,0.730317,-0.081394,0.678126,12584.0,-1446.0,8926.0,-15.0,-198.0,75.0
2847.0,2775.0,2846.0,3118.0,3037.0,0.914673,-0.041687,-0.401917,0.007935,-1.0,-10.0,3.0,6365.0,-618.0,4563.0,347.0,58.0,-953.0,937.0,7.0,-391.0,0.734583,-0.082638,0.673415,13148.0,-1030.0,9454.0,-8.0,-210.0,79.0
2836.0,2790.0,2843.0,3143.0,3051.0,0.914124,-0.041992,-0.403137,0.00824,-2.0,-7.0,3.0,6438.0,-584.0,4601.0,405.0,99.0,-899.0,938.0,55.0,-313.0,0.736342,-0.083416,0.671407,13294.0,-976.0,9414.0,-42.0,-150.0,81.0
2849.0,2778.0,2865.0,3151.0,3043.0,0.913391,-0.042847,-0.404663,0.008362,-5.0,-1.0,1.0,6541.0,-582.0,4614.0,491.0,114.0,-864.0,971.0,76.0,-224.0,0.738515,-0.085039,0.668765,13356.0,-1356.0,9212.0,-96.0,-9.0,31.0
2837.0,2783.0,2835.0,3151.0,3047.0,0.913269,-0.043396,-0.404907,0.008179,-5.0,2.0,0.0,6593.0,-641.0,4571.0,540.0,62.0,-903.0,1032.0,23.0,-209.0,0.738869,-0.085888,0.668294,13596.0,-1658.0,8808.0,-92.0,62.0,8.0
2845.0,2773.0,2847.0,3127.0,3039.0,0.913391,-0.044006,-0.404602,0.00769,-2.0,7.0,-3.0,6513.0,-781.0,4436.0,463.0,-71.0,-1042.0,1080.0,-125.0,-348.0,0.738443,-0.086613,0.668703,12628.0,-2032.0,8398.0,-32.0,163.0,-48.0
2855.0,2787.0,2879.0,3143.0,3027.0,0.913452,-0.044128,-0.404358,0.007446,-1.0,5.0,-3.0,6441.0,-813.0,4397.0,394.0,-103.0,-1083.0,1063.0,-163.0,-424.0,0.738066,-0.08664,0.668998,12414.0,-1690.0,8618.0,-3.0,127.0,-51.0
2847.0,2786.0,2865.0,3149.0,3051.0,0.91333,-0.044067,-0.404724,0.007141,-1.0,0.0,-1.0,6348.0,-712.0,4418.0,296.0,-5.0,-1058.0,981.0,-69.0,-488.0,0.738664,-0.086276,0.668479,12634.0,-822.0,9048.0,-6.0,3.0,-7.0
2847.0,2771.0,2865.0,3135.0,3055.0,0.913086,-0.044189,-0.405212,0.007019,-3.0,-2.0,0.0,6364.0,-623.0,4469.0,307.0,84.0,-1000.0,948.0,23.0,-447.0,0.739367,-0.086386,0.667625,12894.0,-756.0,9218.0,-54.0,-31.0,11.0
2832.0,2755.0,2851.0,3131.0,3047.0,0.912537,-0.044983,-0.406433,0.007019,-4.0,-2.0,3.0,6531.0,-526.0,4555.0,459.0,193.0,-897.0,977.0,146.0,-273.0,0.741139,-0.087803,0.665561,13860.0,-858.0,9452.0,-82.0,-31.0,84.0
2865.0,2802.0,2855.0,3143.0,3043.0,0.912231,-0.045349,-0.407043,0.007629,-1.0,-2.0,7.0,6806.0,-478.0,4721.0,727.0,250.0,-722.0,1028.0,230.0,37.0,0.741944,-0.088949,0.664483,15570.0,-694.0,10734.0,-18.0,-24.0,183.0
2851.0,2791.0,2869.0,3171.0,3051.0,0.912354,-0.043823,-0.40686,0.011719,23.0,9.0,18.0,7789.0,-354.0,5441.0,1715.0,379.0,-7.0,1157.0,474.0,1232.0,0.741374,-0.0895,0.66507,19810.0,648.0,13946.0,542.0,226.0,433.0
2835.0,2787.0,2858.0,3153.0,3030.0,0.913574,-0.040283,-0.404297,0.015503,38.0,36.0,23.0,8895.0,51.0,6346.0,2853.0,756.0,859.0,1286.0,979.0,2614.0,0.737461,-0.086139,0.669779,24568.0,2696.0,18620.0,884.0,840.0,544.0
2859.0,2789.0,2829.0,3135.0,3047.0,0.923584,-0.033752,-0.381165,0.023499,26.0,138.0,26.0,7275.0,139.0,6203.0,1520.0,796.0,410.0,773.0,916.0,1293.0,0.702489,-0.08026,0.707134,-1296.0,1796.0,5804.0,599.0,3167.0,605.0
2865.0,2791.0,2851.0,3149.0,3055.0,0.92865,-0.036377,-0.368408,0.023376,-23.0,92.0,5.0,4954.0,104.0,2706.0,-637.0,798.0,-3240.0,1745.0,587.0,-2854.0,0.682544,-0.084787,0.725889,-1034.0,1100.0,-11076.0,-521.0,2123.0,127.0
2851.0,2800.0,2859.0,3123.0,3071.0,0.930847,-0.045898,-0.361755,0.021851,-31.0,37.0,11.0,5197.0,-1007.0,3912.0,-303.0,-177.0,-2100.0,1196.0,-344.0,-1726.0,0.671472,-0.101258,0.73398,10186.0,-5116.0,9256.0,-709.0,864.0,269.0
2847.0,2779.0,2847.0,3147.0,3029.0,0.932129,-0.049377,-0.35791,0.0224,-13.0,34.0,10.0,5116.0,-1614.0,4057.0,-331.0,-728.0,-1995.0,1094.0,-900.0,-1615.0,0.665025,-0.108087,0.738828,9854.0,-6902.0,9270.0,-290.0,795.0,232.0
2849.0,2774.0,2859.0,3147.0,3035.0,0.934448,-0.049744,-0.351562,0.026245,24.0,20.0,11.0,4747.0,-2156.0,4365.0,-614.0,-1243.0,-1761.0,717.0,-1417.0,-1580.0,0.654423,-0.111419,0.747812,8102.0,-4134.0,10008.0,557.0,475.0,259.0
2839.0,2790.0,2867.0,3133.0,3039.0,0.935303,-0.044861,-0.349548,0.030579,22.0,-2.0,5.0,4608.0,-1387.0,5051.0,-726.0,-524.0,-1105.0,191.0,-654.0,-1247.0,0.651123,-0.105294,0.75153,9278.0,-10.0,12132.0,516.0,-29.0,137.0
2849.0,2794.0,2859.0,3151.0,3056.0,0.935181,-0.042786,-0.350098,0.031555,13.0,-10.0,2.0,4600.0,-1098.0,5276.0,-742.0,-261.0,-877.0,25.0,-376.0,-1115.0,0.652109,-0.102119,0.75116,9118.0,-980.0,11600.0,319.0,-216.0,51.0
2847.0,2799.0,2859.0,3147.0,3057.0,0.933411,-0.040466,-0.35498,0.033142,16.0,-30.0,0.0,4759.0,-1520.0,5435.0,-647.0,-708.0,-665.0,-16.0,-797.0,-852.0,0.660003,-0.099073,0.744705,10592.0,-5412.0,11154.0,368.0,-675.0,10.0
2854.0,2790.0,2855.0,3141.0,3043.0,0.932007,-0.038208,-0.358704,0.034973,30.0,-34.0,2.0,5042.0,-1926.0,5460.0,-413.0,-1137.0,-599.0,139.0,-1196.0,-608.0,0.665956,-0.09631,0.739732,11978.0,-6196.0,11006.0,710.0,-759.0,47.0
2851.0,2783.0,2854.0,3131.0,3055.0,0.92926,-0.028381,-0.365967,0.041321,59.0,-28.0,5.0,5572.0,-1958.0,5450.0,19.0,-1278.0,-534.0,449.0,-1281.0,-271.0,0.677811,-0.082991,0.730495,11892.0,-2102.0,10860.0,1371.0,-641.0,120.0
2851.0,2795.0,2878.0,3151.0,3062.0,0.92804,-0.021667,-0.36908,0.044617,59.0,-30.0,4.0,5462.0,-1388.0,5376.0,-134.0,-788.0,-575.0,350.0,-801.0,-451.0,0.683107,-0.073151,0.726559,9874.0,1186.0,10142.0,1358.0,-669.0,99.0
2849.0,2783.0,2862.0,3135.0,3055.0,0.9245,-0.009949,-0.377991,0.048157,28.0,-51.0,-2.0,5079.0,168.0,5203.0,-638.0,616.0,-646.0,-50.0,563.0,-940.0,0.697946,-0.054801,0.714042,9208.0,4954.0,10490.0,655.0,-1153.0,-29.0
2847.0,2782.0,2849.0,3135.0,3047.0,0.921875,-0.007996,-0.38446,0.047302,-9.0,-64.0,-6.0,4883.0,794.0,4980.0,-917.0,1212.0,-788.0,-180.0,1137.0,-1266.0,0.708093,-0.051114,0.704217,8780.0,5032.0,7960.0,-199.0,-1444.0,-121.0
2855.0,2771.0,2853.0,3135.0,3047.0,0.914612,-0.014954,-0.402161,0.039001,-68.0,-72.0,-17.0,5470.0,906.0,5003.0,-546.0,1387.0,-535.0,-55.0,1338.0,-844.0,0.734475,-0.058723,0.676079,13632.0,-104.0,11392.0,-1538.0,-1643.0,-387.0
2847.0,2769.0,2836.0,3132.0,3047.0,0.908813,-0.02948,-0.415222,0.028259,-72.0,-37.0,-15.0,7048.0,-187.0,5209.0,878.0,444.0,-144.0,670.0,504.0,532.0,0.753053,-0.077051,0.653462,19442.0,-4124.0,11638.0,-1647.0,-846.0,-337.0
2853.0,2779.0,2819.0,3143.0,3055.0,0.907288,-0.03595,-0.418274,0.024109,-55.0,-12.0,-13.0,7473.0,-783.0,5075.0,1269.0,-83.0,-229.0,998.0,0.0,819.0,0.757256,-0.085402,0.647507,16546.0,-5006.0,8710.0,-1252.0,-273.0,-286.0
2847.0,2771.0,2837.0,3157.0,3059.0,0.905945,-0.043091,-0.420715,0.018982,-21.0,-1.0,-11.0,7298.0,-1290.0,4492.0,1066.0,-519.0,-769.0,1274.0,-489.0,365.0,0.760654,-0.094048,0.642238,12928.0,-2766.0,7232.0,-460.0,-3.0,-238.0
2837.0,2763.0,2832.0,3135.0,3057.0,0.905457,-0.044495,-0.421631,0.01709,-16.0,-4.0,-11.0,7076.0,-1052.0,4354.0,833.0,-273.0,-892.0,1216.0,-273.0,89.0,0.762016,-0.094987,0.640391,13140.0,-384.0,8184.0,-350.0,-88.0,-232.0
2839.0,2766.0,2798.0,3139.0,3031.0,0.903931,-0.047791,-0.424744,0.012756,-29.0,-11.0,-5.0,7272.0,-355.0,4433.0,991.0,441.0,-765.0,1229.0,444.0,231.0,0.766658,-0.097235,0.634562,16098.0,822.0,9394.0,-646.0,-246.0,-114.0
2847.0,2793.0,2843.0,3135.0,3039.0,0.902771,-0.050598,-0.426941,0.010864,-31.0,-16.0,0.0,7472.0,-310.0,4504.0,1166.0,514.0,-659.0,1261.0,530.0,430.0,0.76976,-0.100634,0.630275,16010.0,-842.0,9294.0,-695.0,-345.0,3.0
2850.0,2779.0,2833.0,3151.0,3055.0,0.900085,-0.056091,-0.432007,0.009888,-16.0,-15.0,9.0,7915.0,-647.0,4574.0,1553.0,250.0,-508.0,1376.0,304.0,863.0,0.776577,-0.109517,0.620475,17480.0,-2450.0,9214.0,-358.0,-331.0,209.0
2847.0,2763.0,2830.0,3139.0,3047.0,0.899048,-0.057129,-0.433899,0.011108,2.0,-10.0,12.0,8395.0,-894.0,4666.0,2014.0,26.0,-387.0,1558.0,129.0,1327.0,0.778923,-0.112363,0.616878,20146.0,-3374.0,10148.0,62.0,-218.0,288.0
2839.0,2767.0,2826.0,3126.0,3046.0,0.898438,-0.052063,-0.435547,0.020264,58.0,9.0,30.0,9553.0,-1271.0,5307.0,3159.0,-360.0,267.0,1745.0,-79.0,2669.0,0.780513,-0.111202,0.615189,21086.0,-2634.0,12844.0,1343.0,225.0,690.0
2843.0,2791.0,2835.0,3151.0,3057.0,0.900452,-0.045044,-0.431702,0.027039,82.0,44.0,24.0,8990.0,-1086.0,5724.0,2641.0,-230.0,619.0,1172.0,38.0,2456.0,0.775017,-0.104465,0.623149,13188.0,-1048.0,13832.0,1880.0,1009.0,558.0
2843.0,2800.0,2843.0,3143.0,3055.0,0.909668,-0.026794,-0.412659,0.037964,92.0,81.0,0.0,5758.0,-1421.0,4368.0,-375.0,-764.0,-1021.0,558.0,-812.0,-891.0,0.74873,-0.08008,0.657932,-282.0,-4294.0,752.0,2128.0,1865.0,15.0
2847.0,2787.0,2834.0,3152.0,3037.0,0.911194,-0.016296,-0.409363,0.042664,20.0,-39.0,2.0,4155.0,-363.0,2745.0,-1944.0,166.0,-2696.0,719.0,2.0,-3249.0,0.744627,-0.064628,0.664251,16854.0,2940.0,16150.0,466.0,-872.0,49.0
2847.0,2775.0,2843.0,3143.0,3045.0,0.9104,-0.01593,-0.411072,0.043152,-12.0,-4.0,13.0,5793.0,578.0,4204.0,-327.0,1106.0,-1214.0,622.0,1079.0,-1118.0,0.747105,-0.064483,0.661457,20312.0,6608.0,15414.0,-269.0,-83.0,306.0
2855.0,2779.0,2832.0,3135.0,3031.0,0.914246,-0.022766,-0.402527,0.040039,-40.0,68.0,1.0,7066.0,400.0,4490.0,1051.0,1005.0,-1038.0,1417.0,1087.0,-3.0,0.734194,-0.073861,0.674902,16192.0,-2852.0,8696.0,-916.0,1580.0,37.0
2847.0,2783.0,2853.0,3155.0,3055.0,0.917847,-0.027161,-0.394165,0.038269,-29.0,87.0,-2.0,6807.0,-368.0,4379.0,896.0,287.0,-1255.0,1511.0,343.0,-239.0,0.721487,-0.080027,0.687803,10604.0,-5496.0,7776.0,-651.0,2008.0,-40.0
2861.0,2791.0,2865.0,3151.0,3063.0,0.924011,-0.031799,-0.379028,0.038513,4.0,41.0,2.0,4617.0,-1476.0,3937.0,-1101.0,-755.0,-1884.0,578.0,-911.0,-2040.0,0.698003,-0.087961,0.710606,2736.0,-4922.0,7588.0,112.0,962.0,66.0
2846.0,2775.0,2847.0,3135.0,3037.0,0.924927,-0.031128,-0.37677,0.039612,17.0,2.0,-1.0,3750.0,-1604.0,3984.0,-1939.0,-887.0,-1866.0,-33.0,-1121.0,-2601.0,0.694503,-0.087431,0.714134,2808.0,-3652.0,8420.0,398.0,51.0,-2.0
2847.0,2782.0,2853.0,3143.0,3047.0,0.921387,-0.025757,-0.385437,0.042847,35.0,-73.0,-2.0,3150.0,-2025.0,4102.0,-2650.0,-1365.0,-1645.0,-600.0,-1643.0,-2920.0,0.708066,-0.080493,0.701564,6612.0,-5648.0,8424.0,820.0,-1654.0,-39.0
2859.0,2795.0,2853.0,3153.0,3051.0,0.917236,-0.02124,-0.395081,0.045837,49.0,-93.0,2.0,3702.0,-2227.0,4150.0,-2219.0,-1611.0,-1476.0,-335.0,-1830.0,-2496.0,0.722817,-0.075184,0.686884,11684.0,-5410.0,8762.0,1126.0,-2125.0,48.0
2847.0,2791.0,2847.0,3138.0,3047.0,0.908203,-0.007996,-0.414795,0.054199,65.0,-75.0,8.0,5714.0,-1561.0,4514.0,-451.0,-1073.0,-857.0,451.0,-1087.0,-837.0,0.752569,-0.059486,0.655652,17686.0,1356.0,11096.0,1497.0,-1708.0,194.0
2858.0,2782.0,2853.0,3152.0,3043.0,0.903198,0.003113,-0.42511,0.058899,13.0,-34.0,5.0,6479.0,519.0,5052.0,185.0,883.0,-178.0,157.0,905.0,-10.0,0.768284,-0.044454,0.638508,12380.0,7050.0,10712.0,320.0,-775.0,127.0
2853.0,2771.0,2839.0,3127.0,3039.0,0.901489,0.00293,-0.428955,0.057129,-29.0,-37.0,-2.0,6280.0,1194.0,4920.0,-58.0,1552.0,-256.0,-2.0,1549.0,-274.0,0.773732,-0.043729,0.631936,11390.0,5408.0,8762.0,-659.0,-836.0,-43.0
2849.0,2763.0,2835.0,3143.0,3045.0,0.89679,-0.00708,-0.439636,0.048828,-70.0,-49.0,-9.0,6104.0,865.0,4799.0,-349.0,1320.0,-225.0,-142.0,1287.0,-486.0,0.787831,-0.055632,0.613286,12188.0,-852.0,9242.0,-1582.0,-1100.0,-185.0
2849.0,2774.0,2835.0,3127.0,3039.0,0.894043,-0.014343,-0.445496,0.04425,-72.0,-49.0,-7.0,6338.0,265.0,4633.0,-177.0,798.0,-303.0,82.0,782.0,-375.0,0.795315,-0.065074,0.602599,15052.0,-3184.0,8296.0,-1637.0,-1103.0,-160.0
2847.0,2779.0,2837.0,3150.0,3043.0,0.889038,-0.027588,-0.455444,0.036987,-48.0,-24.0,-8.0,7661.0,-972.0,4746.0,1043.0,-294.0,-34.0,646.0,-198.0,846.0,0.807774,-0.082745,0.583566,18880.0,-5182.0,9528.0,-1077.0,-544.0,-171.0
2851.0,2755.0,2821.0,3155.0,3031.0,0.888062,-0.030945,-0.457275,0.034607,-24.0,-4.0,-11.0,8080.0,-1415.0,4624.0,1444.0,-705.0,-125.0,961.0,-575.0,1158.0,0.810036,-0.086612,0.579792,18300.0,-5128.0,8456.0,-534.0,-88.0,-243.0
2847.0,2766.0,2834.0,3135.0,3043.0,0.888672,-0.031067,-0.45636,0.032715,8.0,16.0,-8.0,8176.0,-1408.0,4425.0,1548.0,-711.0,-339.0,1196.0,-582.0,1115.0,0.809076,-0.085076,0.581578,15600.0,-1392.0,8422.0,195.0,381.0,-183.0
2851.0,2767.0,2827.0,3143.0,3035.0,0.890198,-0.028381,-0.453552,0.032043,2.0,10.0,-4.0,7222.0,-517.0,4242.0,621.0,135.0,-566.0,818.0,173.0,157.0,0.805683,-0.079597,0.586964,10434.0,1658.0,7614.0,46.0,247.0,-91.0
2854.0,2779.0,2839.0,3147.0,3047.0,0.890198,-0.028442,-0.453613,0.030945,-11.0,-5.0,-4.0,6671.0,-233.0,4160.0,69.0,411.0,-647.0,552.0,400.0,-356.0,0.805851,-0.078713,0.586836,10438.0,858.0,7992.0,-245.0,-94.0,-82.0
2855.0,2779.0,2833.0,3135.0,3047.0,0.887695,-0.032532,-0.458374,0.028625,-25.0,-31.0,3.0,6243.0,-301.0,4151.0,-408.0,387.0,-581.0,229.0,334.0,-699.0,0.81193,-0.083999,0.577657,12180.0,-1326.0,8398.0,-564.0,-708.0,80.0
2855.0,2763.0,2843.0,3139.0,3043.0,0.885559,-0.035339,-0.462341,0.027954,-24.0,-36.0,5.0,6397.0,-503.0,4188.0,-294.0,221.0,-481.0,223.0,178.0,-533.0,0.816885,-0.088439,0.569988,14128.0,-2362.0,8600.0,-543.0,-816.0,120.0
2847.0,2755.0,2838.0,3151.0,3047.0,0.882202,-0.039551,-0.468445,0.027466,-10.0,-14.0,1.0,7207.0,-1017.0,4191.0,453.0,-234.0,-380.0,571.0,-210.0,183.0,0.824353,-0.095516,0.55803,16792.0,-3486.0,8112.0,-207.0,-299.0,25.0
2848.0,2773.0,2831.0,3139.0,3051.0,0.881897,-0.039917,-0.468933,0.027161,0.0,4.0,-5.0,7495.0,-1154.0,4158.0,737.0,-368.0,-404.0,750.0,-321.0,418.0,0.824933,-0.095878,0.556988,16426.0,-2890.0,8190.0,8.0,110.0,-100.0
2846.0,2774.0,2837.0,3147.0,3039.0,0.88385,-0.037598,-0.465576,0.025452,7.0,24.0,-15.0,7286.0,-947.0,4041.0,559.0,-208.0,-576.0,793.0,-187.0,153.0,0.821085,-0.090161,0.563664,13056.0,-814.0,7700.0,176.0,552.0,-325.0
2849.0,2768.0,2823.0,3139.0,3031.0,0.885071,-0.036072,-0.463379,0.023926,4.0,21.0,-16.0,6953.0,-775.0,3972.0,247.0,-70.0,-680.0,700.0,-79.0,-177.0,0.81852,-0.086026,0.567902,11784.0,-600.0,7528.0,104.0,489.0,-363.0
2847.0,2765.0,2839.0,3154.0,3037.0,0.886047,-0.034729,-0.461731,0.020996,-5.0,0.0,-9.0,6434.0,-574.0,3924.0,-257.0,88.0,-754.0,470.0,38.0,-647.0,0.816773,-0.080932,0.571119,12038.0,-738.0,7950.0,-94.0,13.0,-190.0
2846.0,2775.0,2846.0,3151.0,3039.0,0.885681,-0.035095,-0.462524,0.020081,-8.0,-8.0,-4.0,6439.0,-545.0,3989.0,-261.0,116.0,-677.0,406.0,68.0,-608.0,0.817889,-0.080742,0.569674,13200.0,-978.0,8460.0,-174.0,-167.0,-76.0
2852.0,2773.0,2837.0,3141.0,3047.0,0.884521,-0.036743,-0.464661,0.019104,-7.0,-6.0,0.0,6806.0,-655.0,4094.0,83.0,22.0,-538.0,490.0,2.0,-237.0,0.820601,-0.082754,0.565484,14930.0,-1824.0,8408.0,-153.0,-123.0,8.0
2847.0,2769.0,2831.0,3149.0,3047.0,0.884277,-0.037231,-0.465027,0.018982,-3.0,1.0,-1.0,6963.0,-733.0,4106.0,237.0,-48.0,-519.0,561.0,-56.0,-94.0,0.821012,-0.0835,0.564671,14720.0,-1888.0,8212.0,-50.0,29.0,-6.0
2851.0,2767.0,2834.0,3151.0,3039.0,0.884888,-0.036621,-0.463989,0.018677,3.0,9.0,-4.0,6907.0,-648.0,4044.0,191.0,24.0,-598.0,600.0,8.0,-184.0,0.819789,-0.082143,0.566748,13344.0,-672.0,7960.0,82.0,213.0,-79.0
2858.0,2770.0,2837.0,3143.0,3035.0,0.885315,-0.03595,-0.463257,0.01825,2.0,8.0,-5.0,6827.0,-545.0,4032.0,118.0,114.0,-622.0,578.0,92.0,-265.0,0.818944,-0.080562,0.568216,13224.0,-514.0,7956.0,63.0,203.0,-96.0
2855.0,2775.0,2835.0,3150.0,3055.0,0.885925,-0.035095,-0.462158,0.017456,-1.0,5.0,-3.0,6709.0,-416.0,4012.0,10.0,225.0,-660.0,547.0,194.0,-385.0,0.81765,-0.078318,0.570346,13104.0,-562.0,7888.0,-3.0,131.0,-56.0
2858.0,2779.0,2843.0,3147.0,3043.0,0.886047,-0.035034,-0.461975,0.01709,-2.0,3.0,-2.0,6642.0,-388.0,3984.0,-54.0,249.0,-691.0,536.0,212.0,-457.0,0.817466,-0.077874,0.570724,12848.0,-602.0,7788.0,-36.0,82.0,-34.0
2839.0,2759.0,2833.0,3135.0,3039.0,0.885803,-0.035522,-0.462341,0.016418,-5.0,-2.0,0.0,6623.0,-328.0,4011.0,-77.0,311.0,-657.0,496.0,273.0,-461.0,0.81792,-0.078114,0.569896,13488.0,-590.0,8268.0,-114.0,-38.0,7.0
2851.0,2769.0,2831.0,3133.0,3055.0,0.88562,-0.036072,-0.462769,0.016113,-7.0,-2.0,0.0,6698.0,-355.0,4046.0,-7.0,290.0,-616.0,503.0,258.0,-379.0,0.818512,-0.078805,0.569127,13922.0,-966.0,8302.0,-151.0,-32.0,21.0
2847.0,2768.0,2843.0,3155.0,3047.0,0.885498,-0.037354,-0.46283,0.015625,-4.0,4.0,0.0,6853.0,-547.0,4077.0,147.0,113.0,-582.0,562.0,91.0,-219.0,0.818502,-0.080616,0.568744,14078.0,-1746.0,8262.0,-80.0,106.0,8.0
2858.0,2767.0,2831.0,3135.0,3039.0,0.885742,-0.037537,-0.462341,0.015564,0.0,7.0,-1.0,6879.0,-650.0,4081.0,179.0,12.0,-585.0,582.0,-7.0,-187.0,0.817862,-0.080887,0.569613,13818.0,-1856.0,8148.0,3.0,176.0,-4.0
2843.0,2769.0,2832.0,3143.0,3057.0,0.886597,-0.036926,-0.460754,0.016052,6.0,9.0,0.0,6790.0,-739.0,4085.0,106.0,-81.0,-606.0,556.0,-104.0,-254.0,0.815821,-0.08027,0.572653,13010.0,-1544.0,8180.0,142.0,220.0,12.0
2850.0,2773.0,2837.0,3139.0,3047.0,0.886963,-0.036316,-0.460022,0.016602,6.0,6.0,1.0,6629.0,-720.0,4070.0,-46.0,-67.0,-632.0,489.0,-100.0,-394.0,0.814839,-0.079696,0.57404,12196.0,-1308.0,8080.0,156.0,157.0,43.0
2842.0,2771.0,2843.0,3147.0,3039.0,0.886902,-0.035522,-0.460205,0.017944,3.0,-5.0,4.0,6439.0,-561.0,4136.0,-237.0,90.0,-565.0,325.0,48.0,-524.0,0.815039,-0.079526,0.573866,12824.0,-534.0,8678.0,89.0,-104.0,106.0
2839.0,2765.0,2835.0,3127.0,3038.0,0.886475,-0.035461,-0.460999,0.018555,1.0,-8.0,5.0,6485.0,-480.0,4199.0,-199.0,175.0,-490.0,286.0,138.0,-456.0,0.816011,-0.079979,0.572404,13332.0,-548.0,8722.0,29.0,-166.0,128.0
2851.0,2768.0,2846.0,3147.0,3047.0,0.885498,-0.035889,-0.462769,0.019409,-2.0,-7.0,3.0,6654.0,-425.0,4236.0,-48.0,242.0,-425.0,321.0,218.0,-300.0,0.818168,-0.081523,0.569041,13936.0,-830.0,8556.0,-45.0,-138.0,82.0
2850.0,2768.0,2846.0,3150.0,3047.0,0.885193,-0.036194,-0.463379,0.019409,-3.0,-3.0,1.0,6767.0,-466.0,4251.0,58.0,206.0,-401.0,362.0,190.0,-197.0,0.818954,-0.082065,0.567913,14212.0,-1258.0,8574.0,-61.0,-63.0,29.0
2855.0,2769.0,2871.0,3147.0,3043.0,0.885071,-0.036682,-0.463562,0.019043,-2.0,3.0,-2.0,6853.0,-639.0,4181.0,142.0,37.0,-467.0,464.0,24.0,-151.0,0.819173,-0.082588,0.567478,13640.0,-1806.0,8074.0,-33.0,74.0,-37.0
2852.0,2769.0,2837.0,3143.0,3047.0,0.885193,-0.036682,-0.46344,0.018799,0.0,3.0,-3.0,6805.0,-718.0,4133.0,95.0,-43.0,-518.0,479.0,-61.0,-212.0,0.819088,-0.082366,0.567798,13276.0,-1824.0,8000.0,1.0,82.0,-61.0
2847.0,2767.0,2834.0,3139.0,3045.0,0.885254,-0.036133,-0.463257,0.01825,1.0,2.0,-4.0,6757.0,-736.0,4128.0,48.0,-73.0,-525.0,458.0,-94.0,-253.0,0.818881,-0.080882,0.568095,13386.0,-1382.0,8312.0,43.0,50.0,-79.0
2853.0,2777.0,2843.0,3153.0,3047.0,0.885315,-0.035889,-0.463257,0.018066,1.0,1.0,-3.0,6718.0,-712.0,4124.0,9.0,-54.0,-530.0,440.0,-78.0,-289.0,0.81896,-0.080284,0.568214,13160.0,-1272.0,8224.0,32.0,23.0,-54.0
2850.0,2773.0,2837.0,3150.0,3039.0,0.88501,-0.035583,-0.463806,0.017944,0.0,-3.0,-1.0,6677.0,-642.0,4175.0,-37.0,10.0,-471.0,366.0,-14.0,-298.0,0.819669,-0.079629,0.567182,13402.0,-1060.0,8572.0,10.0,-50.0,-8.0
2847.0,2759.0,2835.0,3143.0,3039.0,0.884827,-0.035461,-0.464172,0.017883,0.0,-2.0,-1.0,6711.0,-611.0,4206.0,-7.0,39.0,-434.0,353.0,18.0,-254.0,0.820156,-0.079356,0.566525,13664.0,-1070.0,8556.0,8.0,-42.0,-5.0
2849.0,2767.0,2835.0,3143.0,3054.0,0.884644,-0.035217,-0.464539,0.017761,0.0,0.0,-1.0,6769.0,-553.0,4227.0,46.0,92.0,-408.0,362.0,75.0,-200.0,0.820651,-0.078811,0.565873,13608.0,-892.0,8468.0,2.0,18.0,-18.0
2851.0,2774.0,2843.0,3143.0,3050.0,0.884644,-0.035156,-0.464539,0.017517,-1.0,1.0,-2.0,6763.0,-535.0,4213.0,40.0,107.0,-422.0,370.0,89.0,-214.0,0.82067,-0.078476,0.565869,13446.0,-1002.0,8270.0,-19.0,39.0,-27.0
2853.0,2768.0,2839.0,3147.0,3047.0,0.884644,-0.035339,-0.4646,0.01709,-2.0,0.0,-2.0,6723.0,-591.0,4173.0,-1.0,51.0,-461.0,379.0,29.0,-265.0,0.820802,-0.078405,0.565785,13452.0,-1468.0,8316.0,-35.0,22.0,-26.0
2859.0,2771.0,2845.0,3143.0,3031.0,0.884583,-0.035461,-0.464661,0.016968,-1.0,0.0,-1.0,6739.0,-635.0,4168.0,14.0,8.0,-465.0,390.0,-12.0,-252.0,0.820858,-0.078506,0.565607,13586.0,-1498.0,8324.0,-12.0,21.0,-16.0
2847.0,2767.0,2834.0,3147.0,3039.0,0.884521,-0.035339,-0.464844,0.016907,0.0,0.0,-1.0,6707.0,-645.0,4150.0,-19.0,-4.0,-481.0,385.0,-27.0,-287.0,0.821134,-0.078235,0.565336,13272.0,-1160.0,8314.0,19.0,15.0,-14.0
2854.0,2774.0,2839.0,3147.0,3053.0,0.88446,-0.035278,-0.464966,0.016846,0.0,-1.0,-1.0,6680.0,-621.0,4157.0,-48.0,18.0,-472.0,361.0,-7.0,-307.0,0.821299,-0.07807,0.565116,13184.0,-1118.0,8350.0,9.0,-7.0,-12.0
2845.0,2769.0,2847.0,3149.0,3051.0,0.884155,-0.035217,-0.465515,0.016724,-1.0,-2.0,-1.0,6686.0,-569.0,4167.0,-47.0,68.0,-453.0,347.0,43.0,-299.0,0.821997,-0.077845,0.564066,13548.0,-972.0,8444.0,-12.0,-40.0,-9.0
2847.0,2768.0,2839.0,3141.0,3039.0,0.884033,-0.035217,-0.46582,0.016602,-1.0,-1.0,-1.0,6740.0,-553.0,4176.0,2.0,83.0,-440.0,364.0,62.0,-252.0,0.822432,-0.077733,0.563561,13814.0,-1010.0,8380.0,-17.0,-18.0,-16.0
2851.0,2765.0,2837.0,3143.0,3039.0,0.883911,-0.035217,-0.466003,0.016113,-2.0,1.0,-2.0,6759.0,-574.0,4132.0,19.0,59.0,-481.0,407.0,37.0,-259.0,0.822676,-0.077276,0.563159,13444.0,-1352.0,8048.0,-23.0,40.0,-35.0
2843.0,2773.0,2846.0,3143.0,3055.0,0.883911,-0.035217,-0.466003,0.01593,-1.0,1.0,-2.0,6734.0,-603.0,4110.0,-5.0,28.0,-503.0,412.0,3.0,-289.0,0.822689,-0.077105,0.563153,13308.0,-1320.0,8090.0,-13.0,31.0,-37.0
2851.0,2775.0,2843.0,3147.0,3047.0,0.883789,-0.035034,-0.466309,0.015625,0.0,-1.0,-2.0,6711.0,-608.0,4099.0,-32.0,18.0,-510.0,402.0,-8.0,-314.0,0.823142,-0.076498,0.562656,13340.0,-1220.0,8150.0,11.0,-4.0,-30.0
2847.0,2768.0,2835.0,3139.0,3047.0,0.883667,-0.034912,-0.466553,0.015564,0.0,-2.0,-2.0,6677.0,-604.0,4084.0,-68.0,20.0,-521.0,391.0,-8.0,-350.0,0.823468,-0.076224,0.562219,13116.0,-1198.0,8052.0,12.0,-28.0,-24.0
2853.0,2769.0,2839.0,3143.0,3047.0,0.883179,-0.034607,-0.467529,0.015381,1.0,-5.0,-2.0,6631.0,-631.0,4053.0,-125.0,-12.0,-538.0,374.0,-44.0,-403.0,0.824759,-0.07551,0.56046,13228.0,-1444.0,7968.0,36.0,-96.0,-41.0
2852.0,2771.0,2830.0,3143.0,3046.0,0.882812,-0.034241,-0.468262,0.01532,3.0,-6.0,-3.0,6642.0,-647.0,4042.0,-122.0,-34.0,-538.0,376.0,-65.0,-399.0,0.825725,-0.074804,0.559151,13380.0,-1328.0,8048.0,69.0,-119.0,-53.0
2855.0,2770.0,2843.0,3149.0,3051.0,0.882019,-0.032837,-0.469788,0.015198,5.0,-5.0,-4.0,6753.0,-575.0,4055.0,-27.0,16.0,-503.0,402.0,-7.0,-303.0,0.827725,-0.072205,0.55641,13956.0,-866.0,8250.0,120.0,-112.0,-90.0
2849.0,2767.0,2834.0,3139.0,3047.0,0.881714,-0.03186,-0.470398,0.014954,5.0,-4.0,-5.0,6798.0,-516.0,4063.0,10.0,59.0,-486.0,409.0,38.0,-265.0,0.82856,-0.070252,0.555354,13770.0,-670.0,8164.0,132.0,-82.0,-113.0
2850.0,2771.0,2835.0,3139.0,3043.0,0.881287,-0.029968,-0.471436,0.014038,3.0,-3.0,-7.0,6784.0,-407.0,4078.0,-16.0,134.0,-458.0,372.0,114.0,-275.0,0.830098,-0.066057,0.553714,13656.0,-540.0,8332.0,74.0,-67.0,-159.0
2853.0,2775.0,2847.0,3149.0,3050.0,0.881104,-0.029297,-0.471802,0.013306,0.0,-2.0,-8.0,6828.0,-374.0,4115.0,23.0,151.0,-415.0,358.0,135.0,-220.0,0.830633,-0.064182,0.553065,13966.0,-644.0,8458.0,19.0,-38.0,-161.0
2849.0,2775.0,2847.0,3143.0,3047.0,0.881042,-0.029114,-0.471985,0.011963,-4.0,1.0,-4.0,6831.0,-426.0,4127.0,23.0,86.0,-401.0,347.0,70.0,-207.0,0.830981,-0.062594,0.552762,13434.0,-1098.0,8230.0,-77.0,39.0,-76.0
2847.0,2768.0,2831.0,3138.0,3039.0,0.881042,-0.029419,-0.471924,0.011536,-4.0,1.0,-2.0,6771.0,-478.0,4132.0,-35.0,35.0,-396.0,310.0,17.0,-250.0,0.830891,-0.062727,0.552791,13148.0,-1266.0,8304.0,-83.0,41.0,-41.0
2847.0,2768.0,2839.0,3143.0,3037.0,0.881104,-0.029785,-0.471802,0.011108,-1.0,0.0,-2.0,6674.0,-530.0,4194.0,-131.0,-14.0,-336.0,206.0,-34.0,-293.0,0.830751,-0.06297,0.552983,13090.0,-1138.0,8594.0,-19.0,19.0,-25.0
2851.0,2773.0,2845.0,3141.0,3053.0,0.881165,-0.029724,-0.471741,0.010986,0.0,0.0,-2.0,6650.0,-531.0,4215.0,-155.0,-16.0,-316.0,176.0,-36.0,-302.0,0.830709,-0.062749,0.553149,13188.0,-1032.0,8524.0,14.0,17.0,-29.0
2849.0,2771.0,2835.0,3149.0,3050.0,0.881165,-0.029175,-0.471741,0.010864,1.0,0.0,-2.0,6626.0,-457.0,4221.0,-179.0,48.0,-310.0,159.0,26.0,-323.0,0.830728,-0.061666,0.553179,13240.0,-606.0,8496.0,42.0,8.0,-35.0
2850.0,2768.0,2839.0,3135.0,3043.0,0.881165,-0.02887,-0.471741,0.010742,0.0,0.0,-2.0,6637.0,-401.0,4229.0,-168.0,98.0,-302.0,158.0,77.0,-312.0,0.830742,-0.061013,0.553194,13374.0,-454.0,8448.0,21.0,8.0,-29.0
2845.0,2768.0,2839.0,3143.0,3043.0,0.881165,-0.028687,-0.471863,0.010437,-2.0,0.0,-1.0,6662.0,-375.0,4185.0,-145.0,119.0,-345.0,207.0,98.0,-318.0,0.830979,-0.060405,0.553083,13306.0,-832.0,8108.0,-24.0,18.0,-9.0
2859.0,2766.0,2847.0,3151.0,3051.0,0.881104,-0.028809,-0.471924,0.010315,-1.0,0.0,-1.0,6663.0,-398.0,4152.0,-144.0,97.0,-377.0,234.0,74.0,-333.0,0.831033,-0.060502,0.552908,13350.0,-942.0,8150.0,-22.0,6.0,-3.0
2854.0,2775.0,2845.0,3147.0,3047.0,0.88092,-0.02887,-0.472229,0.010254,-1.0,-1.0,0.0,6673.0,-390.0,4139.0,-137.0,106.0,-385.0,245.0,83.0,-332.0,0.8314,-0.060548,0.552292,13336.0,-618.0,8262.0,-14.0,-10.0,0.0
2846.0,2768.0,2839.0,3142.0,3045.0,0.880859,-0.028931,-0.472351,0.01001,-3.0,-1.0,-2.0,6665.0,-340.0,4150.0,-147.0,154.0,-372.0,229.0,131.0,-336.0,0.831571,-0.060424,0.552061,13250.0,-354.0,8386.0,-48.0,-13.0,-24.0
2855.0,2770.0,2843.0,3143.0,3043.0,0.880615,-0.029419,-0.472778,0.008911,-6.0,-1.0,-3.0,6708.0,-367.0,4136.0,-108.0,126.0,-379.0,257.0,104.0,-306.0,0.832147,-0.06024,0.551178,13666.0,-1136.0,8170.0,-129.0,-15.0,-60.0
2853.0,2773.0,2839.0,3150.0,3047.0,0.880493,-0.029968,-0.472961,0.008423,-6.0,-1.0,-2.0,6759.0,-449.0,4114.0,-59.0,48.0,-397.0,298.0,27.0,-270.0,0.832374,-0.060741,0.550748,13862.0,-1414.0,8090.0,-120.0,-1.0,-33.0
2847.0,2770.0,2843.0,3147.0,3051.0,0.880554,-0.030701,-0.4729,0.007935,-2.0,3.0,-1.0,6834.0,-539.0,4081.0,15.0,-34.0,-431.0,366.0,-53.0,-222.0,0.832342,-0.061572,0.550861,13654.0,-1198.0,8044.0,-36.0,90.0,-22.0
2853.0,2771.0,2842.0,3141.0,3043.0,0.880737,-0.030701,-0.472534,0.007751,-1.0,4.0,-2.0,6803.0,-535.0,4051.0,-11.0,-31.0,-467.0,382.0,-53.0,-264.0,0.831881,-0.061404,0.551527,13420.0,-1024.0,7938.0,-16.0,111.0,-40.0
2851.0,2770.0,2838.0,3139.0,3046.0,0.881104,-0.03064,-0.471863,0.007263,-1.0,3.0,-2.0,6708.0,-493.0,4038.0,-100.0,5.0,-490.0,352.0,-22.0,-354.0,0.831075,-0.060848,0.552803,12976.0,-876.0,8094.0,-12.0,88.0,-26.0
2851.0,2774.0,2846.0,3143.0,3047.0,0.881165,-0.030701,-0.471741,0.007202,-1.0,1.0,0.0,6632.0,-485.0,4041.0,-174.0,13.0,-489.0,310.0,-17.0,-415.0,0.83092,-0.0609,0.553021,12834.0,-906.0,8148.0,-19.0,29.0,3.0
2855.0,2774.0,2843.0,3147.0,3047.0,0.880859,-0.030945,-0.472229,0.007324,-1.0,-3.0,1.0,6607.0,-447.0,4153.0,-204.0,56.0,-369.0,195.0,29.0,-376.0,0.831481,-0.061433,0.552009,13314.0,-866.0,8736.0,-21.0,-64.0,34.0
2849.0,2768.0,2835.0,3143.0,3043.0,0.880676,-0.031128,-0.472595,0.007446,-1.0,-4.0,2.0,6628.0,-447.0,4198.0,-187.0,59.0,-318.0,162.0,35.0,-334.0,0.831943,-0.061865,0.551331,13404.0,-910.0,8632.0,-22.0,-71.0,46.0
2851.0,2769.0,2841.0,3143.0,3039.0,0.880371,-0.031433,-0.473145,0.007874,0.0,-2.0,1.0,6734.0,-441.0,4293.0,-86.0,73.0,-214.0,132.0,58.0,-193.0,0.832591,-0.062796,0.550261,13820.0,-790.0,8818.0,4.0,-25.0,42.0
2855.0,2775.0,2845.0,3149.0,3047.0,0.880371,-0.031372,-0.473145,0.007996,0.0,1.0,1.0,6779.0,-433.0,4299.0,-41.0,81.0,-208.0,152.0,69.0,-153.0,0.832584,-0.062804,0.550267,13772.0,-852.0,8586.0,11.0,29.0,24.0
2851.0,2775.0,2838.0,3151.0,3047.0,0.880554,-0.031372,-0.472778,0.008179,0.0,2.0,0.0,6770.0,-482.0,4230.0,-46.0,33.0,-283.0,210.0,17.0,-196.0,0.832101,-0.062983,0.550939,13404.0,-1168.0,8226.0,15.0,68.0,11.0
2851.0,2769.0,2839.0,3135.0,3047.0,0.880676,-0.031311,-0.472595,0.00824,1.0,2.0,0.0,6743.0,-507.0,4186.0,-71.0,8.0,-330.0,235.0,-10.0,-241.0,0.831891,-0.062938,0.551332,13322.0,-1154.0,8084.0,28.0,59.0,4.0
2853.0,2770.0,2835.0,3137.0,3043.0,0.880737,-0.031189,-0.472473,0.008423,0.0,0.0,0.0,6664.0,-513.0,4100.0,-149.0,2.0,-418.0,265.0,-24.0,-354.0,0.831724,-0.062898,0.551565,12980.0,-1048.0,7898.0,11.0,22.0,4.0
2855.0,2775.0,2843.0,3143.0,3045.0,0.880615,-0.031189,-0.472656,0.008423,-1.0,-2.0,0.0,6637.0,-517.0,4076.0,-178.0,-1.0,-439.0,267.0,-29.0,-389.0,0.831931,-0.062893,0.551177,13212.0,-1044.0,8094.0,-3.0,-27.0,4.0
2855.0,2777.0,2846.0,3149.0,3055.0,0.88031,-0.03125,-0.473267,0.008545,0.0,-2.0,0.0,6693.0,-513.0,4082.0,-128.0,3.0,-424.0,282.0,-22.0,-340.0,0.832709,-0.063107,0.550061,13670.0,-986.0,8190.0,4.0,-35.0,7.0
2850.0,2767.0,2841.0,3139.0,3058.0,0.880188,-0.03125,-0.47345,0.008545,0.0,-1.0,0.0,6743.0,-497.0,4104.0,-80.0,19.0,-398.0,288.0,-3.0,-286.0,0.832915,-0.063103,0.549673,13756.0,-876.0,8312.0,6.0,0.0,4.0
2847.0,2771.0,2839.0,3103.0,3045.0,0.880249,-0.031189,-0.473389,0.008545,-1.0,1.0,0.0,6724.0,-451.0,4124.0,-98.0,65.0,-380.0,263.0,42.0,-294.0,0.832867,-0.062998,0.549842,13252.0,-716.0,8348.0,-8.0,41.0,10.0
2855.0,2775.0,2845.0,3143.0,3039.0,0.88031,-0.031311,-0.473328,0.008545,-2.0,0.0,0.0,6685.0,-435.0,4141.0,-137.0,82.0,-364.0,229.0,58.0,-319.0,0.832815,-0.063216,0.549999,13128.0,-794.0,8368.0,-34.0,22.0,22.0
2851.0,2775.0,2847.0,3153.0,3047.0,0.880127,-0.032166,-0.473572,0.008423,-5.0,-2.0,1.0,6652.0,-440.0,4192.0,-172.0,89.0,-308.0,163.0,66.0,-318.0,0.833065,-0.064597,0.54939,13254.0,-888.0,8538.0,-94.0,-41.0,29.0
2847.0,2775.0,2843.0,3147.0,3043.0,0.891235,-0.079224,-0.446411,0.008118,1.0,-1.0,-2.0,6292.0,-1246.0,4659.0,-215.0,-29.0,-164.0,0.0,-68.0,-263.0,0.794429,-0.148461,0.588807,12562.0,-2240.0,9526.0,24.0,-3.0,-41.0
2842.0,2778.0,2847.0,3143.0,3039.0,0.891296,-0.078918,-0.446411,0.00769,-1.0,0.0,-2.0,6306.0,-1172.0,4742.0,-202.0,36.0,-82.0,-54.0,7.0,-214.0,0.794555,-0.147546,0.588957,12708.0,-2140.0,9722.0,-8.0,1.0,-37.0
2841.0,2779.0,2846.0,3147.0,3046.0,0.891357,-0.078857,-0.446289,0.007446,-1.0,0.0,-2.0,6311.0,-1147.0,4766.0,-196.0,59.0,-60.0,-66.0,33.0,-199.0,0.794432,-0.147227,0.589181,12602.0,-2160.0,9624.0,-18.0,15.0,-42.0
2843.0,2779.0,2853.0,3151.0,3047.0,0.891418,-0.078735,-0.446167,0.006897,-1.0,-1.0,-3.0,6274.0,-1146.0,4753.0,-233.0,54.0,-75.0,-77.0,24.0,-237.0,0.794357,-0.146527,0.58941,12400.0,-2358.0,9390.0,-21.0,-1.0,-49.0
2837.0,2771.0,2847.0,3121.0,3039.0,0.891418,-0.078735,-0.446228,0.006653,-1.0,-2.0,-2.0,6270.0,-1165.0,4745.0,-238.0,33.0,-82.0,-75.0,2.0,-242.0,0.794504,-0.14631,0.589352,12556.0,-2450.0,9458.0,-16.0,-25.0,-44.0
2842.0,2770.0,2847.0,3143.0,3039.0,0.891235,-0.078674,-0.446594,0.006165,-1.0,-2.0,-3.0,6291.0,-1193.0,4714.0,-222.0,0.0,-108.0,-47.0,-32.0,-240.0,0.795071,-0.145741,0.588702,12646.0,-2496.0,9282.0,-10.0,-36.0,-55.0
2839.0,2773.0,2847.0,3147.0,3046.0,0.891174,-0.078613,-0.446777,0.00592,-1.0,-2.0,-3.0,6307.0,-1223.0,4695.0,-208.0,-31.0,-125.0,-27.0,-64.0,-234.0,0.795382,-0.145406,0.588437,12734.0,-2630.0,9282.0,-3.0,-32.0,-63.0
2845.0,2781.0,2854.0,3143.0,3050.0,0.891052,-0.078247,-0.447083,0.005432,0.0,-1.0,-4.0,6356.0,-1226.0,4686.0,-163.0,-43.0,-130.0,3.0,-72.0,-199.0,0.795898,-0.144302,0.587998,12820.0,-2358.0,9384.0,19.0,-16.0,-69.0
2837.0,2773.0,2843.0,3147.0,3042.0,0.890991,-0.078003,-0.447205,0.005127,0.0,-1.0,-4.0,6354.0,-1198.0,4692.0,-167.0,-21.0,-123.0,-3.0,-50.0,-202.0,0.796111,-0.143585,0.587815,12640.0,-2204.0,9444.0,16.0,-11.0,-76.0
2867.0,2775.0,2847.0,3143.0,3037.0,0.89093,-0.077454,-0.447449,0.004333,0.0,-2.0,-5.0,6344.0,-1124.0,4711.0,-181.0,38.0,-102.0,-24.0,9.0,-209.0,0.79662,-0.14189,0.587566,12690.0,-2024.0,9512.0,6.0,-31.0,-92.0
2847.0,2773.0,2843.0,3147.0,3047.0,0.890869,-0.077148,-0.447693,0.003845,-1.0,-2.0,-5.0,6340.0,-1090.0,4722.0,-189.0,64.0,-89.0,-38.0,36.0,-211.0,0.797078,-0.140901,0.587282,12690.0,-1962.0,9562.0,-4.0,-43.0,-95.0
2843.0,2779.0,2847.0,3143.0,3051.0,0.890625,-0.076721,-0.448242,0.002808,-2.0,-3.0,-5.0,6327.0,-1033.0,4731.0,-210.0,107.0,-72.0,-61.0,80.0,-224.0,0.798001,-0.139177,0.586414,12616.0,-1954.0,9492.0,-25.0,-68.0,-100.0
2843.0,2775.0,2846.0,3143.0,3045.0,0.890442,-0.076538,-0.448608,0.002319,-1.0,-4.0,-5.0,6325.0,-1025.0,4735.0,-216.0,108.0,-63.0,-71.0,82.0,-224.0,0.798564,-0.138386,0.585785,12660.0,-2026.0,9516.0,-22.0,-83.0,-98.0
2843.0,2774.0,2839.0,3147.0,3055.0,0.890015,-0.07605,-0.449524,0.001465,0.0,-5.0,-4.0,6355.0,-996.0,4738.0,-198.0,123.0,-48.0,-71.0,101.0,-203.0,0.799943,-0.136688,0.584273,12872.0,-1872.0,9496.0,11.0,-95.0,-87.0
2837.0,2782.0,2839.0,3139.0,3047.0,0.889832,-0.075623,-0.449951,0.001099,0.0,-4.0,-4.0,6386.0,-968.0,4747.0,-172.0,142.0,-34.0,-65.0,123.0,-176.0,0.800595,-0.135571,0.583627,12964.0,-1766.0,9512.0,21.0,-79.0,-86.0
2845.0,2779.0,2851.0,3143.0,3047.0,0.889587,-0.074768,-0.450562,0.000427,1.0,-3.0,-4.0,6384.0,-938.0,4720.0,-182.0,154.0,-54.0,-54.0,132.0,-197.0,0.801564,-0.13341,0.58277,12678.0,-1830.0,9302.0,36.0,-52.0,-80.0
2845.0,2771.0,2846.0,3139.0,3047.0,0.889465,-0.074341,-0.450867,0.000183,1.0,-3.0,-4.0,6378.0,-930.0,4707.0,-192.0,154.0,-63.0,-53.0,131.0,-211.0,0.802033,-0.132412,0.582341,12728.0,-1800.0,9296.0,41.0,-57.0,-74.0
2842.0,2773.0,2850.0,3143.0,3039.0,0.889221,-0.073547,-0.451477,-0.000244,1.0,-3.0,-3.0,6372.0,-915.0,4674.0,-205.0,154.0,-89.0,-39.0,127.0,-236.0,0.802962,-0.130579,0.581474,12776.0,-1774.0,9316.0,42.0,-67.0,-58.0
2841.0,2781.0,2847.0,3143.0,3051.0,0.889099,-0.073181,-0.451843,-0.000366,1.0,-4.0,-3.0,6370.0,-914.0,4654.0,-212.0,149.0,-105.0,-31.0,119.0,-250.0,0.803521,-0.1298,0.58098,12720.0,-1866.0,9194.0,36.0,-69.0,-48.0
2845.0,2775.0,2846.0,3149.0,3051.0,0.888733,-0.072632,-0.452576,-0.00061,1.0,-3.0,-2.0,6383.0,-955.0,4610.0,-207.0,98.0,-139.0,-3.0,65.0,-259.0,0.804526,-0.128548,0.579746,12808.0,-2132.0,9060.0,30.0,-67.0,-42.0
2842.0,2770.0,2839.0,3142.0,3039.0,0.888611,-0.072449,-0.452881,-0.000732,1.0,-3.0,-2.0,6409.0,-975.0,4593.0,-185.0,74.0,-152.0,18.0,41.0,-246.0,0.804976,-0.128094,0.57928,12998.0,-2076.0,9052.0,30.0,-56.0,-39.0
2842.0,2771.0,2844.0,3152.0,3043.0,0.888428,-0.072021,-0.453247,-0.000977,0.0,-1.0,-2.0,6444.0,-961.0,4597.0,-154.0,80.0,-143.0,29.0,50.0,-216.0,0.805495,-0.127087,0.578685,12896.0,-1836.0,9200.0,4.0,-10.0,-35.0
2842.0,2783.0,2853.0,3147.0,3039.0,0.888428,-0.07196,-0.453247,-0.00116,-1.0,0.0,-2.0,6443.0,-961.0,4592.0,-155.0,77.0,-148.0,33.0,47.0,-220.0,0.805521,-0.126812,0.578694,12870.0,-1946.0,9140.0,-15.0,10.0,-28.0
2839.0,2775.0,2844.0,3143.0,3052.0,0.888489,-0.072144,-0.453125,-0.001404,-1.0,0.0,-1.0,6397.0,-1007.0,4571.0,-200.0,32.0,-171.0,21.0,-3.0,-264.0,0.805395,-0.126925,0.578887,12626.0,-2194.0,9096.0,-20.0,14.0,-10.0
2838.0,2770.0,2842.0,3143.0,3039.0,0.888489,-0.072205,-0.453125,-0.001465,-1.0,0.0,-1.0,6376.0,-1036.0,4563.0,-221.0,4.0,-179.0,14.0,-33.0,-282.0,0.805404,-0.126978,0.578879,12662.0,-2262.0,9044.0,-7.0,5.0,-12.0
2839.0,2771.0,2839.0,3139.0,3039.0,0.888428,-0.072205,-0.453247,-0.001526,0.0,-1.0,-1.0,6395.0,-1061.0,4574.0,-204.0,-21.0,-166.0,12.0,-55.0,-257.0,0.805575,-0.126914,0.57866,13020.0,-2190.0,9226.0,5.0,-15.0,-15.0
2839.0,2778.0,2847.0,3143.0,3055.0,0.888428,-0.072144,-0.453308,-0.001587,0.0,-1.0,-1.0,6392.0,-1068.0,4546.0,-208.0,-29.0,-194.0,31.0,-66.0,-276.0,0.805692,-0.12675,0.578613,12740.0,-2192.0,8824.0,5.0,-2.0,-20.0
2847.0,2779.0,2851.0,3147.0,3051.0,0.888306,-0.072083,-0.453552,-0.001831,-1.0,-2.0,-2.0,6381.0,-1071.0,4506.0,-222.0,-35.0,-230.0,52.0,-78.0,-307.0,0.80605,-0.126402,0.578185,12886.0,-2138.0,9026.0,-9.0,-27.0,-38.0
2838.0,2770.0,2839.0,3143.0,3043.0,0.888184,-0.072083,-0.453735,-0.002014,-1.0,-2.0,-2.0,6407.0,-1064.0,4493.0,-198.0,-30.0,-240.0,74.0,-73.0,-294.0,0.806291,-0.126217,0.577802,12986.0,-2056.0,8848.0,-9.0,-24.0,-36.0
2847.0,2755.0,2839.0,3139.0,3037.0,0.888062,-0.072021,-0.454041,-0.00238,-1.0,-1.0,-2.0,6425.0,-1025.0,4438.0,-184.0,5.0,-291.0,126.0,-44.0,-317.0,0.806775,-0.125757,0.577319,12836.0,-1830.0,8724.0,-9.0,-8.0,-41.0
2839.0,2779.0,2849.0,3143.0,3055.0,0.888,-0.07196,-0.454163,-0.002686,-1.0,-1.0,-3.0,6427.0,-995.0,4428.0,-183.0,31.0,-299.0,135.0,-19.0,-324.0,0.80698,-0.125362,0.57711,12928.0,-1844.0,8834.0,-20.0,-12.0,-60.0
2843.0,2779.0,2847.0,3151.0,3047.0,0.887817,-0.071655,-0.454529,-0.003418,-1.0,-1.0,-4.0,6449.0,-977.0,4430.0,-166.0,39.0,-292.0,140.0,-9.0,-307.0,0.807567,-0.124126,0.5765,12842.0,-1910.0,8890.0,0.0,-22.0,-72.0
2837.0,2771.0,2843.0,3143.0,3043.0,0.887695,-0.071411,-0.454773,-0.003784,0.0,-2.0,-4.0,6433.0,-961.0,4434.0,-185.0,49.0,-285.0,125.0,0.0,-319.0,0.80794,-0.123341,0.576099,12754.0,-1886.0,8844.0,11.0,-39.0,-87.0
2839.0,2772.0,2839.0,3143.0,3047.0,0.887329,-0.070557,-0.455627,-0.0047,2.0,-4.0,-6.0,6470.0,-947.0,4458.0,-159.0,43.0,-250.0,112.0,1.0,-277.0,0.809246,-0.120931,0.5748,13250.0,-1918.0,9020.0,48.0,-77.0,-128.0
2846.0,2778.0,2851.0,3141.0,3053.0,0.887207,-0.069885,-0.456055,-0.005127,3.0,-3.0,-6.0,6529.0,-962.0,4463.0,-106.0,15.0,-241.0,134.0,-21.0,-226.0,0.809946,-0.119329,0.574293,13422.0,-2028.0,8896.0,75.0,-58.0,-124.0
2845.0,2779.0,2849.0,3151.0,3047.0,0.887085,-0.068542,-0.456421,-0.005615,3.0,0.0,-4.0,6631.0,-877.0,4482.0,-8.0,77.0,-219.0,178.0,48.0,-141.0,0.810538,-0.11648,0.573933,13340.0,-1304.0,8988.0,87.0,18.0,-79.0
2843.0,2771.0,2845.0,3147.0,3046.0,0.887146,-0.067932,-0.456421,-0.005859,2.0,1.0,-4.0,6595.0,-806.0,4464.0,-45.0,137.0,-239.0,177.0,103.0,-189.0,0.81062,-0.115183,0.574128,12888.0,-1198.0,8766.0,50.0,29.0,-72.0
2837.0,2771.0,2847.0,3139.0,3043.0,0.887085,-0.067383,-0.456604,-0.006592,-2.0,-2.0,-3.0,6474.0,-728.0,4446.0,-169.0,202.0,-255.0,122.0,159.0,-306.0,0.810981,-0.113529,0.573936,12536.0,-1392.0,8862.0,-25.0,-31.0,-60.0
2839.0,2779.0,2847.0,3139.0,3051.0,0.886902,-0.067322,-0.456909,-0.006958,-2.0,-4.0,-3.0,6440.0,-713.0,4460.0,-207.0,213.0,-236.0,86.0,171.0,-327.0,0.811404,-0.113057,0.573345,12734.0,-1318.0,9046.0,-42.0,-69.0,-57.0
2843.0,2779.0,2854.0,3151.0,3055.0,0.886536,-0.067322,-0.457642,-0.007812,-2.0,-4.0,-3.0,6486.0,-733.0,4530.0,-169.0,186.0,-156.0,42.0,156.0,-247.0,0.812483,-0.112216,0.572038,13430.0,-1646.0,9336.0,-43.0,-70.0,-64.0
2835.0,2774.0,2855.0,3143.0,3051.0,0.886414,-0.067261,-0.457886,-0.008179,-1.0,-1.0,-3.0,6589.0,-743.0,4570.0,-69.0,172.0,-112.0,63.0,152.0,-139.0,0.812853,-0.111752,0.571613,13886.0,-1496.0,9350.0,-14.0,-18.0,-55.0
2838.0,2769.0,2847.0,3135.0,3043.0,0.886841,-0.06665,-0.457153,-0.008911,0.0,8.0,-4.0,6753.0,-703.0,4554.0,100.0,198.0,-141.0,187.0,182.0,-21.0,0.812032,-0.110069,0.573135,13734.0,-1350.0,8830.0,10.0,184.0,-79.0
2842.0,2775.0,2853.0,3147.0,3051.0,0.887329,-0.066223,-0.456177,-0.009583,0.0,11.0,-6.0,6713.0,-696.0,4464.0,70.0,195.0,-246.0,254.0,165.0,-105.0,0.810827,-0.108781,0.574962,13020.0,-1338.0,8290.0,10.0,261.0,-125.0
2847.0,2780.0,2847.0,3155.0,3049.0,0.888428,-0.065308,-0.454224,-0.011658,-2.0,9.0,-10.0,6466.0,-705.0,4279.0,-158.0,158.0,-462.0,292.0,92.0,-411.0,0.808612,-0.105452,0.578856,12262.0,-1522.0,8140.0,-25.0,210.0,-217.0
2837.0,2771.0,2842.0,3143.0,3043.0,0.888672,-0.065002,-0.453735,-0.012756,-3.0,5.0,-9.0,6366.0,-736.0,4235.0,-253.0,115.0,-514.0,274.0,39.0,-514.0,0.808102,-0.103956,0.579799,12134.0,-1660.0,8272.0,-51.0,121.0,-187.0
2845.0,2769.0,2845.0,3141.0,3039.0,0.88855,-0.06543,-0.453918,-0.013977,-5.0,-4.0,-2.0,6242.0,-769.0,4289.0,-381.0,79.0,-457.0,150.0,6.0,-580.0,0.808487,-0.103586,0.579393,12256.0,-1618.0,8886.0,-99.0,-74.0,-43.0
2843.0,2781.0,2851.0,3149.0,3051.0,0.888245,-0.065857,-0.454407,-0.014343,-5.0,-6.0,-1.0,6263.0,-794.0,4372.0,-365.0,57.0,-365.0,84.0,-3.0,-512.0,0.809138,-0.103959,0.578362,12822.0,-1814.0,9290.0,-109.0,-118.0,-15.0
2846.0,2781.0,2855.0,3147.0,3051.0,0.887939,-0.066589,-0.454834,-0.014648,-1.0,1.0,-1.0,6472.0,-913.0,4528.0,-160.0,-53.0,-201.0,63.0,-84.0,-240.0,0.809681,-0.104929,0.577343,13486.0,-2216.0,9416.0,-21.0,33.0,-14.0
2842.0,2774.0,2835.0,3141.0,3027.0,0.888245,-0.066467,-0.454346,-0.014648,2.0,5.0,-2.0,6479.0,-950.0,4567.0,-149.0,-91.0,-170.0,41.0,-117.0,-209.0,0.809088,-0.104768,0.578345,12810.0,-2006.0,9362.0,59.0,135.0,-28.0
2843.0,2775.0,2839.0,3141.0,3043.0,0.889099,-0.065247,-0.452759,-0.014709,4.0,5.0,-3.0,6242.0,-808.0,4632.0,-369.0,33.0,-131.0,-109.0,3.0,-377.0,0.807014,-0.102702,0.581466,11602.0,-1008.0,9438.0,95.0,116.0,-52.0
2845.0,2775.0,2851.0,3143.0,3051.0,0.889343,-0.064697,-0.452393,-0.014893,2.0,1.0,-3.0,6137.0,-729.0,4663.0,-470.0,103.0,-107.0,-182.0,73.0,-451.0,0.806592,-0.101602,0.582308,11760.0,-1054.0,9530.0,46.0,30.0,-53.0
2846.0,2783.0,2847.0,3151.0,3047.0,0.88916,-0.064514,-0.452759,-0.015076,-1.0,-6.0,0.0,6075.0,-720.0,4679.0,-536.0,108.0,-86.0,-237.0,79.0,-493.0,0.807095,-0.101076,0.58168,12164.0,-1550.0,9420.0,-22.0,-119.0,0.0
2839.0,2768.0,2839.0,3139.0,3039.0,0.888855,-0.064636,-0.453308,-0.015076,-1.0,-7.0,0.0,6090.0,-728.0,4676.0,-527.0,101.0,-80.0,-237.0,73.0,-482.0,0.807799,-0.101237,0.580624,12400.0,-1606.0,9254.0,-22.0,-146.0,7.0
2835.0,2767.0,2842.0,3135.0,3043.0,0.888245,-0.064697,-0.454468,-0.015076,-1.0,-5.0,-1.0,6296.0,-695.0,4764.0,-333.0,134.0,25.0,-203.0,125.0,-268.0,0.809308,-0.101231,0.578479,13328.0,-1284.0,9790.0,-8.0,-106.0,-3.0
2849.0,2783.0,2850.0,3152.0,3051.0,0.888184,-0.064575,-0.454651,-0.015137,0.0,-2.0,-1.0,6392.0,-684.0,4773.0,-240.0,142.0,36.0,-157.0,137.0,-187.0,0.809582,-0.100945,0.578222,13264.0,-1326.0,9522.0,12.0,-23.0,-15.0
2847.0,2783.0,2851.0,3153.0,3051.0,0.888489,-0.063904,-0.454163,-0.015381,2.0,3.0,-3.0,6368.0,-677.0,4739.0,-259.0,138.0,-6.0,-135.0,128.0,-226.0,0.809003,-0.099585,0.579302,12390.0,-1320.0,9330.0,50.0,74.0,-49.0
2845.0,2771.0,2839.0,3141.0,3035.0,0.888672,-0.063477,-0.453796,-0.015625,1.0,2.0,-3.0,6319.0,-667.0,4721.0,-304.0,141.0,-30.0,-142.0,126.0,-277.0,0.808536,-0.098639,0.580021,12374.0,-1280.0,9354.0,42.0,56.0,-56.0
2837.0,2768.0,2843.0,3143.0,3051.0,0.888794,-0.062988,-0.453674,-0.016052,0.0,-2.0,-2.0,6210.0,-688.0,4662.0,-412.0,109.0,-92.0,-158.0,84.0,-397.0,0.808468,-0.097402,0.580424,11966.0,-1530.0,9040.0,3.0,-38.0,-43.0
2839.0,2778.0,2847.0,3147.0,3047.0,0.888611,-0.062927,-0.454041,-0.016174,-1.0,-6.0,-2.0,6171.0,-707.0,4637.0,-456.0,88.0,-112.0,-170.0,60.0,-442.0,0.808966,-0.097148,0.579778,12242.0,-1518.0,9186.0,-6.0,-123.0,-32.0
2847.0,2779.0,2851.0,3151.0,3047.0,0.887695,-0.062988,-0.45575,-0.016235,-1.0,-9.0,-1.0,6284.0,-745.0,4641.0,-361.0,49.0,-82.0,-140.0,27.0,-344.0,0.811179,-0.09703,0.576591,13042.0,-1672.0,9256.0,-10.0,-203.0,-8.0
2842.0,2768.0,2838.0,3139.0,3045.0,0.887268,-0.062988,-0.456604,-0.016235,0.0,-8.0,-1.0,6395.0,-772.0,4656.0,-259.0,22.0,-54.0,-105.0,7.0,-243.0,0.812306,-0.096949,0.575053,13500.0,-1714.0,9448.0,7.0,-172.0,-15.0
2837.0,2767.0,2839.0,3139.0,3043.0,0.886902,-0.0625,-0.457458,-0.016174,2.0,-1.0,-2.0,6567.0,-780.0,4663.0,-96.0,6.0,-36.0,-26.0,-1.0,-99.0,0.813463,-0.096065,0.573682,13268.0,-1416.0,9198.0,67.0,-15.0,-32.0
2847.0,2781.0,2851.0,3153.0,3047.0,0.886902,-0.062012,-0.457397,-0.016235,3.0,0.0,-2.0,6531.0,-746.0,4636.0,-131.0,33.0,-64.0,-21.0,21.0,-146.0,0.813347,-0.095145,0.573801,12778.0,-1252.0,9136.0,71.0,13.0,-42.0
2843.0,2783.0,2859.0,3147.0,3055.0,0.886963,-0.061279,-0.457458,-0.016357,1.0,-1.0,-2.0,6479.0,-688.0,4622.0,-185.0,79.0,-79.0,-36.0,63.0,-203.0,0.813502,-0.093739,0.573947,12896.0,-1310.0,9224.0,27.0,-22.0,-24.0
2843.0,2766.0,2845.0,3137.0,3045.0,0.886902,-0.061157,-0.457581,-0.016418,0.0,-2.0,-1.0,6455.0,-699.0,4616.0,-210.0,66.0,-84.0,-48.0,49.0,-225.0,0.813666,-0.093455,0.573744,12730.0,-1510.0,9152.0,14.0,-33.0,-10.0
2842.0,2768.0,2842.0,3147.0,3037.0,0.886658,-0.060913,-0.458069,-0.016296,1.0,-4.0,-1.0,6398.0,-724.0,4603.0,-272.0,38.0,-90.0,-81.0,19.0,-276.0,0.814286,-0.093088,0.57289,12810.0,-1400.0,9338.0,40.0,-69.0,-11.0
2846.0,2783.0,2859.0,3147.0,3055.0,0.886536,-0.060608,-0.458374,-0.016174,2.0,-4.0,-1.0,6406.0,-700.0,4623.0,-267.0,58.0,-66.0,-96.0,42.0,-260.0,0.81469,-0.092634,0.572427,12858.0,-1256.0,9346.0,55.0,-73.0,-9.0
2843.0,2783.0,2847.0,3151.0,3055.0,0.886292,-0.060059,-0.458923,-0.016052,1.0,-3.0,-1.0,6425.0,-642.0,4622.0,-254.0,109.0,-60.0,-89.0,94.0,-251.0,0.815408,-0.091725,0.571553,13096.0,-1088.0,9286.0,30.0,-57.0,-4.0
2842.0,2768.0,2837.0,3135.0,3045.0,0.88623,-0.059875,-0.459045,-0.016052,1.0,-1.0,-1.0,6460.0,-633.0,4626.0,-221.0,115.0,-54.0,-74.0,101.0,-221.0,0.815562,-0.09139,0.571354,13100.0,-1272.0,9256.0,26.0,-19.0,-8.0
2843.0,2768.0,2833.0,3143.0,3039.0,0.886353,-0.059448,-0.458862,-0.01593,2.0,1.0,0.0,6482.0,-647.0,4565.0,-197.0,96.0,-119.0,-9.0,75.0,-237.0,0.815322,-0.090765,0.571786,13152.0,-1190.0,9008.0,55.0,35.0,0.0
2847.0,2779.0,2849.0,3148.0,3047.0,0.886475,-0.059021,-0.45874,-0.015625,4.0,1.0,1.0,6528.0,-632.0,4577.0,-149.0,107.0,-110.0,11.0,89.0,-194.0,0.815168,-0.090306,0.572155,13254.0,-1184.0,9248.0,106.0,39.0,40.0
2849.0,2782.0,2851.0,3145.0,3053.0,0.886353,-0.057556,-0.459229,-0.01239,17.0,-7.0,16.0,6861.0,-634.0,4870.0,180.0,108.0,187.0,-39.0,134.0,243.0,0.815503,-0.09065,0.571571,15584.0,-1364.0,11404.0,403.0,-154.0,370.0
2843.0,2768.0,2835.0,3135.0,3043.0,0.886292,-0.055969,-0.459656,-0.008118,29.0,-5.0,28.0,7290.0,-588.0,5264.0,607.0,163.0,585.0,-114.0,246.0,814.0,0.815687,-0.091747,0.571163,17204.0,-784.0,12970.0,684.0,-110.0,658.0
2839.0,2775.0,2847.0,3141.0,3043.0,0.888855,-0.051453,-0.455261,0.003479,35.0,32.0,38.0,7346.0,-211.0,5338.0,718.0,564.0,585.0,-30.0,650.0,866.0,0.808964,-0.094636,0.580165,12984.0,952.0,8906.0,815.0,737.0,885.0
2847.0,2789.0,2859.0,3149.0,3051.0,0.891174,-0.049805,-0.450806,0.008301,25.0,41.0,32.0,6868.0,-106.0,4971.0,292.0,682.0,149.0,73.0,708.0,256.0,0.802666,-0.096253,0.588554,10462.0,38.0,7746.0,582.0,951.0,741.0
2847.0,2787.0,2863.0,3151.0,3055.0,0.895325,-0.05011,-0.442322,0.014526,1.0,29.0,21.0,5506.0,-383.0,4426.0,-970.0,457.0,-519.0,-169.0,346.0,-1127.0,0.790587,-0.10258,0.603658,6464.0,-1078.0,7754.0,44.0,672.0,499.0
2845.0,2779.0,2851.0,3139.0,3043.0,0.89624,-0.052185,-0.440186,0.015503,-13.0,11.0,12.0,5003.0,-494.0,3720.0,-1447.0,384.0,-1252.0,111.0,174.0,-1940.0,0.787406,-0.107189,0.607,8340.0,-1624.0,4494.0,-297.0,264.0,284.0
2843.0,2781.0,2851.0,3151.0,3047.0,0.896179,-0.056702,-0.439758,0.015625,-13.0,10.0,5.0,5800.0,-1011.0,4415.0,-642.0,-65.0,-555.0,43.0,-163.0,-834.0,0.786433,-0.115372,0.606779,13466.0,-3526.0,9800.0,-278.0,231.0,120.0
2847.0,2794.0,2862.0,3141.0,3058.0,0.896912,-0.058105,-0.43811,0.015564,-7.0,17.0,1.0,5939.0,-1261.0,4452.0,-484.0,-295.0,-540.0,120.0,-379.0,-673.0,0.784084,-0.117868,0.609376,12496.0,-3916.0,9054.0,-142.0,394.0,39.0
2849.0,2795.0,2863.0,3143.0,3055.0,0.898804,-0.058655,-0.434143,0.015015,3.0,18.0,-7.0,5891.0,-1500.0,4481.0,-487.0,-529.0,-566.0,126.0,-615.0,-665.0,0.778657,-0.118475,0.616153,11400.0,-3306.0,9220.0,75.0,414.0,-141.0
2842.0,2782.0,2851.0,3143.0,3039.0,0.899658,-0.057983,-0.432434,0.014465,5.0,14.0,-10.0,5761.0,-1516.0,4531.0,-599.0,-558.0,-541.0,33.0,-649.0,-734.0,0.776408,-0.116841,0.619233,10588.0,-3172.0,9346.0,135.0,334.0,-207.0
2843.0,2782.0,2851.0,3135.0,3039.0,0.90033,-0.055176,-0.431396,0.013672,16.0,-6.0,-13.0,5364.0,-1844.0,4578.0,-987.0,-933.0,-514.0,-240.0,-1043.0,-981.0,0.775289,-0.111149,0.621633,9772.0,-5158.0,9322.0,387.0,-129.0,-277.0
2847.0,2798.0,2847.0,3143.0,3054.0,0.899841,-0.052551,-0.432739,0.01416,27.0,-18.0,-13.0,5302.0,-2046.0,4606.0,-1065.0,-1170.0,-472.0,-320.0,-1277.0,-995.0,0.777305,-0.106831,0.61989,10486.0,-5122.0,9398.0,640.0,-392.0,-275.0
2847.0,2794.0,2855.0,3147.0,3047.0,0.897705,-0.043457,-0.43811,0.016968,46.0,-28.0,-10.0,5738.0,-1792.0,4744.0,-693.0,-1031.0,-272.0,-220.0,-1091.0,-614.0,0.785113,-0.092891,0.612333,13204.0,-1478.0,9760.0,1069.0,-622.0,-215.0
2851.0,2787.0,2855.0,3143.0,3054.0,0.895325,-0.032532,-0.443726,0.019043,31.0,-24.0,-12.0,6131.0,-645.0,4780.0,-367.0,-29.0,-168.0,-88.0,-58.0,-390.0,0.793318,-0.075153,0.604018,12838.0,2746.0,9896.0,727.0,-530.0,-271.0
2845.0,2781.0,2853.0,3135.0,3039.0,0.894287,-0.029419,-0.446167,0.017822,6.0,-23.0,-16.0,6029.0,-11.0,4639.0,-499.0,550.0,-277.0,-81.0,509.0,-601.0,0.796954,-0.068521,0.600137,11132.0,3630.0,8068.0,142.0,-517.0,-352.0
2843.0,2772.0,2845.0,3139.0,3047.0,0.890747,-0.030884,-0.453308,0.009888,-44.0,-38.0,-23.0,5799.0,667.0,4637.0,-811.0,1191.0,-172.0,-326.0,1143.0,-831.0,0.806955,-0.063984,0.587086,11176.0,2034.0,10026.0,-1003.0,-849.0,-518.0
2851.0,2781.0,2851.0,3151.0,3055.0,0.888611,-0.0354,-0.457214,0.003967,-64.0,-37.0,-24.0,5777.0,530.0,4691.0,-877.0,1075.0,-55.0,-438.0,1034.0,-815.0,0.81229,-0.066542,0.579347,11366.0,-366.0,9346.0,-1447.0,-846.0,-528.0
2845.0,2779.0,2853.0,3147.0,3051.0,0.883789,-0.049622,-0.465149,-0.007446,-75.0,-34.0,-12.0,6624.0,-286.0,4897.0,-117.0,375.0,290.0,-282.0,396.0,36.0,0.822926,-0.080783,0.562313,17086.0,-3720.0,11514.0,-1708.0,-769.0,-269.0
2839.0,2763.0,2837.0,3141.0,3039.0,0.882019,-0.056702,-0.46759,-0.011475,-61.0,-19.0,-6.0,7245.0,-765.0,5019.0,477.0,-33.0,462.0,-114.0,34.0,653.0,0.826148,-0.089293,0.556233,18042.0,-4144.0,10060.0,-1383.0,-418.0,-123.0
2842.0,2766.0,2833.0,3143.0,3039.0,0.880615,-0.064453,-0.469238,-0.015198,-18.0,-1.0,-2.0,7421.0,-1210.0,4725.0,634.0,-396.0,208.0,148.0,-344.0,679.0,0.828396,-0.099254,0.551375,14208.0,-2444.0,8480.0,-402.0,-14.0,-33.0
2837.0,2767.0,2833.0,3147.0,3039.0,0.880188,-0.066101,-0.469666,-0.016602,-9.0,-2.0,-1.0,7347.0,-634.0,4663.0,555.0,191.0,156.0,198.0,228.0,526.0,0.828983,-0.100768,0.550051,15062.0,858.0,9518.0,-189.0,-45.0,-4.0
2845.0,2774.0,2839.0,3151.0,3051.0,0.879944,-0.066589,-0.470093,-0.017212,-10.0,-3.0,2.0,7523.0,-339.0,4735.0,726.0,488.0,236.0,255.0,538.0,682.0,0.829603,-0.101007,0.549176,16316.0,884.0,10034.0,-220.0,-63.0,63.0
2843.0,2774.0,2835.0,3147.0,3047.0,0.879517,-0.068909,-0.47052,-0.016235,-4.0,2.0,17.0,7977.0,-330.0,4778.0,1178.0,537.0,291.0,465.0,614.0,1080.0,0.829898,-0.105935,0.547675,16696.0,-1504.0,9204.0,-91.0,50.0,405.0
2838.0,2765.0,2831.0,3139.0,3045.0,0.879578,-0.06958,-0.470459,-0.013245,10.0,0.0,27.0,8130.0,-526.0,4795.0,1335.0,374.0,308.0,522.0,468.0,1234.0,0.829454,-0.10994,0.547659,17378.0,-2210.0,9896.0,251.0,21.0,623.0
2839.0,2767.0,2839.0,3143.0,3039.0,0.880798,-0.065491,-0.468872,-0.001038,54.0,19.0,40.0,8891.0,-817.0,5321.0,2123.0,120.0,801.0,535.0,338.0,2181.0,0.826099,-0.114395,0.551677,19878.0,-1562.0,13002.0,1258.0,452.0,931.0
2851.0,2779.0,2849.0,3143.0,3047.0,0.884033,-0.060059,-0.46344,0.006165,70.0,58.0,33.0,8787.0,-745.0,5546.0,2080.0,171.0,932.0,429.0,401.0,2208.0,0.818652,-0.111901,0.563169,15976.0,-1038.0,11886.0,1608.0,1330.0,765.0
2851.0,2787.0,2878.0,3151.0,3055.0,0.895081,-0.046265,-0.443176,0.016846,69.0,90.0,7.0,6233.0,-752.0,4234.0,-253.0,48.0,-705.0,407.0,-18.0,-630.0,0.791798,-0.097752,0.602907,3020.0,-1868.0,2832.0,1588.0,2067.0,179.0
2847.0,2779.0,2847.0,3135.0,3043.0,0.899048,-0.040955,-0.435425,0.020264,49.0,58.0,5.0,4664.0,-731.0,3510.0,-1736.0,16.0,-1547.0,137.0,-195.0,-2312.0,0.781276,-0.091287,0.617426,22.0,-468.0,3190.0,1144.0,1344.0,130.0
2847.0,2782.0,2851.0,3135.0,3043.0,0.899536,-0.039246,-0.434448,0.022034,-11.0,-21.0,7.0,4439.0,-212.0,3605.0,-1949.0,523.0,-1468.0,-64.0,301.0,-2476.0,0.779874,-0.089751,0.619365,15828.0,732.0,14284.0,-232.0,-477.0,167.0
2847.0,2795.0,2860.0,3149.0,3051.0,0.899414,-0.041199,-0.43457,0.021851,-21.0,3.0,10.0,5333.0,-127.0,4303.0,-1056.0,635.0,-766.0,-58.0,510.0,-1356.0,0.779917,-0.093101,0.618874,15148.0,-496.0,11472.0,-473.0,85.0,235.0
2850.0,2791.0,2861.0,3147.0,3051.0,0.901306,-0.046814,-0.430054,0.021301,-15.0,28.0,4.0,5812.0,-1011.0,4383.0,-522.0,-169.0,-742.0,247.0,-258.0,-850.0,0.773226,-0.102709,0.625669,11784.0,-5294.0,8412.0,-325.0,647.0,94.0
2846.0,2803.0,2847.0,3135.0,3039.0,0.90271,-0.048218,-0.426941,0.021362,-2.0,28.0,-1.0,5640.0,-1455.0,4386.0,-657.0,-592.0,-781.0,185.0,-694.0,-935.0,0.768748,-0.105294,0.630738,9702.0,-5372.0,8792.0,-23.0,659.0,-12.0
2847.0,2781.0,2847.0,3143.0,3047.0,0.904419,-0.046082,-0.423584,0.022827,25.0,-6.0,-6.0,4507.0,-2083.0,4299.0,-1752.0,-1241.0,-918.0,-413.0,-1433.0,-1795.0,0.764091,-0.102692,0.636948,5502.0,-5854.0,8574.0,589.0,-115.0,-125.0
2851.0,2796.0,2860.0,3151.0,3047.0,0.903503,-0.042664,-0.425659,0.024658,41.0,-34.0,-8.0,4035.0,-2351.0,4229.0,-2248.0,-1547.0,-964.0,-674.0,-1775.0,-2183.0,0.767065,-0.098085,0.633921,5652.0,-6220.0,7890.0,940.0,-759.0,-166.0
2851.0,2795.0,2859.0,3147.0,3051.0,0.89801,-0.02948,-0.437927,0.030273,67.0,-69.0,-10.0,4520.0,-1853.0,4185.0,-1908.0,-1202.0,-850.0,-468.0,-1373.0,-1924.0,0.784741,-0.079462,0.61469,12910.0,326.0,8708.0,1545.0,-1562.0,-208.0
2853.0,2786.0,2847.0,3143.0,3054.0,0.891785,-0.017761,-0.450989,0.03241,4.0,-49.0,-5.0,6234.0,427.0,4744.0,-345.0,925.0,-110.0,-153.0,896.0,-398.0,0.803218,-0.060911,0.592624,17646.0,8042.0,11364.0,113.0,-1101.0,-110.0
2847.0,2771.0,2845.0,3139.0,3047.0,0.889771,-0.018677,-0.455139,0.028625,-44.0,-31.0,-12.0,6905.0,1181.0,5096.0,278.0,1666.0,303.0,-139.0,1683.0,303.0,0.80887,-0.059293,0.585011,17410.0,5672.0,12362.0,-992.0,-694.0,-274.0
2847.0,2768.0,2843.0,3135.0,3039.0,0.88855,-0.029785,-0.457581,0.015686,-74.0,-3.0,-26.0,6853.0,480.0,5136.0,199.0,1031.0,388.0,-200.0,1054.0,317.0,0.812232,-0.067286,0.5795,11270.0,-3580.0,8646.0,-1682.0,-48.0,-578.0
2851.0,2773.0,2843.0,3151.0,3053.0,0.887878,-0.036377,-0.458496,0.009705,-64.0,-11.0,-24.0,6463.0,-342.0,4689.0,-200.0,260.0,-36.0,-82.0,247.0,-202.0,0.813472,-0.073496,0.57688,10910.0,-5562.0,6656.0,-1462.0,-242.0,-537.0
2847.0,2779.0,2845.0,3152.0,3055.0,0.884644,-0.045166,-0.46405,0.002991,-26.0,-27.0,-10.0,6566.0,-1278.0,4493.0,-157.0,-600.0,-137.0,1.0,-615.0,-156.0,0.820768,-0.082687,0.56522,14336.0,-3866.0,9030.0,-578.0,-605.0,-226.0
2847.0,2773.0,2846.0,3143.0,3055.0,0.881714,-0.047058,-0.469421,0.002258,-1.0,-20.0,2.0,7219.0,-986.0,4748.0,439.0,-288.0,202.0,66.0,-249.0,499.0,0.827578,-0.085104,0.554853,16020.0,-106.0,10168.0,-17.0,-451.0,59.0
2847.0,2767.0,2834.0,3141.0,3043.0,0.880798,-0.046814,-0.47113,0.002686,1.0,-14.0,4.0,7446.0,-681.0,4822.0,649.0,15.0,302.0,110.0,70.0,703.0,0.82969,-0.084998,0.551658,16234.0,436.0,10086.0,36.0,-302.0,101.0
2847.0,2768.0,2833.0,3141.0,3043.0,0.880615,-0.04657,-0.471497,0.003052,-3.0,7.0,3.0,7527.0,-289.0,4757.0,726.0,406.0,243.0,216.0,459.0,702.0,0.83013,-0.084898,0.551015,14300.0,120.0,8702.0,-50.0,175.0,72.0
2849.0,2778.0,2845.0,3143.0,3053.0,0.881287,-0.046692,-0.470276,0.002747,-4.0,13.0,-1.0,7255.0,-268.0,4536.0,466.0,427.0,3.0,274.0,448.0,351.0,0.828639,-0.084881,0.553334,12626.0,-562.0,7620.0,-77.0,319.0,-5.0
2847.0,2789.0,2842.0,3150.0,3055.0,0.882385,-0.047546,-0.46814,0.001587,-6.0,5.0,-3.0,6507.0,-475.0,4151.0,-259.0,224.0,-413.0,205.0,176.0,-463.0,0.826008,-0.085394,0.557191,11018.0,-1734.0,7526.0,-128.0,131.0,-47.0
2846.0,2766.0,2835.0,3135.0,3039.0,0.882324,-0.048096,-0.46814,0.001282,-5.0,-3.0,-1.0,6358.0,-575.0,4150.0,-408.0,130.0,-413.0,117.0,75.0,-578.0,0.825979,-0.086072,0.55703,12134.0,-1666.0,8438.0,-108.0,-50.0,-15.0
2846.0,2767.0,2839.0,3135.0,3043.0,0.881592,-0.049255,-0.46936,0.001221,-5.0,-8.0,2.0,6400.0,-605.0,4287.0,-378.0,115.0,-255.0,4.0,74.0,-464.0,0.827448,-0.087992,0.55448,13332.0,-1146.0,9118.0,-112.0,-165.0,64.0
2849.0,2771.0,2847.0,3143.0,3055.0,0.881287,-0.049988,-0.469971,0.001221,-7.0,-5.0,3.0,6549.0,-591.0,4376.0,-235.0,140.0,-156.0,4.0,114.0,-293.0,0.828236,-0.089255,0.553296,14038.0,-1126.0,9292.0,-146.0,-114.0,75.0
2851.0,2773.0,2847.0,3151.0,3047.0,0.881287,-0.051392,-0.469727,0.001038,-4.0,5.0,1.0,6749.0,-652.0,4451.0,-32.0,98.0,-82.0,54.0,88.0,-80.0,0.827821,-0.091556,0.553383,13992.0,-1374.0,9214.0,-83.0,117.0,26.0
2845.0,2766.0,2838.0,3139.0,3043.0,0.881775,-0.051514,-0.468811,0.000854,-2.0,9.0,-1.0,6757.0,-649.0,4492.0,-15.0,101.0,-55.0,41.0,94.0,-52.0,0.826684,-0.091648,0.55509,13356.0,-1286.0,9144.0,-27.0,222.0,-21.0
2839.0,2765.0,2835.0,3141.0,3043.0,0.882935,-0.05127,-0.466614,6.1e-05,-2.0,6.0,-3.0,6433.0,-606.0,4421.0,-316.0,136.0,-160.0,-40.0,105.0,-362.0,0.823973,-0.090592,0.559216,11954.0,-1128.0,8848.0,-33.0,160.0,-64.0
2849.0,2773.0,2845.0,3143.0,3047.0,0.883179,-0.051392,-0.466187,-0.000366,-4.0,1.0,-2.0,6301.0,-624.0,4422.0,-445.0,116.0,-165.0,-110.0,79.0,-469.0,0.82349,-0.090434,0.560034,11808.0,-1402.0,8794.0,-76.0,39.0,-41.0
2847.0,2779.0,2847.0,3151.0,3051.0,0.88269,-0.052307,-0.467041,-0.00061,-4.0,-8.0,1.0,6304.0,-731.0,4453.0,-450.0,20.0,-120.0,-153.0,-12.0,-439.0,0.824569,-0.091772,0.558279,13264.0,-1740.0,9132.0,-75.0,-174.0,25.0
2847.0,2768.0,2835.0,3142.0,3045.0,0.882263,-0.052734,-0.467773,-0.000488,-2.0,-7.0,1.0,6477.0,-781.0,4499.0,-285.0,-22.0,-62.0,-110.0,-41.0,-267.0,0.82545,-0.092594,0.556796,14094.0,-1846.0,9252.0,-40.0,-151.0,41.0
2845.0,2767.0,2835.0,3135.0,3039.0,0.882141,-0.052673,-0.468018,6.1e-05,3.0,4.0,0.0,6795.0,-815.0,4514.0,30.0,-53.0,-43.0,49.0,-55.0,5.0,0.825709,-0.092988,0.556358,14188.0,-1554.0,8864.0,75.0,97.0,20.0
2851.0,2774.0,2845.0,3147.0,3051.0,0.882568,-0.052185,-0.467285,0.000244,4.0,8.0,-1.0,6840.0,-765.0,4487.0,83.0,-8.0,-82.0,114.0,-11.0,23.0,0.824797,-0.092342,0.557848,13846.0,-1156.0,8836.0,112.0,206.0,-9.0
2850.0,2778.0,2847.0,3147.0,3047.0,0.88385,-0.050842,-0.464966,6.1e-05,2.0,10.0,-3.0,6602.0,-568.0,4388.0,-131.0,168.0,-219.0,113.0,141.0,-245.0,0.821914,-0.089931,0.562413,12068.0,-640.0,8440.0,58.0,241.0,-58.0
2847.0,2767.0,2838.0,3135.0,3039.0,0.884277,-0.050476,-0.464233,-0.000305,-1.0,5.0,-3.0,6417.0,-527.0,4328.0,-309.0,201.0,-291.0,72.0,159.0,-435.0,0.821053,-0.088986,0.563886,11848.0,-888.0,8368.0,0.0,118.0,-63.0
2843.0,2767.0,2837.0,3139.0,3039.0,0.884033,-0.05072,-0.4646,-0.000793,-4.0,-7.0,-1.0,6264.0,-586.0,4320.0,-465.0,142.0,-292.0,-17.0,93.0,-559.0,0.821523,-0.088939,0.56309,12472.0,-1506.0,8642.0,-77.0,-139.0,-2.0
2849.0,2774.0,2847.0,3143.0,3053.0,0.883545,-0.051147,-0.465454,-0.000916,-4.0,-9.0,0.0,6341.0,-662.0,4353.0,-397.0,71.0,-245.0,-19.0,30.0,-470.0,0.822593,-0.08953,0.561389,13278.0,-1844.0,8930.0,-74.0,-189.0,11.0
2850.0,2778.0,2847.0,3151.0,3043.0,0.882751,-0.051636,-0.46698,-0.00061,0.0,-6.0,1.0,6548.0,-804.0,4391.0,-206.0,-61.0,-184.0,32.0,-87.0,-267.0,0.824518,-0.090593,0.558514,13738.0,-1854.0,8902.0,16.0,-117.0,24.0
2847.0,2766.0,2837.0,3142.0,3039.0,0.882568,-0.051575,-0.467346,-0.000366,2.0,-2.0,0.0,6616.0,-814.0,4407.0,-142.0,-71.0,-162.0,50.0,-92.0,-201.0,0.824968,-0.090694,0.557855,13534.0,-1630.0,8862.0,54.0,-43.0,16.0
2847.0,2767.0,2838.0,3142.0,3071.0,0.882629,-0.050598,-0.467285,0.0,5.0,1.0,-2.0,6598.0,-799.0,4415.0,-159.0,-67.0,-157.0,36.0,-88.0,-212.0,0.824879,-0.089319,0.558119,13052.0,-1470.0,8896.0,128.0,24.0,-25.0
2847.0,2777.0,2847.0,3151.0,3047.0,0.882751,-0.049866,-0.467163,0.000244,6.0,0.0,-2.0,6552.0,-762.0,4423.0,-204.0,-38.0,-152.0,8.0,-60.0,-249.0,0.824753,-0.088266,0.558522,12746.0,-1260.0,8870.0,157.0,16.0,-24.0
2850.0,2775.0,2832.0,3151.0,3047.0,0.88269,-0.048096,-0.467407,0.000854,6.0,-3.0,-1.0,6470.0,-584.0,4445.0,-288.0,118.0,-129.0,-50.0,93.0,-319.0,0.82507,-0.085706,0.55836,12864.0,-544.0,9082.0,139.0,-67.0,-10.0
2847.0,2766.0,2839.0,3139.0,3039.0,0.882568,-0.047546,-0.467773,0.000977,2.0,-5.0,0.0,6470.0,-499.0,4481.0,-293.0,196.0,-88.0,-83.0,174.0,-307.0,0.825591,-0.084839,0.557855,12990.0,-566.0,9186.0,68.0,-100.0,9.0
2847.0,2765.0,2835.0,3135.0,3042.0,0.882019,-0.047852,-0.468689,0.001221,-4.0,-5.0,3.0,6598.0,-491.0,4530.0,-174.0,209.0,-24.0,-68.0,197.0,-175.0,0.826668,-0.085556,0.556,13724.0,-1210.0,9108.0,-78.0,-93.0,76.0
2854.0,2774.0,2847.0,3147.0,3047.0,0.881897,-0.048401,-0.468933,0.001404,-4.0,-2.0,3.0,6659.0,-535.0,4520.0,-115.0,175.0,-30.0,-32.0,166.0,-126.0,0.826965,-0.086686,0.555503,13640.0,-1332.0,8976.0,-75.0,-33.0,79.0
2851.0,2774.0,2844.0,3150.0,3051.0,0.88208,-0.049011,-0.468567,0.001526,-1.0,3.0,0.0,6674.0,-621.0,4481.0,-96.0,99.0,-74.0,11.0,87.0,-129.0,0.826477,-0.087894,0.556111,13266.0,-1494.0,8822.0,-21.0,84.0,14.0
2847.0,2767.0,2839.0,3139.0,3047.0,0.882324,-0.049072,-0.468079,0.001526,-1.0,4.0,0.0,6648.0,-657.0,4455.0,-117.0,64.0,-107.0,25.0,48.0,-161.0,0.825844,-0.088024,0.556993,13102.0,-1500.0,8788.0,-4.0,102.0,7.0
2847.0,2767.0,2838.0,3135.0,3039.0,0.88269,-0.049072,-0.467346,0.001709,1.0,2.0,0.0,6496.0,-701.0,4385.0,-261.0,21.0,-188.0,9.0,-7.0,-322.0,0.824876,-0.088229,0.558325,12494.0,-1430.0,8560.0,24.0,46.0,16.0
2851.0,2777.0,2843.0,3150.0,3051.0,0.88269,-0.049011,-0.467285,0.001892,1.0,-1.0,1.0,6459.0,-677.0,4395.0,-297.0,46.0,-179.0,-17.0,16.0,-348.0,0.824751,-0.088292,0.558388,12808.0,-1140.0,8904.0,32.0,-15.0,25.0
2847.0,2779.0,2847.0,3150.0,3042.0,0.882568,-0.04895,-0.46759,0.002136,-1.0,-2.0,1.0,6513.0,-583.0,4441.0,-246.0,141.0,-129.0,-25.0,117.0,-287.0,0.825152,-0.088402,0.557895,13248.0,-934.0,9012.0,-18.0,-33.0,36.0
2847.0,2767.0,2838.0,3139.0,3039.0,0.882507,-0.049133,-0.467651,0.002136,-3.0,-1.0,1.0,6527.0,-583.0,4419.0,-233.0,143.0,-149.0,-2.0,118.0,-288.0,0.825202,-0.088719,0.557712,13084.0,-1244.0,8640.0,-49.0,-11.0,33.0
2847.0,2767.0,2837.0,3141.0,3043.0,0.882507,-0.049561,-0.467651,0.002136,-1.0,0.0,0.0,6550.0,-684.0,4399.0,-210.0,48.0,-169.0,23.0,22.0,-271.0,0.8252,-0.089473,0.55767,13226.0,-1716.0,8808.0,-19.0,12.0,14.0
2847.0,2775.0,2847.0,3147.0,3047.0,0.882507,-0.049622,-0.46759,0.002258,1.0,1.0,0.0,6570.0,-736.0,4400.0,-189.0,-1.0,-168.0,32.0,-24.0,-249.0,0.82508,-0.089695,0.557721,13240.0,-1732.0,8800.0,25.0,27.0,17.0
2851.0,2777.0,2846.0,3143.0,3045.0,0.882751,-0.049255,-0.467224,0.002625,2.0,2.0,0.0,6599.0,-714.0,4409.0,-156.0,18.0,-166.0,49.0,-4.0,-222.0,0.824627,-0.089413,0.558533,13376.0,-1250.0,8836.0,53.0,59.0,3.0
2845.0,2767.0,2843.0,3135.0,3043.0,0.882935,-0.049011,-0.466858,0.002686,1.0,3.0,-1.0,6614.0,-695.0,4407.0,-137.0,34.0,-174.0,67.0,12.0,-213.0,0.824147,-0.089055,0.559222,13320.0,-1300.0,8712.0,31.0,83.0,-4.0
2850.0,2767.0,2843.0,3139.0,3045.0,0.883301,-0.048828,-0.466248,0.002563,-1.0,1.0,-1.0,6516.0,-682.0,4350.0,-229.0,44.0,-241.0,70.0,12.0,-327.0,0.823423,-0.08865,0.560456,12814.0,-1362.0,8662.0,-8.0,43.0,-12.0
2850.0,2775.0,2851.0,3149.0,3047.0,0.883301,-0.048889,-0.466187,0.002502,-2.0,0.0,-1.0,6513.0,-690.0,4368.0,-231.0,36.0,-223.0,54.0,5.0,-318.0,0.823321,-0.088701,0.560507,13066.0,-1454.0,8882.0,-26.0,8.0,-6.0
2851.0,2779.0,2847.0,3151.0,3051.0,0.883301,-0.049194,-0.466248,0.00238,-1.0,-1.0,-1.0,6508.0,-728.0,4379.0,-237.0,2.0,-211.0,39.0,-27.0,-313.0,0.823439,-0.089126,0.560419,12868.0,-1526.0,8760.0,-19.0,-5.0,-3.0
2847.0,2767.0,2839.0,3135.0,3039.0,0.88324,-0.049255,-0.466309,0.002319,-1.0,-2.0,-1.0,6475.0,-721.0,4391.0,-271.0,9.0,-198.0,10.0,-21.0,-334.0,0.823496,-0.089172,0.560248,12780.0,-1362.0,8898.0,-8.0,-24.0,-9.0
2851.0,2768.0,2838.0,3139.0,3045.0,0.883057,-0.049316,-0.466675,0.002136,-2.0,-3.0,-1.0,6513.0,-689.0,4471.0,-237.0,40.0,-113.0,-38.0,18.0,-262.0,0.82399,-0.089092,0.559576,13342.0,-1366.0,9198.0,-25.0,-51.0,-6.0
2851.0,2775.0,2847.0,3147.0,3051.0,0.882996,-0.049316,-0.466797,0.002075,-1.0,-1.0,-1.0,6544.0,-702.0,4495.0,-207.0,27.0,-87.0,-43.0,9.0,-221.0,0.824154,-0.08903,0.559354,13200.0,-1514.0,8998.0,-9.0,-17.0,-10.0
2854.0,2779.0,2847.0,3151.0,3051.0,0.883057,-0.049011,-0.466675,0.002014,1.0,0.0,-2.0,6537.0,-691.0,4503.0,-213.0,33.0,-81.0,-52.0,15.0,-223.0,0.824003,-0.088439,0.559606,13082.0,-1244.0,9030.0,39.0,10.0,-33.0
2847.0,2769.0,2839.0,3139.0,3043.0,0.883118,-0.048706,-0.466614,0.001892,1.0,0.0,-2.0,6520.0,-662.0,4497.0,-229.0,57.0,-88.0,-54.0,38.0,-242.0,0.823965,-0.087792,0.5598,12914.0,-1118.0,8946.0,35.0,7.0,-34.0
2845.0,2768.0,2837.0,3138.0,3039.0,0.883057,-0.048279,-0.466736,0.001709,0.0,-1.0,-1.0,6496.0,-636.0,4476.0,-255.0,75.0,-108.0,-51.0,53.0,-277.0,0.824143,-0.086861,0.559619,12928.0,-1316.0,8832.0,14.0,-21.0,-21.0
2849.0,2775.0,2850.0,3147.0,3051.0,0.882996,-0.048157,-0.466858,0.001709,0.0,-2.0,-1.0,6465.0,-657.0,4432.0,-287.0,52.0,-150.0,-36.0,25.0,-324.0,0.824302,-0.08664,0.559409,12710.0,-1450.0,8544.0,22.0,-33.0,-9.0
2850.0,2775.0,2841.0,3147.0,3047.0,0.88269,-0.047729,-0.467468,0.001892,2.0,-4.0,0.0,6452.0,-623.0,4400.0,-307.0,81.0,-173.0,-26.0,51.0,-356.0,0.825079,-0.08603,0.558341,12988.0,-950.0,8834.0,50.0,-78.0,1.0
2847.0,2768.0,2845.0,3135.0,3047.0,0.882507,-0.047485,-0.467896,0.002014,1.0,-4.0,0.0,6466.0,-575.0,4399.0,-297.0,127.0,-169.0,-22.0,98.0,-350.0,0.825651,-0.085697,0.557642,13032.0,-908.0,8774.0,23.0,-85.0,8.0
2879.0,2770.0,2843.0,3139.0,3043.0,0.882141,-0.047363,-0.468567,0.002075,0.0,-3.0,0.0,6556.0,-559.0,4398.0,-214.0,141.0,-159.0,17.0,117.0,-277.0,0.826488,-0.085507,0.556379,13380.0,-1108.0,8736.0,3.0,-50.0,13.0
2847.0,2774.0,2847.0,3149.0,3046.0,0.88208,-0.047363,-0.46875,0.002136,-1.0,-1.0,0.0,6587.0,-567.0,4389.0,-185.0,133.0,-166.0,39.0,109.0,-256.0,0.826748,-0.085559,0.5561,13346.0,-1194.0,8718.0,-1.0,-15.0,9.0
2853.0,2775.0,2847.0,3143.0,3047.0,0.882141,-0.047302,-0.468628,0.002075,-1.0,1.0,-1.0,6592.0,-592.0,4376.0,-179.0,107.0,-181.0,53.0,83.0,-257.0,0.826596,-0.0854,0.556328,13060.0,-1246.0,8736.0,-3.0,37.0,-2.0
2847.0,2767.0,2839.0,3139.0,3047.0,0.882202,-0.047302,-0.468445,0.002014,-1.0,1.0,-1.0,6553.0,-610.0,4368.0,-216.0,89.0,-191.0,40.0,62.0,-292.0,0.826335,-0.085347,0.556607,12878.0,-1354.0,8748.0,-10.0,33.0,-5.0
2847.0,2768.0,2839.0,3139.0,3043.0,0.882263,-0.047424,-0.468384,0.002014,-1.0,-1.0,0.0,6513.0,-655.0,4367.0,-255.0,45.0,-193.0,18.0,16.0,-322.0,0.826285,-0.085568,0.55676,12990.0,-1446.0,8734.0,-6.0,-8.0,13.0
2853.0,2775.0,2850.0,3151.0,3053.0,0.882202,-0.047485,-0.468445,0.002136,0.0,-1.0,0.0,6515.0,-677.0,4378.0,-254.0,25.0,-181.0,8.0,-2.0,-312.0,0.826323,-0.085785,0.55659,13048.0,-1496.0,8846.0,12.0,-18.0,19.0
2851.0,2775.0,2847.0,3149.0,3051.0,0.882141,-0.047302,-0.468567,0.002441,1.0,-1.0,0.0,6536.0,-660.0,4407.0,-234.0,42.0,-150.0,-5.0,18.0,-280.0,0.826453,-0.085742,0.556386,13200.0,-1094.0,8952.0,31.0,-16.0,14.0
2850.0,2770.0,2837.0,3139.0,3043.0,0.882141,-0.047241,-0.468628,0.002502,0.0,-1.0,0.0,6534.0,-619.0,4423.0,-237.0,82.0,-134.0,-18.0,59.0,-277.0,0.826555,-0.085692,0.556335,13006.0,-1018.0,8910.0,7.0,-5.0,6.0
2847.0,2768.0,2843.0,3143.0,3039.0,0.88208,-0.047424,-0.468689,0.002258,-3.0,-1.0,-1.0,6514.0,-623.0,4412.0,-257.0,79.0,-143.0,-22.0,54.0,-298.0,0.826628,-0.085781,0.556152,12974.0,-1416.0,8776.0,-49.0,-16.0,-4.0
2851.0,2774.0,2847.0,3147.0,3054.0,0.882019,-0.047668,-0.46875,0.002136,-2.0,-2.0,-1.0,6513.0,-663.0,4415.0,-259.0,42.0,-139.0,-28.0,17.0,-295.0,0.826689,-0.086092,0.555963,13030.0,-1580.0,8854.0,-42.0,-23.0,-2.0
2847.0,2774.0,2847.0,3151.0,3047.0,0.881836,-0.047913,-0.469055,0.002075,0.0,-2.0,-1.0,6522.0,-738.0,4380.0,-253.0,-29.0,-169.0,-3.0,-55.0,-300.0,0.827061,-0.086449,0.555331,13144.0,-1626.0,8670.0,5.0,-36.0,-11.0
2843.0,2769.0,2845.0,3135.0,3047.0,0.881775,-0.047791,-0.469238,0.002136,1.0,-2.0,-1.0,6539.0,-750.0,4369.0,-238.0,-43.0,-178.0,12.0,-69.0,-291.0,0.827321,-0.086286,0.555063,13166.0,-1522.0,8646.0,33.0,-34.0,-9.0
2847.0,2768.0,2843.0,3143.0,3046.0,0.881592,-0.047302,-0.469604,0.002441,3.0,-2.0,-1.0,6549.0,-738.0,4338.0,-232.0,-35.0,-204.0,37.0,-62.0,-302.0,0.827768,-0.085696,0.554444,13078.0,-1432.0,8592.0,71.0,-25.0,-1.0
2843.0,2773.0,2847.0,3141.0,3051.0,0.881531,-0.046875,-0.469727,0.002686,4.0,-1.0,0.0,6555.0,-755.0,4327.0,-227.0,-57.0,-213.0,47.0,-84.0,-301.0,0.827905,-0.085166,0.554263,13162.0,-1712.0,8572.0,99.0,-22.0,12.0
2853.0,2775.0,2845.0,3147.0,3045.0,0.88147,-0.045776,-0.469971,0.004089,8.0,-2.0,3.0,6523.0,-816.0,4289.0,-261.0,-123.0,-249.0,56.0,-154.0,-343.0,0.828156,-0.084545,0.554038,12796.0,-1794.0,8486.0,202.0,-26.0,73.0
2847.0,2768.0,2841.0,3139.0,3043.0,0.881409,-0.044983,-0.470154,0.005127,10.0,-3.0,4.0,6483.0,-786.0,4309.0,-302.0,-96.0,-228.0,17.0,-128.0,-368.0,0.828334,-0.084118,0.55384,12716.0,-1256.0,8818.0,251.0,-55.0,92.0
2851.0,2769.0,2843.0,3139.0,3046.0,0.881104,-0.043091,-0.470886,0.00708,7.0,-7.0,4.0,6410.0,-506.0,4404.0,-382.0,170.0,-124.0,-104.0,140.0,-399.0,0.829189,-0.082603,0.552803,12748.0,14.0,9176.0,173.0,-138.0,96.0
2851.0,2775.0,2847.0,3151.0,3047.0,0.880798,-0.042603,-0.471497,0.007629,2.0,-8.0,3.0,6425.0,-366.0,4450.0,-373.0,307.0,-69.0,-141.0,281.0,-372.0,0.829937,-0.082243,0.55174,13010.0,-8.0,9130.0,56.0,-164.0,82.0
2851.0,2775.0,2847.0,3151.0,3047.0,0.880066,-0.04303,-0.472839,0.007629,-5.0,-5.0,1.0,6605.0,-395.0,4435.0,-207.0,284.0,-63.0,-54.0,267.0,-230.0,0.831603,-0.082953,0.549146,13924.0,-1330.0,8636.0,-96.0,-111.0,30.0
82.0,-0.455627,0.007324,0.0,2.0,-1.0,6488.0,-690.0,4701.0,-142.0,35.0,-54.0,-38.0,22.0,-149.0,0.809354,-0.088599,0.580505,13030.0,-1322.0,9444.0,12.0,68.0,-16.0,,,,,,
2851.0,2778.0,2850.0,3154.0,3047.0,0.889282,-0.045959,-0.455017,0.007202,0.0,2.0,-1.0,6472.0,-687.0,4679.0,-152.0,36.0,-86.0,-18.0,21.0,-176.0,0.808615,-0.088296,0.581722,12882.0,-1346.0,9232.0,7.0,62.0,-6.0
2847.0,2770.0,2846.0,3138.0,3047.0,0.889404,-0.045898,-0.454773,0.007202,0.0,2.0,-1.0,6464.0,-680.0,4671.0,-157.0,42.0,-98.0,-11.0,25.0,-187.0,0.808293,-0.088195,0.582167,12870.0,-1308.0,9324.0,3.0,49.0,-3.0
2847.0,2768.0,2843.0,3138.0,3043.0,0.889526,-0.046021,-0.454468,0.007019,-2.0,0.0,-1.0,6435.0,-666.0,4658.0,-183.0,56.0,-115.0,-12.0,37.0,-219.0,0.807876,-0.088253,0.582648,12798.0,-1334.0,9306.0,-38.0,17.0,-6.0
2851.0,2778.0,2847.0,3143.0,3047.0,0.889587,-0.046265,-0.454407,0.006836,-3.0,0.0,-1.0,6443.0,-681.0,4650.0,-174.0,44.0,-124.0,0.0,24.0,-216.0,0.807836,-0.088525,0.582787,12940.0,-1486.0,9220.0,-56.0,12.0,-6.0
2853.0,2779.0,2849.0,3149.0,3047.0,0.889648,-0.046753,-0.454224,0.00647,-3.0,1.0,-1.0,6473.0,-713.0,4635.0,-142.0,16.0,-141.0,31.0,-2.0,-198.0,0.807594,-0.089065,0.583011,12982.0,-1490.0,9244.0,-48.0,43.0,-21.0
2849.0,2771.0,2843.0,3139.0,3045.0,0.889771,-0.046875,-0.453979,0.006287,-2.0,2.0,-2.0,6459.0,-728.0,4625.0,-154.0,2.0,-154.0,34.0,-18.0,-214.0,0.807286,-0.089124,0.583436,12816.0,-1540.0,9172.0,-31.0,58.0,-24.0
2847.0,2769.0,2845.0,3139.0,3043.0,0.890015,-0.046936,-0.45343,0.00592,-1.0,2.0,-1.0,6396.0,-683.0,4617.0,-211.0,45.0,-170.0,14.0,20.0,-273.0,0.806563,-0.088917,0.584359,12594.0,-1162.0,9248.0,-16.0,56.0,-22.0
2855.0,2775.0,2847.0,3151.0,3051.0,0.890137,-0.046936,-0.453125,0.005737,-2.0,2.0,-1.0,6383.0,-646.0,4622.0,-220.0,81.0,-169.0,9.0,55.0,-283.0,0.806148,-0.088758,0.584851,12684.0,-1082.0,9284.0,-29.0,56.0,-19.0
2849.0,2775.0,2851.0,3151.0,3047.0,0.890442,-0.04718,-0.452637,0.00531,-3.0,2.0,-1.0,6330.0,-622.0,4574.0,-269.0,105.0,-224.0,25.0,72.0,-357.0,0.805592,-0.088829,0.585809,12492.0,-1240.0,8984.0,-48.0,50.0,-16.0
2847.0,2771.0,2845.0,3143.0,3043.0,0.890503,-0.047363,-0.452454,0.005066,-3.0,1.0,-1.0,6314.0,-619.0,4557.0,-283.0,109.0,-244.0,33.0,74.0,-380.0,0.805343,-0.088938,0.586064,12598.0,-1184.0,9044.0,-48.0,36.0,-12.0
2849.0,2771.0,2842.0,3139.0,3047.0,0.890564,-0.047852,-0.452271,0.0047,-4.0,0.0,0.0,6299.0,-614.0,4529.0,-296.0,119.0,-273.0,49.0,81.0,-409.0,0.805102,-0.089481,0.586288,12490.0,-1220.0,8918.0,-71.0,21.0,4.0
2849.0,2775.0,2847.0,3147.0,3051.0,0.890564,-0.048218,-0.452271,0.004456,-4.0,0.0,-1.0,6261.0,-608.0,4491.0,-334.0,128.0,-311.0,57.0,84.0,-462.0,0.805122,-0.089912,0.58625,12258.0,-1166.0,8726.0,-82.0,8.0,-9.0
2851.0,2775.0,2851.0,3149.0,3051.0,0.890564,-0.048828,-0.452209,0.003113,-7.0,2.0,-6.0,6270.0,-591.0,4453.0,-325.0,144.0,-349.0,94.0,97.0,-479.0,0.805139,-0.089784,0.586236,12994.0,-1236.0,8912.0,-142.0,59.0,-132.0
2847.0,2773.0,2843.0,3141.0,3045.0,0.890869,-0.049255,-0.451477,0.001648,-10.0,9.0,-10.0,6400.0,-622.0,4500.0,-188.0,109.0,-311.0,143.0,72.0,-343.0,0.804252,-0.089248,0.587393,13564.0,-1442.0,9270.0,-208.0,228.0,-229.0
2847.0,2773.0,2845.0,3139.0,3047.0,0.892944,-0.050415,-0.447327,-0.003662,-17.0,26.0,-20.0,6552.0,-559.0,4591.0,4.0,151.0,-280.0,233.0,124.0,-176.0,0.799245,-0.086759,0.59472,13566.0,-792.0,9622.0,-378.0,617.0,-437.0
2850.0,2777.0,2845.0,3149.0,3047.0,0.89447,-0.051147,-0.444153,-0.007141,-19.0,31.0,-21.0,6579.0,-548.0,4658.0,63.0,149.0,-259.0,252.0,124.0,-118.0,0.795293,-0.085156,0.60024,13170.0,-1090.0,9736.0,-425.0,732.0,-479.0
2849.0,2778.0,2847.0,3151.0,3047.0,0.897461,-0.053406,-0.437561,-0.013,-18.0,28.0,-12.0,6462.0,-658.0,4723.0,16.0,34.0,-284.0,234.0,3.0,-163.0,0.786776,-0.084482,0.611293,12150.0,-1544.0,9506.0,-411.0,644.0,-254.0
2847.0,2771.0,2847.0,3143.0,3039.0,0.89856,-0.055054,-0.435059,-0.014771,-19.0,20.0,-5.0,6318.0,-649.0,4732.0,-100.0,56.0,-308.0,182.0,19.0,-272.0,0.783478,-0.086086,0.615321,11784.0,-1202.0,9608.0,-424.0,475.0,-111.0
2847.0,2771.0,2847.0,3147.0,3043.0,0.899719,-0.059326,-0.432129,-0.016968,-21.0,8.0,3.0,6091.0,-648.0,4800.0,-295.0,106.0,-275.0,37.0,65.0,-410.0,0.779603,-0.092089,0.619528,11690.0,-1360.0,9890.0,-461.0,189.0,69.0
2847.0,2775.0,2847.0,3150.0,3047.0,0.899841,-0.061768,-0.431396,-0.017578,-21.0,3.0,5.0,6032.0,-655.0,4869.0,-345.0,131.0,-210.0,-42.0,95.0,-411.0,0.778548,-0.095996,0.620105,11760.0,-1330.0,10178.0,-459.0,91.0,124.0
2847.0,2775.0,2847.0,3139.0,3051.0,0.899658,-0.066895,-0.430969,-0.018311,-22.0,-2.0,7.0,6116.0,-601.0,5043.0,-256.0,255.0,-32.0,-112.0,241.0,-245.0,0.7779,-0.104582,0.619511,12940.0,-1126.0,10802.0,-502.0,-35.0,172.0
2847.0,2771.0,2843.0,3143.0,3043.0,0.899536,-0.06958,-0.430847,-0.018738,-23.0,-1.0,6.0,6260.0,-652.0,5144.0,-111.0,241.0,72.0,-102.0,245.0,-68.0,0.777733,-0.109033,0.619046,13398.0,-1762.0,10830.0,-505.0,-1.0,155.0
2847.0,2771.0,2843.0,3143.0,3039.0,0.899902,-0.074219,-0.429199,-0.019714,-16.0,11.0,3.0,6529.0,-924.0,5234.0,176.0,31.0,150.0,-1.0,58.0,225.0,0.775401,-0.116656,0.620493,13648.0,-2624.0,10584.0,-359.0,270.0,77.0
2847.0,2779.0,2845.0,3147.0,3057.0,0.900635,-0.075806,-0.427429,-0.020264,-12.0,17.0,1.0,6532.0,-996.0,5224.0,199.0,-19.0,119.0,32.0,5.0,230.0,0.772987,-0.119224,0.623111,12856.0,-2314.0,10346.0,-274.0,404.0,32.0
2847.0,2779.0,2851.0,3151.0,3051.0,0.902466,-0.07782,-0.423035,-0.021851,-9.0,17.0,-3.0,6143.0,-1054.0,5081.0,-139.0,-54.0,-79.0,-34.0,-69.0,-149.0,0.766949,-0.121972,0.629908,10846.0,-2206.0,9712.0,-199.0,405.0,-57.0
2847.0,2769.0,2845.0,3139.0,3043.0,0.903137,-0.078613,-0.421448,-0.022705,-9.0,11.0,-4.0,5937.0,-1039.0,5038.0,-328.0,-32.0,-142.0,-106.0,-62.0,-336.0,0.76482,-0.122859,0.632374,10710.0,-1908.0,9904.0,-185.0,263.0,-76.0
2845.0,2770.0,2843.0,3143.0,3047.0,0.903381,-0.080261,-0.420593,-0.024231,-10.0,-4.0,-2.0,5737.0,-965.0,5088.0,-520.0,55.0,-100.0,-253.0,25.0,-467.0,0.763802,-0.12463,0.633344,11332.0,-1736.0,10474.0,-224.0,-74.0,-38.0
2847.0,2783.0,2847.0,3147.0,3047.0,0.902954,-0.08136,-0.421204,-0.024719,-11.0,-9.0,0.0,5801.0,-957.0,5148.0,-463.0,76.0,-28.0,-268.0,59.0,-381.0,0.764677,-0.126105,0.631905,12136.0,-1904.0,10680.0,-249.0,-191.0,3.0
2847.0,2781.0,2851.0,3151.0,3051.0,0.901978,-0.083557,-0.422913,-0.025391,-8.0,-7.0,0.0,6092.0,-1039.0,5208.0,-192.0,19.0,60.0,-166.0,24.0,-112.0,0.767158,-0.129257,0.628371,13228.0,-2422.0,10438.0,-177.0,-154.0,14.0
2847.0,2769.0,2841.0,3143.0,3043.0,0.901733,-0.08429,-0.423279,-0.025574,-5.0,-2.0,0.0,6244.0,-1077.0,5195.0,-44.0,-9.0,54.0,-70.0,0.0,1.0,0.76768,-0.130364,0.627507,13332.0,-2334.0,10260.0,-112.0,-34.0,17.0
2843.0,2769.0,2842.0,3147.0,3039.0,0.901978,-0.084717,-0.422546,-0.025757,0.0,5.0,-1.0,6178.0,-1141.0,4979.0,-102.0,-67.0,-169.0,54.0,-98.0,-175.0,0.766619,-0.131058,0.628504,11612.0,-2452.0,9154.0,14.0,132.0,-16.0
2849.0,2779.0,2851.0,3150.0,3051.0,0.902222,-0.084473,-0.422058,-0.025757,2.0,3.0,-2.0,6043.0,-1125.0,4893.0,-231.0,-54.0,-263.0,44.0,-104.0,-335.0,0.765931,-0.130684,0.629399,11296.0,-2036.0,9376.0,65.0,90.0,-34.0
2847.0,2779.0,2847.0,3151.0,3045.0,0.902222,-0.08374,-0.42218,-0.025879,0.0,-4.0,-2.0,5884.0,-980.0,4921.0,-392.0,78.0,-235.0,-64.0,26.0,-458.0,0.766134,-0.129253,0.629425,11396.0,-1490.0,10042.0,22.0,-84.0,-26.0
2847.0,2774.0,2845.0,3143.0,3039.0,0.901978,-0.083618,-0.422791,-0.026001,-1.0,-7.0,-2.0,5864.0,-947.0,4950.0,-419.0,108.0,-198.0,-105.0,62.0,-459.0,0.767043,-0.128857,0.628496,11738.0,-1796.0,10098.0,-20.0,-153.0,-33.0
2846.0,2771.0,2841.0,3147.0,3039.0,0.901184,-0.083679,-0.424438,-0.026306,-1.0,-8.0,-2.0,5998.0,-1002.0,5011.0,-304.0,50.0,-114.0,-101.0,22.0,-311.0,0.769397,-0.12849,0.625675,12672.0,-2114.0,10312.0,-9.0,-172.0,-40.0
2847.0,2779.0,2847.0,3151.0,3047.0,0.900879,-0.083679,-0.425049,-0.026428,-1.0,-5.0,-2.0,6124.0,-1013.0,5046.0,-185.0,38.0,-70.0,-60.0,20.0,-191.0,0.770258,-0.128303,0.624613,13006.0,-2076.0,10218.0,-3.0,-108.0,-30.0
2849.0,2779.0,2851.0,3135.0,3051.0,0.900818,-0.083557,-0.425293,-0.02655,0.0,2.0,-1.0,6242.0,-1050.0,4983.0,-71.0,-1.0,-131.0,54.0,-25.0,-136.0,0.77066,-0.127956,0.624322,12498.0,-2204.0,9614.0,22.0,48.0,-14.0
2847.0,2770.0,2843.0,3142.0,3043.0,0.90094,-0.083313,-0.425049,-0.02655,2.0,3.0,-1.0,6191.0,-1080.0,4908.0,-119.0,-35.0,-210.0,79.0,-73.0,-218.0,0.770311,-0.12755,0.62479,12018.0,-2318.0,9358.0,60.0,75.0,-22.0
2845.0,2773.0,2835.0,3143.0,3043.0,0.901123,-0.082397,-0.424744,-0.026428,3.0,0.0,-1.0,6065.0,-1025.0,4858.0,-241.0,7.0,-266.0,49.0,-43.0,-352.0,0.769848,-0.12605,0.625525,11816.0,-1678.0,9712.0,85.0,7.0,-18.0
2847.0,2779.0,2851.0,3149.0,3047.0,0.901123,-0.082031,-0.424927,-0.026367,2.0,-2.0,-1.0,6030.0,-954.0,4873.0,-279.0,73.0,-250.0,21.0,23.0,-380.0,0.770148,-0.125432,0.625426,11866.0,-1486.0,9868.0,46.0,-41.0,-7.0
2851.0,2783.0,2853.0,3153.0,3053.0,0.900757,-0.081909,-0.425598,-0.026367,-1.0,-5.0,-1.0,6003.0,-944.0,4907.0,-313.0,80.0,-206.0,-32.0,36.0,-379.0,0.77104,-0.125117,0.624215,12000.0,-2150.0,9870.0,-12.0,-98.0,-6.0
2846.0,2771.0,2839.0,3179.0,3043.0,0.900574,-0.08197,-0.426086,-0.026306,0.0,-5.0,-1.0,6035.0,-995.0,4935.0,-287.0,30.0,-172.0,-47.0,-6.0,-332.0,0.771757,-0.125223,0.623456,12318.0,-2316.0,10066.0,14.0,-102.0,-2.0
2847.0,2771.0,2845.0,3143.0,3039.0,0.900391,-0.081421,-0.426575,-0.025818,4.0,-1.0,0.0,6139.0,-1019.0,5026.0,-188.0,1.0,-75.0,-61.0,-15.0,-192.0,0.772372,-0.124595,0.622774,12490.0,-1940.0,10282.0,95.0,-20.0,15.0
2847.0,2775.0,2847.0,3147.0,3047.0,0.900513,-0.080933,-0.426514,-0.025513,4.0,1.0,0.0,6159.0,-984.0,5053.0,-167.0,31.0,-51.0,-63.0,18.0,-164.0,0.772292,-0.123999,0.62311,12394.0,-1706.0,10278.0,107.0,23.0,16.0
2847.0,2779.0,2827.0,3151.0,3047.0,0.900818,-0.079956,-0.425964,-0.025024,3.0,1.0,0.0,6122.0,-929.0,5061.0,-197.0,76.0,-52.0,-76.0,61.0,-193.0,0.771434,-0.122733,0.62426,12118.0,-1790.0,10076.0,81.0,44.0,22.0
2845.0,2769.0,2843.0,3147.0,3039.0,0.90094,-0.079651,-0.425781,-0.02478,3.0,1.0,1.0,6090.0,-937.0,5038.0,-227.0,65.0,-79.0,-76.0,45.0,-232.0,0.771154,-0.122419,0.624673,12000.0,-1950.0,9922.0,70.0,26.0,27.0
2847.0,2770.0,2845.0,3143.0,3043.0,0.901001,-0.079163,-0.425842,-0.02417,2.0,-2.0,1.0,6050.0,-941.0,4991.0,-267.0,58.0,-127.0,-66.0,30.0,-292.0,0.771195,-0.122066,0.624779,12020.0,-1868.0,9846.0,62.0,-35.0,29.0
2850.0,2777.0,2851.0,3151.0,3047.0,0.900879,-0.078918,-0.426086,-0.023865,2.0,-3.0,1.0,6061.0,-943.0,4985.0,-258.0,55.0,-129.0,-59.0,27.0,-286.0,0.771471,-0.121855,0.624375,12256.0,-1922.0,9978.0,57.0,-63.0,27.0
2854.0,2779.0,2853.0,3147.0,3053.0,0.900635,-0.078552,-0.426758,-0.023315,2.0,-3.0,1.0,6135.0,-961.0,5010.0,-192.0,35.0,-96.0,-44.0,14.0,-212.0,0.772369,-0.121594,0.623394,12504.0,-1890.0,10168.0,54.0,-56.0,35.0
2847.0,2771.0,2839.0,3153.0,3043.0,0.900574,-0.07843,-0.42688,-0.02301,2.0,-2.0,1.0,6161.0,-939.0,5023.0,-167.0,57.0,-82.0,-37.0,38.0,-187.0,0.772483,-0.121619,0.623185,12488.0,-1726.0,10134.0,46.0,-25.0,33.0
2847.0,2768.0,2847.0,3143.0,3043.0,0.900696,-0.078186,-0.426636,-0.022766,0.0,1.0,0.0,6179.0,-929.0,5030.0,-146.0,65.0,-78.0,-26.0,47.0,-169.0,0.772098,-0.121418,0.62364,12264.0,-1900.0,9976.0,16.0,42.0,13.0
2847.0,2779.0,2849.0,3151.0,3051.0,0.900879,-0.078125,-0.426392,-0.022705,0.0,2.0,0.0,6149.0,-950.0,5013.0,-173.0,44.0,-100.0,-28.0,22.0,-201.0,0.771802,-0.1214,0.624185,12106.0,-2048.0,9914.0,18.0,46.0,9.0
2850.0,2782.0,2847.0,3152.0,3051.0,0.901001,-0.077942,-0.426147,-0.022461,1.0,-1.0,0.0,6051.0,-975.0,4974.0,-268.0,18.0,-142.0,-59.0,-11.0,-297.0,0.77142,-0.121308,0.624631,11718.0,-1958.0,9794.0,34.0,-4.0,12.0
2847.0,2770.0,2845.0,3139.0,3043.0,0.90094,-0.07782,-0.42627,-0.022339,1.0,-3.0,0.0,6001.0,-962.0,4973.0,-319.0,30.0,-142.0,-90.0,-1.0,-338.0,0.771563,-0.121177,0.62443,11746.0,-1824.0,10006.0,25.0,-54.0,3.0
2843.0,2769.0,2843.0,3143.0,3039.0,0.900574,-0.077759,-0.427063,-0.022217,-1.0,-5.0,0.0,6059.0,-964.0,5035.0,-270.0,27.0,-69.0,-115.0,8.0,-254.0,0.772659,-0.121079,0.623097,12412.0,-2004.0,10230.0,-3.0,-105.0,0.0
2850.0,2775.0,2850.0,3149.0,3051.0,0.900391,-0.077759,-0.42749,-0.022156,0.0,-5.0,0.0,6109.0,-980.0,5058.0,-225.0,11.0,-40.0,-110.0,-1.0,-200.0,0.773262,-0.121084,0.6224,12558.0,-2046.0,10266.0,6.0,-92.0,0.0
2850.0,2778.0,2849.0,3151.0,3051.0,0.900208,-0.077637,-0.427979,-0.021973,1.0,-1.0,0.0,6201.0,-986.0,5091.0,-139.0,4.0,-1.0,-86.0,0.0,-108.0,0.773951,-0.120971,0.621663,12540.0,-1910.0,10260.0,30.0,-19.0,10.0
2847.0,2774.0,2843.0,3143.0,3043.0,0.900208,-0.077454,-0.427856,-0.021851,1.0,0.0,0.0,6181.0,-987.0,5078.0,-157.0,2.0,-15.0,-87.0,-4.0,-131.0,0.773704,-0.120751,0.621791,12170.0,-2026.0,10028.0,43.0,15.0,1.0
2845.0,2773.0,2843.0,3151.0,3043.0,0.900391,-0.076843,-0.427734,-0.021545,3.0,-1.0,0.0,6048.0,-989.0,5036.0,-289.0,-6.0,-61.0,-136.0,-23.0,-260.0,0.773567,-0.119946,0.622306,11706.0,-1854.0,10050.0,79.0,-20.0,6.0
2853.0,2785.0,2852.0,3153.0,3047.0,0.90033,-0.076477,-0.427917,-0.02124,3.0,-4.0,0.0,5990.0,-954.0,5023.0,-348.0,25.0,-73.0,-161.0,3.0,-317.0,0.773782,-0.119531,0.622082,11680.0,-1650.0,9970.0,75.0,-77.0,17.0
2852.0,2782.0,2849.0,3151.0,3053.0,0.89978,-0.076111,-0.429138,-0.020874,0.0,-8.0,0.0,6002.0,-881.0,5025.0,-350.0,94.0,-54.0,-169.0,74.0,-316.0,0.775438,-0.11905,0.620088,12204.0,-1708.0,9958.0,11.0,-172.0,18.0
2845.0,2768.0,2846.0,3143.0,3047.0,0.899353,-0.076172,-0.429993,-0.020691,-1.0,-9.0,0.0,6048.0,-897.0,5011.0,-313.0,79.0,-56.0,-145.0,60.0,-287.0,0.776583,-0.119217,0.618568,12408.0,-1914.0,9922.0,-6.0,-190.0,21.0
2847.0,2768.0,2839.0,3149.0,3043.0,0.898682,-0.076172,-0.431458,-0.020325,1.0,-5.0,0.0,6230.0,-997.0,4982.0,-148.0,-19.0,-64.0,-45.0,-32.0,-152.0,0.778582,-0.11937,0.616084,13006.0,-2328.0,9844.0,40.0,-109.0,14.0
2850.0,2779.0,2853.0,3151.0,3047.0,0.89856,-0.075928,-0.431824,-0.020081,3.0,-2.0,0.0,6290.0,-1013.0,4954.0,-92.0,-37.0,-88.0,6.0,-52.0,-121.0,0.779088,-0.119109,0.615576,12862.0,-2016.0,9774.0,82.0,-28.0,6.0
2847.0,2781.0,2847.0,3149.0,3053.0,0.898682,-0.075012,-0.431641,-0.019775,3.0,1.0,-1.0,6241.0,-909.0,4899.0,-138.0,55.0,-147.0,32.0,27.0,-204.0,0.778782,-0.117752,0.616079,12120.0,-1428.0,9580.0,71.0,42.0,-12.0
2847.0,2771.0,2843.0,3143.0,3039.0,0.898743,-0.074707,-0.431519,-0.019775,1.0,0.0,-1.0,6167.0,-872.0,4875.0,-211.0,88.0,-174.0,11.0,54.0,-281.0,0.778603,-0.117218,0.61634,11860.0,-1582.0,9624.0,27.0,14.0,-14.0
2847.0,2775.0,2855.0,3149.0,3045.0,0.89856,-0.074646,-0.431946,-0.019836,-1.0,-4.0,0.0,6088.0,-882.0,4865.0,-295.0,76.0,-178.0,-39.0,39.0,-348.0,0.77922,-0.117011,0.615654,12104.0,-1780.0,9822.0,-3.0,-89.0,3.0
2851.0,2783.0,2851.0,3151.0,3051.0,0.898315,-0.074707,-0.432434,-0.019775,-1.0,-5.0,0.0,6102.0,-883.0,4884.0,-286.0,76.0,-152.0,-53.0,43.0,-325.0,0.779879,-0.117118,0.614781,12312.0,-1750.0,9880.0,-10.0,-111.0,11.0
2851.0,2781.0,2851.0,3147.0,3047.0,0.897827,-0.074951,-0.433411,-0.019592,-1.0,-5.0,0.0,6164.0,-901.0,4895.0,-235.0,62.0,-126.0,-42.0,35.0,-268.0,0.781193,-0.117603,0.613015,12604.0,-1920.0,9830.0,-16.0,-101.0,13.0
2847.0,2772.0,2843.0,3139.0,3043.0,0.897644,-0.075012,-0.433838,-0.019531,-1.0,-4.0,0.0,6209.0,-929.0,4891.0,-195.0,35.0,-124.0,-21.0,9.0,-232.0,0.781794,-0.117722,0.612304,12674.0,-2004.0,9744.0,-5.0,-71.0,17.0
2847.0,2771.0,2843.0,3143.0,3047.0,0.897522,-0.07489,-0.434143,-0.019226,2.0,-1.0,0.0,6263.0,-947.0,4879.0,-144.0,17.0,-133.0,15.0,-7.0,-196.0,0.782186,-0.117737,0.611827,12610.0,-1802.0,9774.0,46.0,-4.0,12.0
2850.0,2779.0,2851.0,3149.0,3047.0,0.897583,-0.074646,-0.434082,-0.019043,2.0,0.0,0.0,6237.0,-918.0,4874.0,-169.0,44.0,-139.0,7.0,17.0,-222.0,0.782092,-0.11747,0.612019,12250.0,-1646.0,9718.0,58.0,16.0,7.0
2851.0,2783.0,2850.0,3151.0,3051.0,0.897583,-0.074219,-0.434143,-0.018921,0.0,-2.0,0.0,6147.0,-823.0,4866.0,-260.0,133.0,-147.0,-34.0,101.0,-308.0,0.782167,-0.116806,0.612025,12072.0,-1398.0,9782.0,2.0,-33.0,7.0
2849.0,2773.0,2845.0,3143.0,3039.0,0.897461,-0.07428,-0.434326,-0.018982,-2.0,-3.0,0.0,6119.0,-821.0,4867.0,-290.0,136.0,-143.0,-55.0,104.0,-330.0,0.782402,-0.116838,0.61164,12086.0,-1680.0,9742.0,-38.0,-67.0,13.0
2845.0,2771.0,2843.0,3147.0,3045.0,0.897095,-0.074768,-0.435059,-0.018982,-2.0,-4.0,0.0,6160.0,-902.0,4870.0,-257.0,61.0,-129.0,-53.0,32.0,-287.0,0.783416,-0.117632,0.610273,12484.0,-2074.0,9720.0,-32.0,-80.0,7.0
2849.0,2782.0,2850.0,3151.0,3053.0,0.896912,-0.07489,-0.435364,-0.018982,-1.0,-3.0,0.0,6205.0,-933.0,4874.0,-215.0,32.0,-120.0,-36.0,6.0,-245.0,0.783809,-0.117812,0.609661,12720.0,-1998.0,9784.0,-4.0,-58.0,0.0
2850.0,2779.0,2851.0,3150.0,3055.0,0.896851,-0.074768,-0.435547,-0.01886,0.0,0.0,0.0,6241.0,-922.0,4871.0,-182.0,42.0,-121.0,-14.0,17.0,-221.0,0.784061,-0.117683,0.609405,12438.0,-1750.0,9658.0,15.0,9.0,2.0
2847.0,2771.0,2842.0,3155.0,3039.0,0.896912,-0.074707,-0.435486,-0.01886,0.0,0.0,0.0,6226.0,-905.0,4852.0,-196.0,58.0,-141.0,-6.0,29.0,-246.0,0.784003,-0.117585,0.609577,12350.0,-1744.0,9626.0,8.0,14.0,0.0
2846.0,2770.0,2833.0,3143.0,3039.0,0.896851,-0.074646,-0.435486,-0.01886,-1.0,-1.0,-1.0,6183.0,-898.0,4810.0,-239.0,64.0,-182.0,0.0,28.0,-305.0,0.783947,-0.117466,0.609477,12286.0,-1802.0,9474.0,-1.0,-17.0,-4.0
2858.0,2775.0,2847.0,3139.0,3051.0,0.89679,-0.074646,-0.435669,-0.01886,0.0,-2.0,-1.0,6164.0,-903.0,4789.0,-260.0,59.0,-201.0,1.0,19.0,-333.0,0.784222,-0.11745,0.609208,12224.0,-1836.0,9440.0,4.0,-39.0,-3.0
2851.0,2779.0,2853.0,3147.0,3053.0,0.896484,-0.074585,-0.436279,-0.01886,-1.0,-4.0,0.0,6176.0,-862.0,4819.0,-255.0,98.0,-162.0,-21.0,64.0,-310.0,0.785048,-0.117272,0.608137,12464.0,-1588.0,9832.0,-7.0,-73.0,3.0
2847.0,2775.0,2846.0,3143.0,3043.0,0.896362,-0.074646,-0.436584,-0.01886,-2.0,-3.0,0.0,6209.0,-860.0,4836.0,-225.0,101.0,-141.0,-19.0,71.0,-274.0,0.785491,-0.117352,0.607643,12646.0,-1750.0,9758.0,-23.0,-61.0,6.0
2847.0,2771.0,2843.0,3143.0,3043.0,0.89624,-0.074768,-0.436829,-0.018799,0.0,-1.0,0.0,6255.0,-912.0,4842.0,-182.0,51.0,-132.0,-4.0,24.0,-229.0,0.785818,-0.117597,0.60719,12472.0,-1974.0,9600.0,4.0,-5.0,4.0
2849.0,2779.0,2849.0,3151.0,3051.0,0.89624,-0.074707,-0.436829,-0.018738,1.0,0.0,-1.0,6239.0,-926.0,4822.0,-198.0,36.0,-152.0,0.0,6.0,-252.0,0.785806,-0.11754,0.607197,12384.0,-1880.0,9506.0,30.0,11.0,-2.0
2851.0,2779.0,2849.0,3151.0,3047.0,0.896301,-0.07428,-0.436768,-0.018677,0.0,-1.0,-1.0,6191.0,-866.0,4819.0,-245.0,91.0,-156.0,-20.0,58.0,-297.0,0.785725,-0.116839,0.607421,12210.0,-1508.0,9662.0,20.0,-4.0,-2.0
2847.0,2774.0,2846.0,3147.0,3047.0,0.896301,-0.074219,-0.436829,-0.018677,-1.0,-2.0,-1.0,6163.0,-849.0,4822.0,-274.0,107.0,-153.0,-39.0,74.0,-320.0,0.785832,-0.116728,0.607377,12162.0,-1644.0,9680.0,-6.0,-29.0,-2.0
2847.0,2770.0,2847.0,3147.0,3047.0,0.895996,-0.074402,-0.437317,-0.018799,-2.0,-4.0,0.0,6142.0,-879.0,4829.0,-300.0,78.0,-138.0,-69.0,46.0,-328.0,0.786466,-0.116885,0.606381,12294.0,-1972.0,9592.0,-28.0,-83.0,5.0
2847.0,2779.0,2850.0,3147.0,3047.0,0.895813,-0.074524,-0.437744,-0.018738,-1.0,-5.0,0.0,6165.0,-906.0,4828.0,-282.0,53.0,-133.0,-64.0,23.0,-308.0,0.787067,-0.117114,0.605658,12488.0,-1948.0,9646.0,-4.0,-101.0,8.0
2851.0,2753.0,2850.0,3147.0,3051.0,0.895386,-0.074463,-0.438538,-0.018555,0.0,-4.0,0.0,6239.0,-863.0,4839.0,-216.0,96.0,-110.0,-37.0,71.0,-247.0,0.788084,-0.117072,0.6042,12746.0,-1452.0,9708.0,3.0,-71.0,3.0
2846.0,2771.0,2846.0,3143.0,3039.0,0.895264,-0.074402,-0.438843,-0.018616,-1.0,-2.0,0.0,6279.0,-839.0,4834.0,-180.0,118.0,-111.0,-11.0,94.0,-222.0,0.78853,-0.11688,0.603725,12760.0,-1572.0,9630.0,-18.0,-39.0,2.0
2847.0,2773.0,2845.0,3143.0,3071.0,0.895203,-0.074707,-0.438965,-0.018799,-2.0,-1.0,-1.0,6255.0,-862.0,4765.0,-206.0,98.0,-178.0,22.0,63.0,-281.0,0.788734,-0.117252,0.60347,12334.0,-1864.0,9276.0,-36.0,-5.0,-1.0
2849.0,2782.0,2854.0,3151.0,3047.0,0.895142,-0.07489,-0.439087,-0.01886,-2.0,-1.0,-1.0,6222.0,-890.0,4724.0,-240.0,72.0,-217.0,29.0,30.0,-328.0,0.788915,-0.117512,0.603228,12228.0,-1934.0,9228.0,-25.0,-19.0,-1.0
2850.0,2779.0,2847.0,3153.0,3047.0,0.894897,-0.075073,-0.439514,-0.01886,-1.0,-3.0,0.0,6172.0,-907.0,4693.0,-295.0,57.0,-241.0,13.0,10.0,-384.0,0.789472,-0.117787,0.602389,12252.0,-1804.0,9344.0,-19.0,-64.0,6.0
2847.0,2775.0,2847.0,3143.0,3043.0,0.894714,-0.075256,-0.43988,-0.01886,-2.0,-4.0,0.0,6172.0,-906.0,4689.0,-299.0,61.0,-240.0,11.0,14.0,-387.0,0.789973,-0.118074,0.601711,12350.0,-1816.0,9352.0,-34.0,-72.0,10.0
2847.0,2770.0,2843.0,3149.0,3047.0,0.894348,-0.075684,-0.440491,-0.01886,-2.0,-3.0,0.0,6207.0,-943.0,4660.0,-270.0,29.0,-258.0,40.0,-19.0,-371.0,0.790759,-0.11876,0.600454,12632.0,-2008.0,9246.0,-28.0,-47.0,12.0
2851.0,2779.0,2850.0,3151.0,3047.0,0.894226,-0.075806,-0.440674,-0.018799,-1.0,-1.0,0.0,6245.0,-944.0,4651.0,-234.0,30.0,-264.0,67.0,-18.0,-347.0,0.790974,-0.119006,0.600054,12672.0,-1856.0,9220.0,-9.0,-18.0,14.0
2849.0,2779.0,2849.0,3151.0,3047.0,0.894287,-0.075806,-0.440674,-0.018738,-1.0,1.0,0.0,6227.0,-892.0,4569.0,-253.0,83.0,-347.0,126.0,20.0,-418.0,0.791019,-0.11907,0.600161,12364.0,-1576.0,8916.0,-1.0,28.0,1.0
2847.0,2772.0,2846.0,3151.0,3047.0,0.894287,-0.075806,-0.440613,-0.01886,-1.0,1.0,-1.0,6215.0,-853.0,4535.0,-264.0,121.0,-381.0,150.0,52.0,-451.0,0.790928,-0.118964,0.600219,12376.0,-1482.0,8884.0,-16.0,34.0,-4.0
2845.0,2771.0,2843.0,3147.0,3045.0,0.894348,-0.076111,-0.440369,-0.019104,-3.0,1.0,0.0,6147.0,-851.0,4411.0,-329.0,126.0,-508.0,210.0,35.0,-580.0,0.790594,-0.119314,0.600506,12064.0,-1772.0,8360.0,-48.0,43.0,4.0
2852.0,2781.0,2850.0,3151.0,3055.0,0.894348,-0.076355,-0.440308,-0.019165,-3.0,1.0,0.0,6146.0,-841.0,4377.0,-329.0,139.0,-542.0,238.0,43.0,-602.0,0.790503,-0.119699,0.600525,12426.0,-1590.0,8652.0,-51.0,32.0,21.0
2851.0,2779.0,2847.0,3147.0,3047.0,0.89447,-0.076965,-0.440002,-0.019348,-5.0,3.0,1.0,6257.0,-702.0,4388.0,-215.0,286.0,-534.0,316.0,192.0,-525.0,0.790116,-0.12066,0.600926,12934.0,-948.0,8900.0,-97.0,89.0,30.0
2847.0,2774.0,2845.0,3149.0,3047.0,0.894653,-0.077515,-0.439575,-0.019714,-7.0,6.0,0.0,6305.0,-681.0,4379.0,-163.0,313.0,-548.0,361.0,218.0,-496.0,0.789591,-0.121366,0.601558,12858.0,-1382.0,8624.0,-157.0,148.0,22.0
2845.0,2771.0,2845.0,3142.0,3045.0,0.895203,-0.079285,-0.438049,-0.02063,-8.0,9.0,0.0,6306.0,-823.0,4228.0,-145.0,191.0,-717.0,491.0,68.0,-570.0,0.787557,-0.123878,0.60364,12634.0,-2204.0,8002.0,-168.0,228.0,7.0
2830.0,2779.0,2847.0,3150.0,3045.0,0.895569,-0.079956,-0.437073,-0.020996,-5.0,11.0,0.0,6299.0,-928.0,4170.0,-141.0,94.0,-786.0,535.0,-38.0,-598.0,0.786215,-0.124859,0.605059,12504.0,-2454.0,7992.0,-102.0,253.0,5.0
2846.0,2775.0,2847.0,3151.0,3043.0,0.896545,-0.080444,-0.43512,-0.021301,-1.0,10.0,-1.0,6186.0,-991.0,4124.0,-233.0,38.0,-860.0,527.0,-109.0,-710.0,0.783636,-0.125707,0.608447,12112.0,-1928.0,8376.0,-10.0,250.0,-11.0
2849.0,2775.0,2845.0,3143.0,3047.0,0.896973,-0.080444,-0.434082,-0.021545,-1.0,10.0,-1.0,6170.0,-958.0,4176.0,-237.0,70.0,-822.0,497.0,-72.0,-695.0,0.782186,-0.125608,0.610126,12248.0,-1690.0,8714.0,-16.0,240.0,-19.0
2847.0,2773.0,2842.0,3145.0,3039.0,0.897949,-0.080505,-0.432068,-0.022217,-2.0,10.0,-2.0,6122.0,-886.0,4303.0,-263.0,141.0,-723.0,409.0,12.0,-666.0,0.779527,-0.125381,0.613643,12370.0,-1488.0,9116.0,-42.0,236.0,-40.0
2847.0,2779.0,2847.0,3143.0,3045.0,0.898438,-0.080261,-0.431152,-0.022583,1.0,9.0,-3.0,6154.0,-863.0,4409.0,-222.0,158.0,-632.0,365.0,45.0,-581.0,0.778352,-0.124746,0.615366,12396.0,-1672.0,9438.0,27.0,214.0,-47.0
2851.0,2777.0,2847.0,3147.0,3045.0,0.898987,-0.078247,-0.43042,-0.021606,16.0,-2.0,1.0,6082.0,-943.0,4580.0,-285.0,57.0,-476.0,193.0,-27.0,-522.0,0.777265,-0.122086,0.61726,12084.0,-1930.0,9858.0,375.0,-30.0,24.0
2847.0,2782.0,2849.0,3175.0,3045.0,0.898804,-0.075562,-0.431274,-0.020142,27.0,-11.0,0.0,6175.0,-979.0,4761.0,-200.0,-8.0,-289.0,96.0,-57.0,-332.0,0.778306,-0.118457,0.616547,13160.0,-2286.0,10568.0,633.0,-237.0,17.0
2851.0,2779.0,2851.0,3147.0,3047.0,0.898071,-0.066284,-0.43457,-0.014404,55.0,-11.0,6.0,6826.0,-1031.0,5094.0,416.0,-158.0,68.0,192.0,-134.0,384.0,0.78246,-0.106536,0.613495,16138.0,-1516.0,11550.0,1263.0,-235.0,155.0
2850.0,2783.0,2855.0,3151.0,3047.0,0.898621,-0.06012,-0.434448,-0.010071,60.0,8.0,12.0,7106.0,-807.0,5268.0,699.0,6.0,227.0,258.0,56.0,685.0,0.782019,-0.099299,0.615261,15498.0,-270.0,11430.0,1385.0,191.0,295.0
2855.0,2783.0,2857.0,3149.0,3047.0,0.90332,-0.048584,-0.426208,-0.001343,49.0,51.0,18.0,6814.0,-283.0,5165.0,505.0,426.0,-12.0,349.0,442.0,344.0,0.770136,-0.086629,0.631975,11324.0,842.0,9278.0,1142.0,1185.0,415.0
2854.0,2783.0,2859.0,3135.0,3046.0,0.906494,-0.044678,-0.4198,0.001953,35.0,57.0,15.0,6294.0,-190.0,4950.0,60.0,486.0,-321.0,299.0,461.0,-201.0,0.760918,-0.08264,0.643507,9302.0,-250.0,8574.0,815.0,1324.0,345.0
2853.0,2784.0,2855.0,3135.0,3047.0,0.912231,-0.041748,-0.40741,0.006165,5.0,49.0,12.0,5133.0,-313.0,4653.0,-951.0,352.0,-790.0,-39.0,251.0,-1259.0,0.742789,-0.081191,0.664479,5656.0,-438.0,7250.0,130.0,1145.0,289.0
2851.0,2789.0,2862.0,3147.0,3047.0,0.91394,-0.043213,-0.403442,0.006226,-15.0,27.0,6.0,5106.0,-252.0,4348.0,-930.0,436.0,-1146.0,228.0,306.0,-1490.0,0.736907,-0.084011,0.670693,12708.0,-1276.0,10686.0,-336.0,636.0,152.0
2854.0,2789.0,2859.0,3150.0,3051.0,0.917603,-0.048584,-0.394409,0.005798,-20.0,47.0,8.0,5676.0,-596.0,5378.0,-248.0,171.0,-226.0,-2.0,138.0,-350.0,0.723258,-0.093735,0.684109,11340.0,-2412.0,11956.0,-444.0,1082.0,188.0
2851.0,2789.0,2859.0,3135.0,3047.0,0.919861,-0.050964,-0.388794,0.005371,-17.0,48.0,3.0,5670.0,-863.0,5646.0,-185.0,-60.0,-26.0,-112.0,-71.0,-144.0,0.714725,-0.097937,0.692415,11182.0,-3468.0,12884.0,-371.0,1113.0,75.0
2855.0,2789.0,2855.0,3135.0,3047.0,0.9245,-0.053284,-0.377441,0.004211,-1.0,43.0,-3.0,5319.0,-1355.0,5986.0,-394.0,-521.0,174.0,-420.0,-520.0,-98.0,0.69744,-0.101701,0.709416,8948.0,-3806.0,12880.0,-7.0,1003.0,-56.0
2858.0,2789.0,2861.0,3152.0,3047.0,0.926392,-0.053101,-0.372803,0.004272,6.0,31.0,-2.0,4907.0,-1448.0,6044.0,-747.0,-615.0,175.0,-679.0,-630.0,-327.0,0.690269,-0.101569,0.716418,7222.0,-3246.0,12352.0,154.0,722.0,-23.0
2859.0,2797.0,2860.0,3151.0,3051.0,0.927979,-0.050781,-0.36908,0.005127,12.0,-3.0,-3.0,4477.0,-1274.0,6295.0,-1130.0,-470.0,377.0,-1093.0,-486.0,-455.0,0.684475,-0.098032,0.722372,8546.0,-1792.0,13650.0,292.0,-49.0,-47.0
2855.0,2783.0,2859.0,3139.0,3047.0,0.927795,-0.049255,-0.369751,0.005493,12.0,-15.0,-4.0,4462.0,-1210.0,6411.0,-1154.0,-427.0,498.0,-1191.0,-435.0,-390.0,0.685565,-0.09546,0.721693,8912.0,-2260.0,13412.0,281.0,-331.0,-77.0
2851.0,2791.0,2862.0,3139.0,3043.0,0.925903,-0.045532,-0.374878,0.00647,21.0,-33.0,-6.0,4719.0,-1462.0,6468.0,-963.0,-731.0,612.0,-1133.0,-723.0,-165.0,0.693612,-0.089168,0.714732,10766.0,-3940.0,12982.0,503.0,-755.0,-126.0
2858.0,2795.0,2863.0,3150.0,3047.0,0.9245,-0.042603,-0.378662,0.007629,30.0,-37.0,-6.0,4967.0,-1604.0,6448.0,-763.0,-911.0,635.0,-1005.0,-896.0,-6.0,0.699496,-0.08455,0.709558,11488.0,-4018.0,12788.0,702.0,-838.0,-124.0
2855.0,2791.0,2859.0,3153.0,3047.0,0.92157,-0.033875,-0.386536,0.010925,45.0,-35.0,-6.0,5526.0,-1632.0,6424.0,-304.0,-1051.0,698.0,-717.0,-1024.0,345.0,0.711699,-0.070881,0.698853,12484.0,-2660.0,12806.0,1039.0,-794.0,-125.0
2858.0,2789.0,2862.0,3150.0,3039.0,0.918823,-0.023743,-0.393738,0.013977,32.0,-36.0,-6.0,5476.0,-697.0,6089.0,-445.0,-249.0,446.0,-628.0,-253.0,0.0,0.722887,-0.054637,0.688838,10330.0,2854.0,10716.0,753.0,-821.0,-119.0
2855.0,2785.0,2850.0,3119.0,3043.0,0.916931,-0.020874,-0.398315,0.013611,7.0,-44.0,-8.0,5507.0,-19.0,6011.0,-472.0,383.0,425.0,-635.0,374.0,-73.0,0.729887,-0.049123,0.681857,11456.0,3820.0,11896.0,173.0,-1000.0,-176.0
2850.0,2777.0,2847.0,3139.0,3045.0,0.912598,-0.023254,-0.40802,0.008667,-41.0,-45.0,-11.0,5600.0,685.0,6045.0,-497.0,1090.0,590.0,-767.0,1092.0,-31.0,0.744313,-0.049516,0.665888,11344.0,2278.0,11970.0,-937.0,-1028.0,-230.0
2850.0,2775.0,2849.0,3147.0,3043.0,0.9104,-0.028015,-0.41272,0.004761,-57.0,-44.0,-11.0,5725.0,628.0,5901.0,-428.0,1078.0,512.0,-651.0,1086.0,-43.0,0.751214,-0.05494,0.657729,12582.0,480.0,10670.0,-1295.0,-993.0,-231.0
2850.0,2773.0,2847.0,3138.0,3043.0,0.905823,-0.041016,-0.421692,-0.00354,-63.0,-29.0,-8.0,6903.0,30.0,6112.0,642.0,614.0,860.0,-217.0,696.0,998.0,0.764247,-0.07132,0.641021,16784.0,-2134.0,13072.0,-1429.0,-663.0,-179.0
2851.0,2769.0,2839.0,3143.0,3041.0,0.904541,-0.046448,-0.423828,-0.006897,-47.0,-15.0,-9.0,7131.0,-391.0,5966.0,844.0,249.0,752.0,-22.0,338.0,1106.0,0.767381,-0.078182,0.636454,15086.0,-3400.0,10654.0,-1064.0,-327.0,-199.0
2850.0,2769.0,2839.0,3139.0,3039.0,0.903015,-0.052979,-0.426208,-0.011047,-21.0,-8.0,-7.0,6884.0,-919.0,5501.0,568.0,-212.0,331.0,93.0,-161.0,665.0,0.770916,-0.086264,0.631098,12542.0,-2394.0,9952.0,-461.0,-166.0,-157.0
2835.0,2773.0,2839.0,3143.0,3047.0,0.902405,-0.054626,-0.427246,-0.012512,-16.0,-10.0,-7.0,6728.0,-894.0,5361.0,399.0,-173.0,208.0,81.0,-139.0,454.0,0.772465,-0.087899,0.628968,12722.0,-1388.0,10036.0,-360.0,-220.0,-152.0
2842.0,2770.0,2835.0,3109.0,3043.0,0.901123,-0.056763,-0.429565,-0.01532,-15.0,-10.0,-6.0,6693.0,-530.0,5371.0,336.0,200.0,255.0,30.0,235.0,402.0,0.775922,-0.089139,0.624509,13164.0,168.0,10770.0,-327.0,-217.0,-124.0
2847.0,2770.0,2838.0,3139.0,3039.0,0.404175,-0.023376,0.325623,-1.21228,-18377.0,18748.0,30645.0,-12433.0,-14519.0,-25319.0,-10741.0,-7896.0,27713.0,16411.0,-1185.0,-14634.0,-0.206539,-0.808388,1.526404,12712.0,-430.0,9804.0,-509.0,-215.0,-97.0
2849.0,2769.0,2837.0,3143.0,3043.0,0.89917,-0.062012,-0.432739,-0.020203,-24.0,-11.0,-3.0,6535.0,-368.0,5124.0,139.0,402.0,62.0,74.0,408.0,109.0,0.780718,-0.094033,0.617806,13112.0,-1148.0,9572.0,-543.0,-246.0,-66.0
2850.0,2769.0,2839.0,3139.0,3039.0,0.897522,-0.066345,-0.435364,-0.0224,-17.0,-11.0,-1.0,6504.0,-614.0,4848.0,77.0,201.0,-166.0,196.0,177.0,-61.0,0.784469,-0.099588,0.612104,12582.0,-2070.0,8684.0,-375.0,-242.0,-11.0
2847.0,2771.0,2835.0,3139.0,3045.0,0.89679,-0.06781,-0.436646,-0.022949,-11.0,-11.0,-1.0,6413.0,-723.0,4682.0,-28.0,109.0,-311.0,236.0,63.0,-222.0,0.786271,-0.101581,0.609501,12236.0,-2042.0,8366.0,-246.0,-233.0,-4.0
2847.0,2771.0,2837.0,3143.0,3047.0,0.895386,-0.069031,-0.43927,-0.023315,-3.0,-14.0,-2.0,5954.0,-773.0,4377.0,-516.0,71.0,-575.0,141.0,-22.0,-762.0,0.789851,-0.103135,0.604536,10462.0,-1206.0,8132.0,-48.0,-304.0,-32.0
2850.0,2773.0,2837.0,3143.0,3019.0,0.89447,-0.069092,-0.441101,-0.02356,-3.0,-18.0,-3.0,5823.0,-687.0,4344.0,-668.0,155.0,-581.0,65.0,56.0,-894.0,0.792359,-0.102817,0.601288,11072.0,-850.0,8574.0,-49.0,-405.0,-63.0
2851.0,2771.0,2839.0,3151.0,3047.0,0.892212,-0.068726,-0.445679,-0.024109,2.0,-22.0,-3.0,5911.0,-585.0,4363.0,-631.0,243.0,-497.0,39.0,157.0,-823.0,0.798594,-0.101146,0.593271,12498.0,-1006.0,8918.0,46.0,-495.0,-67.0
2850.0,2775.0,2842.0,3147.0,3043.0,0.890991,-0.067749,-0.448303,-0.023743,9.0,-24.0,-1.0,6128.0,-543.0,4434.0,-442.0,271.0,-389.0,73.0,204.0,-610.0,0.802086,-0.09944,0.588863,13834.0,-800.0,9444.0,216.0,-544.0,-19.0
2851.0,2779.0,2845.0,3143.0,3039.0,0.887878,-0.062988,-0.455322,-0.018677,42.0,-37.0,14.0,6964.0,-917.0,4852.0,321.0,-140.0,122.0,76.0,-115.0,344.0,0.810894,-0.094844,0.577391,16632.0,-3720.0,10828.0,967.0,-833.0,325.0
2853.0,2775.0,2847.0,3142.0,3043.0,0.886353,-0.057556,-0.459229,-0.012146,73.0,-31.0,24.0,7734.0,-1170.0,5207.0,1053.0,-425.0,524.0,151.0,-329.0,1196.0,0.815475,-0.090875,0.571565,20198.0,-3294.0,12992.0,1691.0,-701.0,569.0
2855.0,2789.0,2858.0,3135.0,3047.0,0.889832,-0.038635,-0.454651,0.003723,107.0,58.0,17.0,7767.0,-816.0,5573.0,1141.0,-225.0,792.0,21.0,-124.0,1401.0,0.808838,-0.072143,0.583614,12190.0,-142.0,9560.0,2456.0,1345.0,397.0
2855.0,2791.0,2855.0,3139.0,3039.0,0.90033,-0.020386,-0.434509,0.013672,54.0,96.0,2.0,4927.0,-223.0,2985.0,-1477.0,175.0,-2106.0,728.0,59.0,-2472.0,0.781846,-0.048589,0.621566,-2180.0,2966.0,-8528.0,1257.0,2209.0,52.0
2855.0,2790.0,2859.0,3149.0,3047.0,0.902527,-0.017334,-0.430115,0.013672,5.0,34.0,-3.0,4764.0,585.0,2502.0,-1592.0,937.0,-2654.0,1050.0,821.0,-2946.0,0.775906,-0.04305,0.629443,12846.0,3766.0,9860.0,137.0,793.0,-50.0
2857.0,2791.0,2855.0,3151.0,3051.0,0.90802,-0.022278,-0.418091,0.01178,-38.0,68.0,12.0,5639.0,916.0,3934.0,-576.0,1328.0,-1385.0,674.0,1260.0,-1403.0,0.758745,-0.050307,0.649343,10782.0,482.0,8196.0,-870.0,1571.0,278.0
2855.0,2791.0,2855.0,3139.0,3039.0,0.911255,-0.027466,-0.410706,0.010803,-40.0,67.0,11.0,5428.0,282.0,3929.0,-698.0,764.0,-1486.0,653.0,671.0,-1549.0,0.747921,-0.058931,0.661069,9274.0,-3900.0,7710.0,-909.0,1553.0,258.0
2859.0,2791.0,2861.0,3117.0,3047.0,0.916687,-0.034912,-0.397827,0.011597,-5.0,48.0,9.0,4755.0,-1116.0,3936.0,-1213.0,-516.0,-1642.0,366.0,-664.0,-1964.0,0.728556,-0.073234,0.680964,7988.0,-4968.0,8722.0,-112.0,1122.0,229.0
2855.0,2791.0,2859.0,3151.0,3047.0,0.918762,-0.035522,-0.392883,0.013062,8.0,39.0,8.0,4587.0,-1225.0,4133.0,-1319.0,-606.0,-1508.0,176.0,-755.0,-1943.0,0.721005,-0.075537,0.688675,8362.0,-2482.0,9542.0,190.0,898.0,204.0
2859.0,2791.0,2861.0,3185.0,3047.0,0.921631,-0.034058,-0.386169,0.015076,7.0,20.0,3.0,4504.0,-796.0,4560.0,-1318.0,-186.0,-1169.0,-90.0,-316.0,-1740.0,0.710784,-0.074421,0.699344,9050.0,-148.0,10190.0,178.0,463.0,79.0
2859.0,2791.0,2862.0,3139.0,3043.0,0.922363,-0.03363,-0.384521,0.015381,1.0,11.0,1.0,4656.0,-628.0,4747.0,-1146.0,-22.0,-1003.0,-93.0,-134.0,-1514.0,0.708302,-0.073867,0.702003,10600.0,-348.0,10702.0,44.0,252.0,44.0
2859.0,2794.0,2858.0,3139.0,3047.0,0.923157,-0.03418,-0.382507,0.014832,-4.0,11.0,-3.0,5282.0,-709.0,5124.0,-495.0,-99.0,-651.0,110.0,-158.0,-800.0,0.705215,-0.074453,0.704958,12082.0,-2334.0,10872.0,-87.0,259.0,-56.0
2862.0,2797.0,2859.0,3149.0,3046.0,0.923645,-0.034546,-0.381348,0.014343,-2.0,12.0,-5.0,5489.0,-896.0,5232.0,-273.0,-283.0,-557.0,199.0,-326.0,-564.0,0.703469,-0.074756,0.706706,12150.0,-2954.0,11132.0,-30.0,288.0,-109.0
2855.0,2795.0,2863.0,3151.0,3043.0,0.924683,-0.033813,-0.378967,0.013367,8.0,8.0,-9.0,5468.0,-1237.0,5320.0,-265.0,-641.0,-500.0,161.0,-678.0,-494.0,0.699945,-0.072665,0.710457,10172.0,-3342.0,10684.0,192.0,193.0,-196.0
2855.0,2791.0,2863.0,3139.0,3045.0,0.924805,-0.032471,-0.378723,0.013062,13.0,-2.0,-10.0,5392.0,-1320.0,5391.0,-339.0,-746.0,-433.0,61.0,-782.0,-492.0,0.699642,-0.069952,0.710949,10504.0,-3018.0,11424.0,317.0,-31.0,-224.0
2859.0,2791.0,2863.0,3139.0,3039.0,0.92395,-0.028259,-0.381165,0.013428,21.0,-20.0,-6.0,5324.0,-1382.0,5601.0,-439.0,-870.0,-197.0,-169.0,-896.0,-393.0,0.703595,-0.062457,0.707779,10452.0,-2886.0,11608.0,493.0,-440.0,-133.0
2855.0,2791.0,2859.0,3139.0,3045.0,0.921631,-0.022522,-0.387085,0.01593,27.0,-32.0,-1.0,5378.0,-1243.0,5786.0,-461.0,-801.0,57.0,-353.0,-819.0,-245.0,0.712781,-0.053847,0.699315,10232.0,-1894.0,11178.0,638.0,-731.0,-11.0
2855.0,2791.0,2859.0,3149.0,3041.0,0.920044,-0.02002,-0.39093,0.017395,20.0,-39.0,2.0,5206.0,-823.0,5721.0,-681.0,-409.0,39.0,-493.0,-439.0,-441.0,0.718649,-0.050438,0.693556,9330.0,1676.0,10748.0,462.0,-876.0,47.0
2855.0,2783.0,2851.0,3143.0,3043.0,0.915283,-0.019958,-0.401917,0.015991,-27.0,-56.0,-3.0,5436.0,393.0,5904.0,-585.0,797.0,365.0,-674.0,778.0,-222.0,0.735097,-0.04939,0.676064,13104.0,4182.0,14054.0,-609.0,-1270.0,-59.0
2853.0,2778.0,2853.0,3143.0,3051.0,0.912964,-0.02356,-0.407166,0.012817,-52.0,-47.0,-7.0,5965.0,785.0,6306.0,-120.0,1222.0,839.0,-709.0,1242.0,405.0,0.742851,-0.053456,0.667328,15190.0,3304.0,14740.0,-1174.0,-1057.0,-144.0
2850.0,2773.0,2847.0,3135.0,3043.0,0.909607,-0.035889,-0.413818,0.003296,-71.0,-21.0,-13.0,6847.0,611.0,6611.0,681.0,1168.0,1246.0,-462.0,1267.0,1249.0,0.752588,-0.068017,0.654862,15676.0,-1036.0,13966.0,-1625.0,-481.0,-297.0
2851.0,2769.0,2847.0,3141.0,3047.0,0.90863,-0.042542,-0.415344,-0.001343,-63.0,-12.0,-13.0,6948.0,40.0,6493.0,763.0,664.0,1157.0,-348.0,777.0,1278.0,0.754903,-0.076194,0.65129,14114.0,-3542.0,11782.0,-1432.0,-272.0,-282.0
2850.0,2769.0,2845.0,3143.0,3039.0,0.906616,-0.052979,-0.418518,-0.006897,-35.0,-17.0,-5.0,6770.0,-938.0,6023.0,547.0,-198.0,747.0,-222.0,-103.0,914.0,0.759601,-0.090289,0.644036,12682.0,-3804.0,10784.0,-789.0,-381.0,-96.0
2845.0,2771.0,2839.0,3143.0,3037.0,0.904114,-0.057983,-0.423279,-0.008484,-13.0,-26.0,0.0,6554.0,-1147.0,5750.0,275.0,-346.0,548.0,-264.0,-272.0,592.0,0.766368,-0.097665,0.634967,12900.0,-2214.0,11008.0,-290.0,-577.0,19.0
2847.0,2769.0,2838.0,3142.0,3039.0,0.902649,-0.059204,-0.426208,-0.008423,-9.0,-28.0,3.0,6556.0,-1034.0,5714.0,244.0,-217.0,555.0,-285.0,-143.0,559.0,0.770431,-0.099701,0.629687,13162.0,-1220.0,11242.0,-188.0,-641.0,79.0
2849.0,2771.0,2839.0,3143.0,3039.0,0.899597,-0.060791,-0.432312,-0.007874,-7.0,-30.0,5.0,6608.0,-684.0,5667.0,228.0,156.0,598.0,-311.0,233.0,531.0,0.778771,-0.102567,0.618748,13388.0,-476.0,11172.0,-151.0,-670.0,127.0
2852.0,2773.0,2843.0,3122.0,3039.0,0.898071,-0.061646,-0.435425,-0.007385,-7.0,-30.0,7.0,6626.0,-566.0,5605.0,211.0,288.0,581.0,-303.0,362.0,491.0,0.782996,-0.104293,0.613192,13380.0,-440.0,10818.0,-151.0,-672.0,162.0
2847.0,2771.0,2837.0,3146.0,3039.0,0.895142,-0.063782,-0.441162,-0.006531,-10.0,-24.0,7.0,6814.0,-435.0,5466.0,337.0,453.0,529.0,-180.0,527.0,536.0,0.790638,-0.108425,0.602629,14376.0,-724.0,10452.0,-227.0,-534.0,172.0
2851.0,2770.0,2839.0,3139.0,3039.0,0.894104,-0.065125,-0.443054,-0.006409,-12.0,-15.0,6.0,6835.0,-469.0,5317.0,337.0,438.0,410.0,-89.0,499.0,464.0,0.793108,-0.110777,0.598925,13494.0,-1282.0,9566.0,-273.0,-339.0,140.0
2851.0,2769.0,2839.0,3143.0,3037.0,0.892944,-0.068054,-0.444885,-0.007141,-11.0,-6.0,-1.0,6463.0,-837.0,4812.0,-53.0,106.0,-60.0,23.0,94.0,-90.0,0.795488,-0.115183,0.594846,11570.0,-3080.0,8076.0,-246.0,-124.0,-20.0
2854.0,2771.0,2845.0,3143.0,3039.0,0.892517,-0.069092,-0.445557,-0.00769,-7.0,-6.0,-4.0,6270.0,-1042.0,4608.0,-254.0,-87.0,-252.0,40.0,-131.0,-341.0,0.796396,-0.116478,0.593351,11488.0,-3210.0,8116.0,-157.0,-129.0,-80.0
2849.0,2770.0,2839.0,3139.0,3037.0,0.891724,-0.069641,-0.447144,-0.008728,-1.0,-7.0,-7.0,6094.0,-1169.0,4463.0,-448.0,-215.0,-374.0,12.0,-283.0,-553.0,0.798673,-0.116396,0.59046,11816.0,-2352.0,8746.0,-21.0,-153.0,-140.0
2851.0,2771.0,2839.0,3135.0,3042.0,0.891357,-0.069519,-0.447876,-0.009338,-1.0,-7.0,-7.0,6089.0,-1168.0,4468.0,-462.0,-221.0,-358.0,-8.0,-287.0,-554.0,0.799734,-0.115568,0.589179,12240.0,-2310.0,9028.0,-12.0,-138.0,-145.0
2851.0,2771.0,2845.0,3135.0,3039.0,0.890869,-0.069397,-0.448792,-0.010071,-1.0,-3.0,-3.0,6103.0,-1124.0,4457.0,-459.0,-185.0,-355.0,-5.0,-250.0,-555.0,0.801027,-0.114608,0.58752,12314.0,-1990.0,9032.0,-4.0,-60.0,-61.0
2850.0,2775.0,2837.0,3143.0,3039.0,0.890808,-0.069214,-0.448914,-0.010315,1.0,-1.0,-3.0,6094.0,-1062.0,4444.0,-469.0,-127.0,-367.0,2.0,-194.0,-576.0,0.80122,-0.114052,0.587332,12030.0,-1714.0,8742.0,23.0,-4.0,-60.0
2851.0,2775.0,2843.0,3143.0,3039.0,0.891052,-0.06842,-0.448547,-0.010803,2.0,3.0,-4.0,6059.0,-972.0,4381.0,-501.0,-52.0,-437.0,45.0,-130.0,-652.0,0.800837,-0.112241,0.588215,12038.0,-1706.0,8584.0,66.0,77.0,-79.0
2851.0,2771.0,2843.0,3135.0,3041.0,0.891296,-0.06781,-0.448181,-0.011047,3.0,4.0,-4.0,6028.0,-919.0,4355.0,-529.0,-9.0,-470.0,57.0,-92.0,-699.0,0.800423,-0.110975,0.589067,11804.0,-1454.0,8558.0,86.0,105.0,-81.0
7391.0,0.639312,11956.0,-964.0,9956.0,-15.0,36.0,-5.0,,,,,,,,,,,,,,,,,,,,,,
2851.0,2769.0,2843.0,3135.0,3035.0,0.905396,-0.044739,-0.42218,-0.004211,-1.0,0.0,0.0,6040.0,-509.0,5014.0,-225.0,125.0,-224.0,32.0,98.0,-325.0,0.764857,-0.077457,0.639521,12096.0,-1012.0,10084.0,-16.0,12.0,13.0
2855.0,2775.0,2843.0,3147.0,3047.0,0.905396,-0.0448,-0.422119,-0.00415,-1.0,0.0,0.0,6039.0,-517.0,5022.0,-225.0,118.0,-217.0,26.0,92.0,-320.0,0.764741,-0.077619,0.639567,12074.0,-1088.0,10096.0,-18.0,5.0,17.0
2855.0,2783.0,2847.0,3135.0,3047.0,0.905396,-0.045044,-0.422119,-0.004089,-1.0,0.0,0.0,6066.0,-569.0,5055.0,-198.0,70.0,-184.0,16.0,48.0,-274.0,0.764738,-0.078113,0.639544,12206.0,-1308.0,10244.0,-9.0,5.0,17.0
2852.0,2768.0,2843.0,3139.0,3039.0,0.905396,-0.045105,-0.422058,-0.004028,-1.0,0.0,0.0,6075.0,-590.0,5069.0,-188.0,51.0,-170.0,11.0,30.0,-256.0,0.764622,-0.078275,0.63959,12198.0,-1300.0,10228.0,-3.0,6.0,16.0
2847.0,2768.0,2842.0,3141.0,3043.0,0.905518,-0.045044,-0.421875,-0.003845,0.0,1.0,0.0,6097.0,-618.0,5081.0,-164.0,23.0,-161.0,18.0,4.0,-230.0,0.764377,-0.078332,0.639969,12206.0,-1272.0,10164.0,16.0,25.0,7.0
2853.0,2781.0,2839.0,3151.0,3051.0,0.905518,-0.044983,-0.421814,-0.003784,0.0,0.0,0.0,6080.0,-604.0,5075.0,-180.0,37.0,-168.0,14.0,17.0,-247.0,0.76426,-0.078273,0.640026,12056.0,-1088.0,10138.0,13.0,15.0,6.0
2847.0,2774.0,2849.0,3139.0,3045.0,0.905518,-0.045105,-0.421875,-0.003906,-2.0,-2.0,0.0,6069.0,-560.0,5098.0,-192.0,82.0,-144.0,-9.0,63.0,-245.0,0.764383,-0.078391,0.639964,12196.0,-1052.0,10292.0,-38.0,-27.0,0.0
2847.0,2767.0,2843.0,3147.0,3039.0,0.905396,-0.045288,-0.422058,-0.004028,-3.0,-2.0,-1.0,6070.0,-577.0,5113.0,-193.0,66.0,-126.0,-24.0,48.0,-233.0,0.764624,-0.078607,0.639573,12136.0,-1306.0,10310.0,-52.0,-44.0,-3.0
2851.0,2768.0,2841.0,3139.0,3039.0,0.90509,-0.045715,-0.422668,-0.004211,-2.0,-3.0,-1.0,6104.0,-628.0,5132.0,-166.0,20.0,-98.0,-30.0,6.0,-191.0,0.765491,-0.079193,0.638468,12418.0,-1364.0,10420.0,-29.0,-66.0,-11.0
2851.0,2781.0,2851.0,3141.0,3047.0,0.904968,-0.045776,-0.422913,-0.004333,-1.0,-3.0,-1.0,6140.0,-644.0,5147.0,-133.0,4.0,-79.0,-24.0,-6.0,-152.0,0.765842,-0.079187,0.638036,12494.0,-1372.0,10396.0,-13.0,-57.0,-18.0
2851.0,2777.0,2851.0,3143.0,3047.0,0.904785,-0.045654,-0.423401,-0.004517,0.0,-3.0,-1.0,6165.0,-617.0,5167.0,-114.0,28.0,-53.0,-31.0,19.0,-123.0,0.766586,-0.07879,0.637304,12330.0,-982.0,10442.0,8.0,-46.0,-21.0
2847.0,2769.0,2838.0,3154.0,3038.0,0.904663,-0.045532,-0.423645,-0.004639,-1.0,-3.0,-2.0,6178.0,-570.0,5179.0,-104.0,72.0,-38.0,-34.0,65.0,-109.0,0.766934,-0.078452,0.636889,12458.0,-816.0,10430.0,-2.0,-54.0,-24.0
2851.0,2767.0,2841.0,3139.0,3039.0,0.904358,-0.045349,-0.424255,-0.004883,0.0,-4.0,-1.0,6181.0,-539.0,5156.0,-108.0,98.0,-52.0,-24.0,89.0,-123.0,0.7678,-0.077881,0.635838,12358.0,-944.0,10238.0,1.0,-76.0,-16.0
2858.0,2778.0,2847.0,3147.0,3049.0,0.904175,-0.045288,-0.424683,-0.004944,-1.0,-5.0,-1.0,6171.0,-516.0,5144.0,-123.0,120.0,-59.0,-27.0,110.0,-141.0,0.768422,-0.077698,0.63515,12298.0,-884.0,10216.0,-7.0,-96.0,-13.0
2855.0,2779.0,2845.0,3147.0,3045.0,0.903625,-0.045288,-0.425903,-0.005066,-1.0,-7.0,-1.0,6178.0,-529.0,5126.0,-131.0,106.0,-60.0,-32.0,96.0,-147.0,0.770173,-0.077532,0.63312,12362.0,-1158.0,10198.0,-16.0,-141.0,-5.0
2849.0,2769.0,2833.0,3115.0,3039.0,0.903259,-0.045288,-0.426636,-0.005066,-1.0,-7.0,0.0,6200.0,-568.0,5120.0,-117.0,66.0,-55.0,-28.0,57.0,-130.0,0.771184,-0.077491,0.631834,12578.0,-1418.0,10204.0,0.0,-158.0,0.0
2843.0,2768.0,2838.0,3141.0,3035.0,0.902588,-0.045349,-0.428101,-0.004517,1.0,-6.0,2.0,6342.0,-658.0,5153.0,7.0,-19.0,-2.0,5.0,-18.0,5.0,0.773206,-0.077996,0.629359,13146.0,-1440.0,10384.0,40.0,-129.0,61.0
2851.0,2779.0,2847.0,3151.0,3043.0,0.902344,-0.045227,-0.428589,-0.004028,2.0,-4.0,3.0,6403.0,-676.0,5152.0,63.0,-35.0,3.0,35.0,-32.0,53.0,0.773833,-0.078168,0.628507,13152.0,-1580.0,10202.0,60.0,-75.0,71.0
2851.0,2779.0,2847.0,3139.0,3047.0,0.902161,-0.044922,-0.428955,-0.002625,4.0,-1.0,4.0,6377.0,-686.0,5066.0,34.0,-40.0,-77.0,79.0,-45.0,-18.0,0.774209,-0.078802,0.62788,12448.0,-1014.0,9792.0,100.0,-15.0,99.0
