flex_1,flex_2,flex_3,flex_4,flex_5,Qw,Qx,Qy,Qz,GYRx,GYRy,GYRz,ACCx,ACCy,ACCz,ACCx_real,ACCy_real,ACCz_real,ACCx_world,ACCy_world,ACCz_world,GRAx,GRAy,GRAz,ACCx_raw,ACCy_raw,ACCz_raw,GYRx_raw,GYRy_raw,GYRz_raw
2878.0,2823.0,2887.0,3141.0,3039.0,1.0,0.0,0.0,0.0,0.0,0.0,0.0,0.0,0.0,0.0,0.0,0.0,0.0,0.0,0.0,0.0,0.0,0.0,0.0,0.0,0.0,0.0,0.0,0.0,0.0
2867.0,2831.0,2897.0,3147.0,3057.0,0.869873,0.434937,-0.232483,0.005249,0.0,-1.0,0.0,3711.0,6817.0,1477.0,360.0,638.0,-2729.0,1277.0,2398.0,-772.0,0.409027,0.754238,0.513489,7448.0,13768.0,2860.0,1.0,-5.0,10.0
2865.0,2834.0,2901.0,3139.0,3051.0,0.868591,0.43689,-0.233643,0.005249,-1.0,-1.0,0.0,3707.0,6847.0,1473.0,344.0,649.0,-2696.0,1249.0,2386.0,-740.0,0.410466,0.756504,0.509017,7386.0,13798.0,2938.0,-4.0,-5.0,11.0
2871.0,2833.0,2908.0,3155.0,3047.0,0.867981,0.437866,-0.234192,0.00531,-1.0,-1.0,0.0,3700.0,6852.0,1467.0,331.0,645.0,-2685.0,1235.0,2380.0,-736.0,0.411198,0.757632,0.506846,7404.0,13726.0,2900.0,-7.0,-11.0,16.0
2875.0,2837.0,2907.0,3151.0,3057.0,0.866638,0.439758,-0.235413,0.005371,0.0,-1.0,0.0,3722.0,6851.0,1468.0,340.0,627.0,-2646.0,1233.0,2340.0,-712.0,0.412759,0.759694,0.502284,7522.0,13684.0,2924.0,6.0,-1.0,17.0
2867.0,2832.0,2899.0,3171.0,3051.0,0.866028,0.440735,-0.235901,0.005493,0.0,0.0,0.0,3734.0,6849.0,1470.0,347.0,616.0,-2627.0,1235.0,2319.0,-701.0,0.413436,0.760786,0.500138,7498.0,13702.0,2932.0,10.0,13.0,16.0
2871.0,2833.0,2899.0,3143.0,3047.0,0.864746,0.442688,-0.236816,0.005737,0.0,0.0,0.0,3729.0,6871.0,1473.0,332.0,621.0,-2588.0,1205.0,2299.0,-671.0,0.414652,0.762908,0.495764,7446.0,13790.0,2976.0,6.0,21.0,12.0
2870.0,2832.0,2899.0,3154.0,3057.0,0.864197,0.443604,-0.237244,0.005859,-1.0,0.0,0.0,3714.0,6870.0,1473.0,312.0,611.0,-2572.0,1183.0,2287.0,-673.0,0.415249,0.763941,0.493802,7318.0,13710.0,2958.0,0.0,22.0,16.0
2867.0,2834.0,2907.0,3155.0,3057.0,0.862976,0.445435,-0.23822,0.006042,0.0,0.0,1.0,3691.0,6850.0,1476.0,278.0,575.0,-2534.0,1146.0,2246.0,-684.0,0.41654,0.76592,0.489603,7306.0,13642.0,2930.0,2.0,5.0,24.0
2865.0,2832.0,2898.0,3139.0,3055.0,0.862366,0.44635,-0.238708,0.006165,0.0,-1.0,0.0,3677.0,6840.0,1492.0,259.0,557.0,-2501.0,1120.0,2215.0,-684.0,0.417211,0.766891,0.487502,7230.0,13644.0,3102.0,4.0,0.0,19.0
2871.0,2807.0,2899.0,3142.0,3055.0,0.861206,0.448059,-0.239807,0.006226,-1.0,-1.0,0.0,3672.0,6827.0,1515.0,242.0,529.0,-2445.0,1091.0,2161.0,-674.0,0.418626,0.768757,0.48345,7372.0,13566.0,3146.0,0.0,-12.0,12.0
2843.0,2835.0,2899.0,3147.0,3057.0,0.860596,0.448914,-0.240295,0.006226,0.0,-1.0,0.0,3671.0,6813.0,1523.0,237.0,507.0,-2420.0,1082.0,2131.0,-675.0,0.419184,0.769674,0.481398,7346.0,13568.0,3102.0,5.0,-14.0,12.0
2875.0,2839.0,2903.0,3151.0,3047.0,0.859314,0.450745,-0.241455,0.006287,0.0,-1.0,0.0,3694.0,6822.0,1518.0,248.0,500.0,-2389.0,1082.0,2103.0,-649.0,0.420639,0.771626,0.476989,7518.0,13742.0,3000.0,22.0,-14.0,12.0
2867.0,2833.0,2891.0,3142.0,3047.0,0.858643,0.451721,-0.241943,0.006348,1.0,-1.0,0.0,3698.0,6849.0,1513.0,247.0,519.0,-2375.0,1072.0,2105.0,-622.0,0.42122,0.772663,0.474719,7384.0,13880.0,2994.0,25.0,-4.0,12.0
2879.0,2827.0,2899.0,3127.0,3043.0,0.857361,0.453674,-0.242981,0.006409,0.0,-1.0,0.0,3711.0,6901.0,1496.0,250.0,553.0,-2356.0,1060.0,2113.0,-573.0,0.42246,0.774811,0.470249,7598.0,13922.0,2946.0,13.0,-13.0,6.0
2871.0,2831.0,2911.0,3155.0,3053.0,0.85675,0.45459,-0.243469,0.006409,0.0,0.0,0.0,3731.0,6918.0,1478.0,265.0,562.0,-2356.0,1072.0,2116.0,-554.0,0.423011,0.775819,0.468133,7530.0,13946.0,2822.0,11.0,4.0,3.0
2866.0,2833.0,2902.0,3153.0,3055.0,0.85553,0.45636,-0.244385,0.006531,0.0,0.0,0.0,3731.0,6936.0,1465.0,256.0,565.0,-2335.0,1055.0,2106.0,-535.0,0.424118,0.777667,0.463986,7460.0,13942.0,2948.0,5.0,3.0,18.0
2891.0,2833.0,2895.0,3138.0,3045.0,0.854919,0.457214,-0.244873,0.006592,-1.0,-1.0,0.0,3724.0,6946.0,1474.0,244.0,568.0,-2310.0,1034.0,2091.0,-521.0,0.424721,0.778535,0.461923,7400.0,13942.0,3028.0,-2.0,0.0,21.0
2860.0,2830.0,2900.0,3135.0,3055.0,0.853821,0.45874,-0.245789,0.006714,-1.0,-1.0,0.0,3725.0,6924.0,1492.0,236.0,533.0,-2261.0,1016.0,2036.0,-519.0,0.425879,0.780064,0.4582,7398.0,13752.0,2970.0,-10.0,0.0,16.0
2867.0,2835.0,2907.0,3163.0,3063.0,0.853333,0.459473,-0.246216,0.006775,-1.0,-1.0,0.0,3721.0,6914.0,1497.0,227.0,517.0,-2242.0,1004.0,2015.0,-522.0,0.426434,0.78083,0.456485,7388.0,13766.0,2984.0,-10.0,0.0,18.0
2866.0,2839.0,2897.0,3151.0,3055.0,0.852234,0.460938,-0.247192,0.006958,-1.0,-1.0,1.0,3714.0,6898.0,1502.0,209.0,490.0,-2207.0,981.0,1978.0,-526.0,0.427746,0.782213,0.452784,7426.0,13760.0,3014.0,-5.0,-2.0,28.0
2865.0,2831.0,2896.0,3149.0,3055.0,0.851685,0.461731,-0.247681,0.007019,0.0,-1.0,1.0,3712.0,6893.0,1502.0,202.0,478.0,-2191.0,972.0,1961.0,-527.0,0.428373,0.783021,0.450875,7418.0,13756.0,2978.0,2.0,-1.0,30.0
2871.0,2830.0,2896.0,3115.0,3051.0,0.850586,0.463257,-0.248657,0.007263,-1.0,-1.0,1.0,3727.0,6923.0,1489.0,206.0,496.0,-2173.0,964.0,1958.0,-493.0,0.429738,0.784467,0.447112,7546.0,13978.0,2956.0,0.0,-1.0,28.0
2871.0,2837.0,2923.0,3153.0,3051.0,0.850037,0.463989,-0.249084,0.007385,-1.0,0.0,1.0,3733.0,6951.0,1486.0,207.0,519.0,-2161.0,955.0,1962.0,-465.0,0.430315,0.785137,0.445288,7492.0,14054.0,2960.0,-8.0,7.0,24.0
2867.0,2837.0,2900.0,3151.0,3056.0,0.84906,0.465332,-0.249939,0.007446,-2.0,0.0,0.0,3730.0,6956.0,1481.0,196.0,513.0,-2139.0,938.0,1945.0,-457.0,0.431356,0.786467,0.441955,7502.0,13860.0,2924.0,-32.0,2.0,21.0
2869.0,2831.0,2896.0,3137.0,3051.0,0.848572,0.465881,-0.250427,0.007507,-2.0,0.0,1.0,3736.0,6937.0,1475.0,197.0,490.0,-2132.0,942.0,1927.0,-468.0,0.432006,0.786907,0.440371,7526.0,13746.0,2922.0,-34.0,2.0,24.0
2867.0,2827.0,2902.0,3141.0,3039.0,0.847656,0.467102,-0.251282,0.00769,-1.0,0.0,1.0,3769.0,6886.0,1478.0,220.0,430.0,-2103.0,966.0,1866.0,-485.0,0.433186,0.788019,0.437253,7612.0,13694.0,2942.0,-16.0,15.0,25.0
2877.0,2843.0,2915.0,3155.0,3053.0,0.847168,0.467773,-0.251709,0.007874,-1.0,0.0,1.0,3774.0,6881.0,1479.0,219.0,420.0,-2089.0,962.0,1851.0,-483.0,0.433846,0.788602,0.435586,7596.0,13744.0,2976.0,-15.0,19.0,29.0
2875.0,2835.0,2903.0,3143.0,3023.0,0.846313,0.468933,-0.252441,0.008301,-1.0,1.0,1.0,3787.0,6863.0,1476.0,222.0,395.0,-2068.0,962.0,1821.0,-486.0,0.435074,0.789538,0.43269,7608.0,13638.0,2912.0,-19.0,30.0,37.0
2869.0,2827.0,2894.0,3135.0,3047.0,0.845886,0.469543,-0.252747,0.008545,-1.0,1.0,1.0,3802.0,6850.0,1493.0,233.0,377.0,-2039.0,963.0,1787.0,-479.0,0.435614,0.790041,0.431245,7690.0,13654.0,3088.0,-15.0,39.0,34.0
2859.0,2817.0,2886.0,3143.0,3055.0,0.845032,0.470703,-0.253357,0.009033,-1.0,1.0,1.0,3797.0,6838.0,1514.0,219.0,358.0,-1995.0,937.0,1746.0,-475.0,0.436693,0.790941,0.428409,7578.0,13644.0,3134.0,-11.0,42.0,33.0
2879.0,2837.0,2896.0,3139.0,3057.0,0.844666,0.471313,-0.253601,0.009277,-1.0,1.0,1.0,3793.0,6838.0,1528.0,211.0,354.0,-1970.0,920.0,1727.0,-468.0,0.437161,0.791499,0.427096,7542.0,13686.0,3108.0,-12.0,44.0,34.0
2875.0,2835.0,2915.0,3159.0,3067.0,0.843811,0.472473,-0.25415,0.009766,-1.0,1.0,1.0,3786.0,6848.0,1529.0,196.0,356.0,-1946.0,895.0,1714.0,-457.0,0.438138,0.792392,0.424289,7546.0,13706.0,3080.0,-11.0,40.0,36.0
2867.0,2829.0,2895.0,3143.0,3043.0,0.843384,0.473083,-0.254395,0.009949,-1.0,1.0,1.0,3782.0,6863.0,1527.0,189.0,367.0,-1937.0,882.0,1715.0,-445.0,0.438518,0.79292,0.422871,7548.0,13848.0,3056.0,-10.0,38.0,36.0
2865.0,2821.0,2897.0,3139.0,3047.0,0.84259,0.474243,-0.255005,0.010437,-1.0,1.0,1.0,3782.0,6911.0,1540.0,180.0,407.0,-1901.0,849.0,1712.0,-396.0,0.439629,0.793862,0.420133,7600.0,13980.0,3114.0,-15.0,40.0,40.0
2875.0,2837.0,2903.0,3151.0,3061.0,0.842163,0.474792,-0.255188,0.010681,-1.0,2.0,1.0,3795.0,6942.0,1547.0,190.0,435.0,-1883.0,842.0,1712.0,-359.0,0.439962,0.794254,0.418804,7700.0,14102.0,3158.0,-20.0,53.0,34.0
2865.0,2830.0,2918.0,3151.0,3051.0,0.841553,0.475769,-0.255371,0.011108,-3.0,3.0,1.0,3792.0,7047.0,1563.0,184.0,533.0,-1851.0,796.0,1742.0,-266.0,0.440387,0.795096,0.416764,7536.0,14440.0,3180.0,-58.0,74.0,31.0
2871.0,2830.0,2901.0,3142.0,3039.0,0.84137,0.476074,-0.255432,0.011292,-4.0,3.0,1.0,3786.0,7108.0,1584.0,176.0,592.0,-1825.0,762.0,1756.0,-211.0,0.440577,0.79534,0.416138,7556.0,14588.0,3304.0,-88.0,72.0,34.0
2871.0,2819.0,2895.0,3143.0,3039.0,0.841125,0.476379,-0.255676,0.011536,-6.0,2.0,2.0,3795.0,7208.0,1621.0,181.0,691.0,-1781.0,721.0,1774.0,-110.0,0.441102,0.795491,0.415318,7748.0,14664.0,3462.0,-135.0,57.0,52.0
2871.0,2833.0,2903.0,3159.0,3059.0,0.841125,0.476318,-0.255859,0.011719,-7.0,2.0,2.0,3843.0,7244.0,1646.0,225.0,728.0,-1756.0,739.0,1764.0,-50.0,0.441583,0.79529,0.415286,7992.0,14676.0,3412.0,-148.0,63.0,60.0
2871.0,2835.0,2899.0,3152.0,3049.0,0.841064,0.476013,-0.256409,0.01239,-7.0,3.0,4.0,4018.0,7266.0,1670.0,388.0,758.0,-1731.0,862.0,1724.0,55.0,0.443108,0.794362,0.415209,8776.0,14498.0,3366.0,-153.0,85.0,100.0
2869.0,2815.0,2899.0,3141.0,3055.0,0.841064,0.475891,-0.256714,0.013123,-7.0,5.0,5.0,4149.0,7253.0,1661.0,509.0,750.0,-1740.0,971.0,1701.0,99.0,0.444316,0.793773,0.415187,9122.0,14452.0,3268.0,-139.0,117.0,128.0
2871.0,2815.0,2899.0,3131.0,3039.0,0.841064,0.475525,-0.257263,0.015259,-6.0,8.0,7.0,4499.0,7300.0,1629.0,835.0,811.0,-1773.0,1246.0,1693.0,279.0,0.447262,0.792043,0.415314,10214.0,14872.0,3164.0,-136.0,205.0,168.0
2878.0,2832.0,2896.0,3163.0,3057.0,0.841187,0.47522,-0.257263,0.016724,-8.0,12.0,7.0,4713.0,7365.0,1619.0,1037.0,886.0,-1787.0,1402.0,1704.0,422.0,0.448707,0.790892,0.415856,10734.0,15172.0,3220.0,-172.0,286.0,179.0
2871.0,2833.0,2903.0,3151.0,3047.0,0.842285,0.473755,-0.256226,0.020203,-14.0,20.0,8.0,5081.0,7518.0,1624.0,1388.0,1064.0,-1814.0,1658.0,1762.0,702.0,0.450772,0.787721,0.419757,11136.0,15494.0,3350.0,-306.0,466.0,188.0
2864.0,2827.0,2896.0,3147.0,3057.0,0.843262,0.472473,-0.255249,0.022095,-17.0,23.0,8.0,5228.0,7564.0,1650.0,1530.0,1128.0,-1816.0,1758.0,1778.0,808.0,0.451362,0.785558,0.423196,11348.0,15344.0,3506.0,-380.0,527.0,192.0
2869.0,2831.0,2903.0,3143.0,3043.0,0.845764,0.468933,-0.252991,0.026306,-22.0,26.0,10.0,5460.0,7537.0,1745.0,1752.0,1148.0,-1794.0,1925.0,1750.0,913.0,0.452613,0.779903,0.432106,11466.0,14814.0,3772.0,-485.0,598.0,244.0
2865.0,2847.0,2913.0,3151.0,3055.0,0.847168,0.466797,-0.251953,0.028625,-22.0,25.0,12.0,5533.0,7465.0,1794.0,1816.0,1104.0,-1786.0,1983.0,1720.0,900.0,0.453618,0.776486,0.437133,11480.0,14452.0,3856.0,-493.0,592.0,275.0
2865.0,2843.0,2909.0,3163.0,3062.0,0.849792,0.462524,-0.250427,0.033752,-20.0,24.0,15.0,5654.0,7165.0,1835.0,1911.0,863.0,-1823.0,2136.0,1622.0,722.0,0.456845,0.769194,0.446644,11676.0,13096.0,3670.0,-457.0,554.0,362.0
2874.0,2823.0,2892.0,3135.0,3039.0,0.850952,0.460388,-0.25,0.036926,-19.0,25.0,19.0,5713.0,6906.0,1823.0,1948.0,638.0,-1871.0,2244.0,1540.0,539.0,0.459477,0.765073,0.451026,11726.0,12152.0,3560.0,-413.0,580.0,440.0
2861.0,2829.0,2890.0,3151.0,3047.0,0.853088,0.456299,-0.248779,0.044861,-14.0,31.0,23.0,5621.0,6268.0,1744.0,1808.0,73.0,-2021.0,2329.0,1388.0,-32.0,0.465401,0.756206,0.459673,10576.0,10592.0,3256.0,-308.0,720.0,549.0
2869.0,2843.0,2907.0,3155.0,3056.0,0.854248,0.454346,-0.247681,0.049255,-13.0,34.0,24.0,5480.0,5937.0,1746.0,1646.0,-222.0,-2058.0,2283.0,1286.0,-352.0,0.467919,0.751849,0.46439,10066.0,9868.0,3548.0,-297.0,792.0,550.0
2865.0,2835.0,2911.0,3166.0,3061.0,0.857056,0.449951,-0.24408,0.057983,-15.0,38.0,20.0,5053.0,5152.0,1830.0,1198.0,-934.0,-2068.0,2102.0,959.0,-1114.0,0.470559,0.742961,0.475876,8574.0,7728.0,4118.0,-334.0,889.0,474.0
2867.0,2832.0,2891.0,3133.0,3047.0,0.858643,0.447571,-0.241882,0.06189,-15.0,38.0,16.0,4759.0,4685.0,1947.0,902.0,-1366.0,-2003.0,1951.0,691.0,-1550.0,0.470781,0.738667,0.482271,7706.0,6492.0,4666.0,-329.0,871.0,389.0
2863.0,2827.0,2882.0,3141.0,3055.0,0.861755,0.443359,-0.236938,0.068237,-9.0,33.0,8.0,4083.0,3673.0,2302.0,241.0,-2321.0,-1749.0,1580.0,-16.0,-2450.0,0.468873,0.731799,0.494571,5946.0,4386.0,5794.0,-187.0,756.0,200.0
2863.0,2837.0,2895.0,3151.0,3057.0,0.862976,0.441895,-0.234497,0.070679,-3.0,27.0,5.0,3684.0,3237.0,2498.0,-143.0,-2739.0,-1593.0,1321.0,-361.0,-2860.0,0.467196,0.729541,0.499464,4908.0,4028.0,6152.0,-67.0,638.0,132.0
2867.0,2831.0,2899.0,3131.0,3059.0,0.864258,0.44104,-0.230286,0.073914,8.0,16.0,-1.0,2884.0,2751.0,2883.0,-910.0,-3215.0,-1252.0,677.0,-863.0,-3395.0,0.46325,0.728302,0.504857,3484.0,4630.0,6856.0,184.0,374.0,-18.0
2863.0,2819.0,2896.0,3139.0,3039.0,0.864319,0.441711,-0.228394,0.074463,12.0,10.0,-6.0,2450.0,2693.0,2979.0,-1323.0,-3283.0,-1160.0,296.0,-943.0,-3590.0,0.460592,0.729545,0.505319,2264.0,5192.0,6358.0,294.0,245.0,-121.0
2855.0,2828.0,2893.0,3131.0,3031.0,0.86322,0.445618,-0.225586,0.073303,23.0,-4.0,-14.0,1706.0,2793.0,3030.0,-2019.0,-3238.0,-1074.0,-382.0,-904.0,-3840.0,0.454791,0.73626,0.501058,1300.0,6082.0,5828.0,537.0,-70.0,-306.0
2866.0,2829.0,2893.0,3139.0,3035.0,0.859863,0.45343,-0.223999,0.069336,37.0,-15.0,-23.0,1139.0,3139.0,2793.0,-2531.0,-2994.0,-1207.0,-898.0,-542.0,-3965.0,0.448095,0.748714,0.488398,810.0,7582.0,4536.0,862.0,-343.0,-513.0
2871.0,2832.0,2907.0,3163.0,3043.0,0.857239,0.458984,-0.223572,0.066406,44.0,-21.0,-27.0,970.0,3411.0,2602.0,-2669.0,-2792.0,-1318.0,-1062.0,-270.0,-3930.0,0.444268,0.757225,0.478617,1180.0,8520.0,4158.0,1014.0,-464.0,-604.0
2871.0,2843.0,2903.0,3153.0,3051.0,0.850281,0.472961,-0.223145,0.059387,57.0,-27.0,-32.0,693.0,4098.0,2126.0,-2875.0,-2273.0,-1585.0,-1346.0,393.0,-3738.0,0.435647,0.777796,0.453018,528.0,10484.0,2626.0,1324.0,-601.0,-719.0
2866.0,2811.0,2901.0,3155.0,3045.0,0.845886,0.481262,-0.223022,0.055481,63.0,-29.0,-33.0,582.0,4523.0,1852.0,-2946.0,-1944.0,-1729.0,-1474.0,774.0,-3559.0,0.430705,0.789439,0.437249,614.0,11702.0,2138.0,1448.0,-647.0,-748.0
2871.0,2831.0,2903.0,3153.0,3039.0,0.836121,0.499146,-0.222229,0.04718,65.0,-28.0,-36.0,359.0,5603.0,1374.0,-3071.0,-1063.0,-1925.0,-1809.0,1557.0,-2926.0,0.41872,0.813722,0.402792,28.0,14764.0,1380.0,1509.0,-634.0,-808.0
2879.0,2828.0,2906.0,3147.0,3047.0,0.017761,0.378052,0.075745,-1.21228,-17457.0,-26783.0,-22297.0,24187.0,-26031.0,-12468.0,31717.0,-24636.0,-23291.0,-23436.0,-20918.0,9799.0,-0.9193,-0.170218,1.321279,-258.0,16948.0,1590.0,1182.0,-577.0,-939.0
2867.0,2837.0,2896.0,3155.0,3047.0,0.823242,0.522888,-0.21875,0.031433,41.0,-25.0,-47.0,80.0,7263.0,1019.0,-3139.0,322.0,-1909.0,-2297.0,2370.0,-1643.0,0.39304,0.847175,0.357452,-560.0,17366.0,1362.0,946.0,-552.0,-1065.0
2879.0,2838.0,2899.0,3157.0,3053.0,0.8172,0.534607,-0.2146,0.017151,25.0,-28.0,-54.0,-266.0,7989.0,805.0,-3289.0,891.0,-1949.0,-2565.0,2760.0,-1097.0,0.369079,0.8664,0.336252,-1568.0,17898.0,1040.0,577.0,-631.0,-1225.0
2863.0,2838.0,2911.0,3139.0,2881.0,0.811523,0.544556,-0.211731,0.001221,20.0,-36.0,-52.0,-471.0,8638.0,645.0,-3297.0,1401.0,-1953.0,-2658.0,3050.0,-519.0,0.344979,0.883322,0.317201,-1232.0,19218.0,978.0,477.0,-810.0,-1187.0
2877.0,2817.0,2893.0,3147.0,3051.0,0.808472,0.549377,-0.210815,-0.006897,21.0,-38.0,-52.0,-468.0,8939.0,608.0,-3198.0,1638.0,-1910.0,-2608.0,3116.0,-193.0,0.333299,0.89122,0.307415,-840.0,19586.0,1046.0,482.0,-860.0,-1171.0
2864.0,2829.0,2898.0,3146.0,3031.0,0.802307,0.558411,-0.209595,-0.022888,19.0,-38.0,-50.0,-277.0,9519.0,687.0,-2822.0,2100.0,-1676.0,-2378.0,3037.0,541.0,0.310757,0.905628,0.288468,112.0,20470.0,1662.0,444.0,-870.0,-1138.0
2859.0,2869.0,2896.0,3155.0,3053.0,0.799377,0.562317,-0.209167,-0.030762,16.0,-39.0,-49.0,-164.0,9680.0,721.0,-2620.0,2209.0,-1572.0,-2216.0,2945.0,788.0,0.299812,0.911876,0.279999,370.0,20182.0,1630.0,376.0,-879.0,-1111.0
2875.0,2831.0,2915.0,3167.0,3057.0,0.793518,0.569641,-0.208862,-0.04657,15.0,-42.0,-50.0,18.0,9638.0,519.0,-2262.0,2072.0,-1641.0,-1763.0,2875.0,850.0,0.278416,0.923494,0.263725,612.0,18802.0,166.0,358.0,-956.0,-1143.0
2879.0,2835.0,2896.0,3154.0,3039.0,0.786011,0.57782,-0.210388,-0.062927,24.0,-51.0,-50.0,393.0,9367.0,126.0,-1720.0,1708.0,-1869.0,-1046.0,2790.0,697.0,0.258014,0.934823,0.243634,2584.0,17806.0,-882.0,558.0,-1162.0,-1126.0
2867.0,2827.0,2895.0,3153.0,3047.0,0.781372,0.58252,-0.21228,-0.070557,32.0,-53.0,-48.0,757.0,9244.0,-40.0,-1287.0,1541.0,-1933.0,-569.0,2641.0,681.0,0.249539,0.940285,0.231129,3736.0,17904.0,-1030.0,740.0,-1192.0,-1083.0
2846.0,2831.0,2879.0,3152.0,3047.0,0.770203,0.593689,-0.21698,-0.084412,44.0,-53.0,-43.0,1459.0,9586.0,-338.0,-457.0,1794.0,-1982.0,224.0,2420.0,1201.0,0.234009,0.951153,0.200791,5216.0,21052.0,-1360.0,1026.0,-1212.0,-979.0
2870.0,2859.0,2891.0,3149.0,3047.0,0.76416,0.599487,-0.219849,-0.090637,46.0,-52.0,-40.0,1848.0,10014.0,-451.0,-14.0,2181.0,-1961.0,586.0,2301.0,1720.0,0.227327,0.956062,0.184437,5982.0,22842.0,-1630.0,1061.0,-1183.0,-900.0
2871.0,2834.0,2891.0,3179.0,3039.0,0.752502,0.610168,-0.225952,-0.101318,39.0,-47.0,-32.0,2740.0,11109.0,-677.0,967.0,3211.0,-1931.0,1347.0,2024.0,3009.0,0.216417,0.964093,0.153165,8566.0,25598.0,-1790.0,905.0,-1074.0,-716.0
2871.0,2837.0,2906.0,3143.0,3062.0,0.743591,0.617493,-0.232239,-0.108582,24.0,-34.0,-21.0,3879.0,12044.0,-760.0,2148.0,4107.0,-1820.0,2223.0,1494.0,4196.0,0.211285,0.968758,0.129486,11124.0,26332.0,-1660.0,553.0,-764.0,-465.0
2879.0,2830.0,2889.0,3149.0,3024.0,0.74054,0.619812,-0.234985,-0.110535,17.0,-25.0,-14.0,4351.0,12340.0,-792.0,2622.0,4394.0,-1785.0,2573.0,1263.0,4598.0,0.21101,0.969939,0.121232,11350.0,26294.0,-1836.0,390.0,-570.0,-308.0
2877.0,2834.0,2891.0,3135.0,3057.0,0.736877,0.622009,-0.240112,-0.111145,3.0,-12.0,1.0,5052.0,12628.0,-827.0,3285.0,4681.0,-1734.0,3046.0,920.0,5057.0,0.2156,0.970064,0.110792,11830.0,25708.0,-1690.0,80.0,-254.0,37.0
2861.0,2843.0,2911.0,3143.0,3071.0,0.736328,0.622009,-0.242432,-0.110046,-4.0,-5.0,7.0,5287.0,12634.0,-815.0,3483.0,4692.0,-1704.0,3176.0,802.0,5129.0,0.220119,0.969363,0.108621,11924.0,25164.0,-1520.0,-78.0,-114.0,178.0
2867.0,2835.0,2894.0,3155.0,3047.0,0.737854,0.619263,-0.246582,-0.106018,-21.0,3.0,18.0,5514.0,12384.0,-716.0,3608.0,4469.0,-1628.0,3228.0,677.0,4975.0,0.232577,0.966135,0.111379,11262.0,23604.0,-1054.0,-475.0,91.0,413.0
2867.0,2845.0,2915.0,3149.0,3061.0,0.335693,0.739136,-0.039856,-1.21228,14855.0,14401.0,-10041.0,-21387.0,-29740.0,29957.0,-6925.0,30940.0,21483.0,-10090.0,4158.0,-12746.0,-1.765321,0.592879,1.034403,10998.0,21418.0,-746.0,-835.0,125.0,497.0
2859.0,2832.0,2895.0,3147.0,3007.0,0.745544,0.608948,-0.251953,-0.099365,-44.0,6.0,24.0,5532.0,11356.0,-513.0,3445.0,3507.0,-1589.0,3172.0,632.0,4028.0,0.254668,0.958066,0.131412,11316.0,20132.0,-596.0,-1003.0,158.0,555.0
2859.0,2829.0,2903.0,3154.0,3047.0,0.75354,0.598511,-0.255371,-0.093567,-55.0,14.0,31.0,5553.0,10391.0,-464.0,3317.0,2610.0,-1718.0,3250.0,680.0,3120.0,0.272863,0.949792,0.153148,10946.0,17772.0,-870.0,-1248.0,328.0,732.0
2879.0,2835.0,2891.0,3151.0,3031.0,0.762939,0.586243,-0.258606,-0.08551,-60.0,21.0,42.0,5519.0,9274.0,-395.0,3107.0,1583.0,-1859.0,3292.0,704.0,2068.0,0.294342,0.938762,0.178831,10954.0,14972.0,-406.0,-1360.0,494.0,980.0
2864.0,2846.0,2910.0,3135.0,3063.0,0.768005,0.57959,-0.260376,-0.080139,-59.0,25.0,50.0,5458.0,8681.0,-331.0,2942.0,1046.0,-1908.0,3258.0,698.0,1510.0,0.307045,0.931989,0.192534,10450.0,13866.0,-188.0,-1344.0,595.0,1148.0
2870.0,2845.0,2896.0,3151.0,3047.0,0.778076,0.56604,-0.263977,-0.066956,-56.0,32.0,61.0,5215.0,7691.0,-63.0,2470.0,185.0,-1863.0,2974.0,644.0,587.0,0.334989,0.916194,0.2198,9572.0,12748.0,858.0,-1269.0,741.0,1410.0
2870.0,2826.0,2915.0,3147.0,3042.0,0.783203,0.559021,-0.265564,-0.059631,-56.0,34.0,64.0,5032.0,7308.0,120.0,2170.0,-124.0,-1796.0,2740.0,623.0,225.0,0.349311,0.907326,0.233934,8916.0,12420.0,1376.0,-1271.0,798.0,1479.0
2871.0,2819.0,2922.0,3139.0,3071.0,0.79364,0.544128,-0.268311,-0.045044,-61.0,34.0,65.0,4589.0,6699.0,509.0,1501.0,-574.0,-1652.0,2189.0,609.0,-379.0,0.376865,0.887856,0.263827,7848.0,11692.0,2184.0,-1379.0,800.0,1499.0
2867.0,2831.0,2919.0,3139.0,3063.0,0.799072,0.536072,-0.269531,-0.038208,-65.0,33.0,64.0,4367.0,6433.0,715.0,1173.0,-753.0,-1578.0,1915.0,590.0,-645.0,0.389785,0.877317,0.279956,7366.0,11270.0,2640.0,-1468.0,762.0,1481.0
2862.0,2827.0,2907.0,3153.0,3057.0,0.809937,0.518921,-0.272034,-0.025757,-68.0,29.0,61.0,4110.0,5682.0,1061.0,719.0,-1318.0,-1506.0,1632.0,405.0,-1300.0,0.413929,0.854599,0.313379,7932.0,8736.0,3116.0,-1544.0,679.0,1400.0
2863.0,2827.0,2865.0,3153.0,3057.0,0.815125,0.510376,-0.273254,-0.01947,-64.0,31.0,60.0,4098.0,5181.0,1172.0,611.0,-1722.0,-1528.0,1655.0,241.0,-1694.0,0.425598,0.842681,0.329655,8254.0,7262.0,2908.0,-1447.0,720.0,1385.0
2869.0,2815.0,2895.0,3143.0,3057.0,0.824097,0.494995,-0.27533,-0.004822,-45.0,38.0,64.0,4253.0,4163.0,1425.0,574.0,-2542.0,-1510.0,1852.0,-229.0,-2363.0,0.449023,0.818503,0.358332,8904.0,5530.0,3612.0,-1030.0,888.0,1473.0
2866.0,2832.0,2899.0,3155.0,3059.0,0.830627,0.483276,-0.276123,0.012817,-24.0,45.0,65.0,4285.0,3560.0,1662.0,425.0,-2958.0,-1453.0,1860.0,-502.0,-2706.0,0.471099,0.795767,0.380306,8244.0,6072.0,3918.0,-530.0,1034.0,1496.0
2873.0,2843.0,2885.0,3167.0,3039.0,0.833008,0.479004,-0.27594,0.021729,-16.0,44.0,62.0,4169.0,3507.0,1724.0,232.0,-2932.0,-1460.0,1718.0,-453.0,-2760.0,0.480536,0.786036,0.388787,7566.0,6878.0,3756.0,-350.0,1022.0,1424.0
2879.0,2835.0,2914.0,3121.0,3059.0,0.836365,0.472534,-0.275208,0.037964,-9.0,38.0,52.0,3954.0,3716.0,1832.0,-111.0,-2587.0,-1460.0,1362.0,-217.0,-2632.0,0.496226,0.769526,0.40192,7190.0,8610.0,3934.0,-185.0,875.0,1204.0
2863.0,2827.0,2898.0,3119.0,3053.0,0.837585,0.469971,-0.27478,0.0448,-8.0,33.0,47.0,3853.0,3969.0,1852.0,-262.0,-2278.0,-1483.0,1158.0,-10.0,-2472.0,0.502413,0.762661,0.40718,7192.0,9532.0,3812.0,-179.0,766.0,1081.0
2863.0,2827.0,2881.0,3149.0,3035.0,0.839661,0.465454,-0.273926,0.056458,-9.0,30.0,38.0,3886.0,4468.0,1882.0,-312.0,-1681.0,-1530.0,948.0,351.0,-2059.0,0.512566,0.750717,0.416535,8134.0,10284.0,3656.0,-198.0,708.0,878.0
2864.0,2815.0,2898.0,3158.0,3071.0,0.840637,0.463501,-0.273132,0.061829,-8.0,32.0,35.0,3967.0,4672.0,1852.0,-264.0,-1435.0,-1597.0,931.0,530.0,-1878.0,0.516526,0.745498,0.421059,8422.0,10578.0,3500.0,-167.0,749.0,817.0
2863.0,2837.0,2911.0,3135.0,3057.0,0.842285,0.460327,-0.270691,0.072754,-3.0,35.0,34.0,4076.0,4963.0,1869.0,-208.0,-1066.0,-1649.0,862.0,767.0,-1601.0,0.522979,0.736066,0.429563,8274.0,10542.0,3906.0,-62.0,822.0,787.0
2861.0,2821.0,2893.0,3125.0,3059.0,0.842896,0.459167,-0.269287,0.078308,0.0,35.0,34.0,4054.0,5017.0,1928.0,-253.0,-978.0,-1621.0,777.0,798.0,-1551.0,0.525875,0.731886,0.433255,7854.0,10260.0,4270.0,8.0,820.0,792.0
2879.0,2813.0,2899.0,3149.0,3023.0,0.843567,0.457642,-0.266357,0.08905,6.0,30.0,31.0,3699.0,5078.0,2159.0,-650.0,-858.0,-1438.0,319.0,754.0,-1598.0,0.530887,0.724664,0.439153,5984.0,10296.0,5366.0,140.0,697.0,732.0
2867.0,2827.0,2893.0,3149.0,3039.0,0.843689,0.457458,-0.264832,0.093628,8.0,25.0,27.0,3399.0,5091.0,2264.0,-963.0,-826.0,-1350.0,7.0,724.0,-1705.0,0.532533,0.722314,0.441173,5014.0,10208.0,5156.0,188.0,590.0,626.0
2864.0,2839.0,2914.0,3153.0,3071.0,0.843689,0.457642,-0.262207,0.099792,6.0,15.0,15.0,2810.0,5150.0,2493.0,-1562.0,-747.0,-1140.0,-610.0,632.0,-1877.0,0.533781,0.719882,0.443581,3816.0,10452.0,5312.0,150.0,347.0,366.0
2867.0,2821.0,2879.0,3143.0,3057.0,0.843567,0.45813,-0.260986,0.101501,7.0,12.0,10.0,2609.0,5108.0,2562.0,-1759.0,-789.0,-1074.0,-786.0,564.0,-1982.0,0.533321,0.719945,0.443911,4118.0,9908.0,5514.0,167.0,278.0,234.0
2877.0,2832.0,2898.0,3152.0,3043.0,0.843018,0.460327,-0.257812,0.104126,15.0,12.0,2.0,2279.0,4926.0,2593.0,-2067.0,-992.0,-1037.0,-986.0,438.0,-2272.0,0.530545,0.722438,0.443152,3610.0,9274.0,5162.0,364.0,281.0,65.0
2871.0,2839.0,2914.0,3151.0,3051.0,0.842346,0.462524,-0.255737,0.105164,22.0,12.0,-1.0,2094.0,4908.0,2628.0,-2232.0,-1034.0,-986.0,-1133.0,385.0,-2363.0,0.52812,0.725423,0.441276,3268.0,9626.0,5780.0,507.0,278.0,-4.0
2855.0,2831.0,2913.0,3125.0,3029.0,0.84021,0.468811,-0.250916,0.105896,28.0,4.0,-7.0,1478.0,5345.0,2644.0,-2789.0,-673.0,-914.0,-1802.0,566.0,-2344.0,0.520934,0.734658,0.434424,1262.0,12452.0,5302.0,648.0,112.0,-146.0
2879.0,2839.0,2885.0,3057.0,3058.0,0.838806,0.472473,-0.249023,0.105164,26.0,-2.0,-9.0,1291.0,5703.0,2657.0,-2945.0,-361.0,-860.0,-2091.0,708.0,-2159.0,0.517139,0.74025,0.429412,1610.0,13604.0,5452.0,615.0,-37.0,-197.0
2863.0,2823.0,2883.0,3157.0,3037.0,0.83606,0.479553,-0.246338,0.101135,20.0,-13.0,-17.0,1118.0,6344.0,2607.0,-3050.0,183.0,-821.0,-2432.0,999.0,-1758.0,0.508906,0.752043,0.41857,2114.0,14176.0,4802.0,469.0,-281.0,-377.0
2883.0,2879.0,2895.0,3143.0,3067.0,0.834656,0.482971,-0.245667,0.098206,19.0,-16.0,-20.0,1247.0,6469.0,2561.0,-2889.0,259.0,-819.0,-2330.0,1044.0,-1600.0,0.504955,0.757978,0.412681,3488.0,13484.0,4904.0,439.0,-351.0,-436.0
2865.0,2832.0,2895.0,3155.0,3057.0,0.831482,0.490173,-0.244324,0.092773,25.0,-14.0,-19.0,1498.0,6518.0,2448.0,-2575.0,211.0,-828.0,-2045.0,1037.0,-1449.0,0.497252,0.769807,0.400005,3670.0,13194.0,4620.0,579.0,-315.0,-433.0
2865.0,2832.0,2919.0,3163.0,3031.0,0.829529,0.494202,-0.243713,0.090332,27.0,-15.0,-18.0,1588.0,6578.0,2370.0,-2455.0,222.0,-846.0,-1943.0,1064.0,-1371.0,0.493619,0.775879,0.392646,3754.0,13600.0,4242.0,639.0,-338.0,-408.0
2866.0,2823.0,2883.0,3153.0,3015.0,0.824829,0.502869,-0.243652,0.08551,30.0,-20.0,-17.0,2089.0,6875.0,2176.0,-1908.0,420.0,-899.0,-1531.0,1183.0,-937.0,0.487944,0.787892,0.375412,6326.0,14834.0,3766.0,693.0,-446.0,-368.0
2883.0,2839.0,2887.0,3147.0,3059.0,0.819397,0.511597,-0.245178,0.081543,31.0,-20.0,-13.0,2969.0,7305.0,1987.0,-1006.0,764.0,-931.0,-868.0,1289.0,-209.0,0.485231,0.798416,0.356217,8644.0,16018.0,3356.0,715.0,-447.0,-293.0
2863.0,2864.0,2879.0,3159.0,3051.0,0.816589,0.515869,-0.246155,0.079956,30.0,-19.0,-11.0,3383.0,7564.0,1891.0,-586.0,984.0,-947.0,-583.0,1355.0,178.0,0.484508,0.803143,0.346498,9174.0,16726.0,3224.0,694.0,-428.0,-247.0
2871.0,2847.0,2923.0,3151.0,3055.0,0.811157,0.52356,-0.248718,0.077637,25.0,-18.0,-5.0,4054.0,8012.0,1706.0,82.0,1370.0,-981.0,-142.0,1462.0,828.0,0.484794,0.810759,0.328028,9946.0,17178.0,2974.0,587.0,-401.0,-107.0
2867.0,2827.0,2887.0,3157.0,3047.0,0.808655,0.526733,-0.250183,0.077026,22.0,-16.0,-2.0,4330.0,8192.0,1646.0,350.0,1529.0,-973.0,23.0,1480.0,1102.0,0.485768,0.81335,0.319816,10262.0,17416.0,2984.0,512.0,-358.0,-29.0
2864.0,2832.0,2887.0,3153.0,3057.0,0.80481,0.531372,-0.252991,0.076538,12.0,-11.0,2.0,4602.0,8445.0,1614.0,599.0,1755.0,-902.0,121.0,1462.0,1448.0,0.488559,0.81658,0.307216,9540.0,17440.0,3258.0,275.0,-251.0,51.0
2879.0,2853.0,2885.0,3139.0,3056.0,0.80365,0.532593,-0.254211,0.076172,4.0,-11.0,2.0,4634.0,8462.0,1645.0,622.0,1766.0,-840.0,114.0,1402.0,1493.0,0.489731,0.817309,0.303377,9502.0,16836.0,3562.0,108.0,-240.0,58.0
2875.0,2826.0,2919.0,3139.0,3051.0,0.802917,0.532776,-0.256531,0.075134,-8.0,-9.0,1.0,4594.0,8217.0,1801.0,563.0,1524.0,-662.0,101.0,1147.0,1323.0,0.492006,0.817002,0.300664,8816.0,15360.0,4030.0,-166.0,-198.0,44.0
2863.0,2819.0,2911.0,3149.0,3071.0,0.803101,0.532043,-0.25769,0.074219,-12.0,-10.0,0.0,4568.0,7984.0,1893.0,530.0,1296.0,-572.0,135.0,976.0,1146.0,0.492878,0.816318,0.301004,9020.0,14490.0,4370.0,-259.0,-222.0,10.0
2859.0,2831.0,2903.0,3151.0,3031.0,0.803955,0.529785,-0.260132,0.072021,-14.0,-11.0,-2.0,4521.0,7391.0,2030.0,469.0,719.0,-453.0,274.0,635.0,680.0,0.49458,0.814377,0.30319,8896.0,12832.0,4304.0,-316.0,-237.0,-31.0
2865.0,2845.0,2911.0,3163.0,3039.0,0.804382,0.528748,-0.261353,0.070984,-12.0,-10.0,-2.0,4523.0,7064.0,2061.0,463.0,399.0,-430.0,387.0,478.0,423.0,0.49552,0.813527,0.304191,9056.0,12186.0,4280.0,-270.0,-223.0,-32.0
2867.0,2823.0,2915.0,3159.0,3057.0,0.804626,0.527466,-0.263489,0.069763,-5.0,-7.0,-1.0,4508.0,6533.0,2029.0,431.0,-119.0,-466.0,576.0,289.0,-24.0,0.497615,0.812062,0.304644,9028.0,11780.0,3942.0,-100.0,-143.0,-12.0
2871.0,2827.0,2881.0,3153.0,3043.0,0.804504,0.527344,-0.264221,0.06958,-2.0,-5.0,0.0,4478.0,6399.0,2003.0,394.0,-250.0,-488.0,604.0,257.0,-154.0,0.498519,0.811732,0.304164,8722.0,12144.0,3838.0,-35.0,-93.0,0.0
2867.0,2835.0,2919.0,3181.0,3055.0,0.804138,0.527283,-0.26532,0.069336,-2.0,-3.0,-1.0,4396.0,6347.0,1964.0,301.0,-298.0,-518.0,555.0,278.0,-248.0,0.499827,0.811224,0.303024,8578.0,12672.0,3760.0,-35.0,-58.0,-2.0
2879.0,2842.0,2910.0,3154.0,3057.0,0.804077,0.527283,-0.265747,0.069092,-3.0,-3.0,-1.0,4365.0,6338.0,1930.0,267.0,-307.0,-549.0,541.0,307.0,-281.0,0.500224,0.81123,0.302665,8548.0,12608.0,3632.0,-60.0,-57.0,-22.0
2864.0,2829.0,2915.0,3163.0,3063.0,0.804016,0.527039,-0.266541,0.06842,-4.0,-3.0,-3.0,4341.0,6275.0,1836.0,239.0,-368.0,-640.0,574.0,364.0,-372.0,0.500726,0.811021,0.30231,8656.0,12286.0,3362.0,-76.0,-49.0,-48.0
2864.0,2823.0,2923.0,3171.0,3055.0,0.803955,0.527039,-0.266846,0.068115,-3.0,-2.0,-3.0,4335.0,6242.0,1782.0,231.0,-402.0,-692.0,600.0,396.0,-419.0,0.500863,0.811078,0.302007,8630.0,12308.0,3246.0,-55.0,-40.0,-55.0
2864.0,2819.0,2923.0,3147.0,3071.0,0.80365,0.527344,-0.267334,0.067566,-1.0,-1.0,-3.0,4356.0,6212.0,1695.0,252.0,-435.0,-769.0,659.0,446.0,-458.0,0.500947,0.811474,0.300859,8862.0,12398.0,3164.0,-13.0,-14.0,-63.0
2871.0,2832.0,2902.0,3151.0,3035.0,0.803467,0.527588,-0.267456,0.067505,0.0,0.0,-3.0,4382.0,6216.0,1686.0,277.0,-433.0,-773.0,681.0,447.0,-444.0,0.501014,0.811689,0.300234,8882.0,12480.0,3342.0,6.0,18.0,-51.0
2875.0,2839.0,2911.0,3163.0,3059.0,0.80304,0.528198,-0.267273,0.067627,0.0,2.0,-2.0,4376.0,6316.0,1699.0,274.0,-337.0,-750.0,632.0,469.0,-360.0,0.500702,0.812178,0.299018,8698.0,13056.0,3524.0,21.0,60.0,-35.0
2882.0,2839.0,2911.0,3149.0,3055.0,0.802979,0.528442,-0.26709,0.06781,0.0,3.0,-2.0,4354.0,6390.0,1727.0,253.0,-265.0,-720.0,575.0,478.0,-303.0,0.500602,0.812433,0.298784,8558.0,13232.0,3634.0,10.0,78.0,-26.0
2863.0,2833.0,2927.0,3159.0,3053.0,0.802917,0.528748,-0.266602,0.068115,-2.0,3.0,0.0,4246.0,6540.0,1766.0,148.0,-118.0,-680.0,413.0,525.0,-224.0,0.50015,0.812762,0.298666,8172.0,13496.0,3666.0,-28.0,73.0,0.0
2879.0,2850.0,2896.0,3135.0,3043.0,0.802917,0.528748,-0.266479,0.068237,-3.0,2.0,0.0,4203.0,6594.0,1784.0,106.0,-63.0,-663.0,350.0,541.0,-196.0,0.500083,0.812714,0.298748,8154.0,13472.0,3630.0,-49.0,57.0,15.0
2861.0,2819.0,2892.0,3147.0,3062.0,0.80304,0.528564,-0.266479,0.068665,-2.0,2.0,1.0,4170.0,6604.0,1794.0,69.0,-50.0,-657.0,311.0,548.0,-202.0,0.500574,0.812321,0.299196,8210.0,13108.0,3588.0,-45.0,56.0,37.0
2867.0,2831.0,2887.0,3154.0,3039.0,0.802979,0.528503,-0.266479,0.06897,-2.0,2.0,2.0,4161.0,6588.0,1802.0,57.0,-63.0,-649.0,303.0,537.0,-216.0,0.500856,0.811996,0.299204,8300.0,13096.0,3682.0,-24.0,60.0,53.0
2865.0,2823.0,2895.0,3147.0,3059.0,0.802917,0.528564,-0.266479,0.070007,-1.0,3.0,3.0,4130.0,6587.0,1834.0,18.0,-60.0,-616.0,256.0,516.0,-223.0,0.501929,0.811476,0.299186,8120.0,13200.0,3784.0,-3.0,78.0,77.0
2863.0,2833.0,2879.0,3151.0,3047.0,0.802856,0.528564,-0.266479,0.070496,-1.0,3.0,3.0,4107.0,6593.0,1845.0,-8.0,-51.0,-605.0,227.0,515.0,-226.0,0.502412,0.811152,0.299156,8054.0,13224.0,3768.0,-2.0,80.0,76.0
2883.0,2839.0,2911.0,3175.0,3047.0,0.802673,0.528809,-0.266296,0.071411,0.0,2.0,2.0,4025.0,6614.0,1846.0,-95.0,-28.0,-602.0,142.0,537.0,-250.0,0.503024,0.810888,0.298832,7848.0,13294.0,3724.0,8.0,61.0,63.0
2865.0,2823.0,2923.0,3179.0,3051.0,0.802551,0.528931,-0.266296,0.071777,0.0,2.0,2.0,4009.0,6622.0,1866.0,-114.0,-19.0,-579.0,114.0,524.0,-245.0,0.503363,0.81076,0.298559,7918.0,13308.0,3864.0,8.0,51.0,63.0
2861.0,2825.0,2909.0,3167.0,3055.0,0.802429,0.529114,-0.266235,0.072205,-1.0,0.0,1.0,3912.0,6627.0,1885.0,-214.0,-14.0,-558.0,19.0,524.0,-285.0,0.503679,0.810706,0.298263,7444.0,13180.0,3808.0,-22.0,17.0,31.0
2875.0,2845.0,2928.0,3149.0,3055.0,0.802368,0.529114,-0.266357,0.072083,-2.0,-2.0,0.0,3887.0,6601.0,1897.0,-239.0,-40.0,-544.0,4.0,505.0,-314.0,0.503713,0.810689,0.298083,7688.0,12990.0,3840.0,-38.0,-23.0,12.0
2870.0,2835.0,2899.0,3155.0,3063.0,0.802307,0.529175,-0.266663,0.071777,-2.0,-1.0,-1.0,3952.0,6505.0,1905.0,-175.0,-137.0,-533.0,93.0,443.0,-357.0,0.503856,0.810841,0.297714,8120.0,12706.0,3866.0,-30.0,-7.0,-16.0
2865.0,2823.0,2919.0,3159.0,3045.0,0.802246,0.529236,-0.266602,0.071655,-1.0,0.0,-2.0,3960.0,6466.0,1904.0,-165.0,-177.0,-533.0,118.0,424.0,-385.0,0.503605,0.810948,0.297566,7902.0,12726.0,3762.0,-16.0,11.0,-31.0
2864.0,2823.0,2899.0,3157.0,3071.0,0.802063,0.529663,-0.266418,0.071228,0.0,0.0,-3.0,3966.0,6429.0,1894.0,-153.0,-220.0,-537.0,146.0,408.0,-414.0,0.502822,0.811693,0.296857,8006.0,12782.0,3768.0,5.0,4.0,-55.0
2878.0,2825.0,2923.0,3135.0,3067.0,0.801941,0.529907,-0.266357,0.071045,0.0,0.0,-3.0,3975.0,6425.0,1885.0,-141.0,-227.0,-543.0,161.0,408.0,-416.0,0.5025,0.812062,0.296409,7998.0,12862.0,3686.0,19.0,3.0,-57.0
2858.0,2827.0,2942.0,3135.0,3059.0,0.801514,0.530762,-0.266174,0.070618,1.0,-1.0,-3.0,3987.0,6489.0,1857.0,-122.0,-172.0,-558.0,160.0,443.0,-365.0,0.501647,0.813232,0.294854,8022.0,13278.0,3658.0,41.0,-1.0,-53.0
2863.0,2833.0,2879.0,3159.0,3055.0,0.80127,0.531189,-0.266052,0.070435,1.0,-1.0,-2.0,3977.0,6540.0,1855.0,-128.0,-126.0,-553.0,135.0,459.0,-329.0,0.501187,0.813772,0.294048,7864.0,13370.0,3714.0,32.0,-7.0,-43.0
2863.0,2833.0,2878.0,3139.0,3055.0,0.800842,0.53186,-0.266113,0.069946,0.0,-1.0,-2.0,3994.0,6616.0,1867.0,-107.0,-57.0,-529.0,117.0,464.0,-254.0,0.500633,0.814645,0.292549,8156.0,13400.0,3816.0,12.0,-22.0,-34.0
2875.0,2839.0,2897.0,3135.0,3051.0,0.80072,0.532104,-0.266113,0.069763,0.0,-1.0,-2.0,4006.0,6645.0,1869.0,-93.0,-31.0,-523.0,117.0,467.0,-224.0,0.500407,0.815004,0.292068,8050.0,13460.0,3750.0,2.0,-10.0,-32.0
2874.0,2833.0,2891.0,3135.0,3063.0,0.800476,0.53241,-0.266174,0.069275,-2.0,-2.0,-2.0,4004.0,6681.0,1883.0,-91.0,0.0,-502.0,99.0,462.0,-191.0,0.499898,0.815484,0.291252,8062.0,13418.0,3802.0,-26.0,-26.0,-26.0
2865.0,2827.0,2896.0,3147.0,3071.0,0.800415,0.532532,-0.266357,0.069031,-2.0,-2.0,-1.0,4008.0,6698.0,1887.0,-87.0,15.0,-495.0,94.0,461.0,-175.0,0.499915,0.815719,0.290893,8036.0,13510.0,3784.0,-32.0,-34.0,-17.0
2871.0,2823.0,2889.0,3139.0,3035.0,0.800293,0.532471,-0.266846,0.068542,-3.0,-3.0,0.0,4028.0,6752.0,1892.0,-68.0,69.0,-487.0,87.0,473.0,-119.0,0.500103,0.815685,0.290435,8154.0,13644.0,3802.0,-67.0,-47.0,19.0
2867.0,2832.0,2895.0,3154.0,3089.0,0.800354,0.532227,-0.267212,0.06842,-4.0,-2.0,1.0,4042.0,6774.0,1891.0,-58.0,94.0,-489.0,87.0,484.0,-94.0,0.500559,0.815374,0.290581,8144.0,13692.0,3712.0,-91.0,-43.0,38.0
2871.0,2843.0,2919.0,3159.0,3047.0,0.800598,0.531372,-0.26825,0.068359,-7.0,-2.0,4.0,4101.0,6823.0,1891.0,-12.0,153.0,-495.0,106.0,506.0,-25.0,0.502169,0.814156,0.291316,8500.0,13754.0,3898.0,-157.0,-36.0,97.0
2867.0,2825.0,2927.0,3185.0,3039.0,0.800903,0.530579,-0.268799,0.068542,-9.0,-1.0,5.0,4161.0,6822.0,1909.0,37.0,161.0,-486.0,141.0,493.0,7.0,0.503298,0.813036,0.292378,8696.0,13580.0,3892.0,-195.0,-9.0,115.0
2869.0,2827.0,2895.0,3143.0,3041.0,0.80188,0.528625,-0.269653,0.069092,-10.0,1.0,5.0,4169.0,6711.0,1939.0,27.0,71.0,-482.0,167.0,452.0,-71.0,0.505507,0.810527,0.295627,8088.0,12996.0,3954.0,-226.0,35.0,116.0
2863.0,2861.0,2923.0,3119.0,3057.0,0.802368,0.527649,-0.269958,0.069275,-10.0,0.0,3.0,4106.0,6615.0,1945.0,-41.0,-15.0,-490.0,147.0,433.0,-178.0,0.506318,0.809335,0.297303,7834.0,12630.0,3934.0,-210.0,11.0,88.0
2863.0,2823.0,2897.0,3135.0,3056.0,0.802979,0.526245,-0.270935,0.069153,-6.0,-3.0,2.0,4086.0,6395.0,1971.0,-74.0,-221.0,-480.0,199.0,340.0,-359.0,0.507893,0.807655,0.299217,8324.0,12188.0,4006.0,-132.0,-63.0,59.0
2865.0,2832.0,2867.0,3155.0,3030.0,0.80304,0.525879,-0.271545,0.069153,-4.0,-3.0,2.0,4121.0,6305.0,1978.0,-47.0,-306.0,-474.0,254.0,292.0,-412.0,0.508855,0.807047,0.299369,8472.0,12084.0,3986.0,-82.0,-58.0,54.0
2873.0,2815.0,2879.0,3135.0,3055.0,0.802856,0.525635,-0.272522,0.069397,-1.0,-2.0,1.0,4166.0,6199.0,1972.0,-16.0,-405.0,-476.0,321.0,245.0,-476.0,0.510547,0.806194,0.298834,8426.0,12220.0,3926.0,-1.0,-29.0,41.0
2878.0,2847.0,2915.0,3159.0,3029.0,0.802673,0.525696,-0.272888,0.06958,0.0,-1.0,1.0,4187.0,6185.0,1972.0,-1.0,-417.0,-471.0,337.0,233.0,-477.0,0.511236,0.805949,0.298302,8522.0,12338.0,3946.0,22.0,-20.0,32.0
2859.0,2846.0,2927.0,3167.0,3043.0,0.802307,0.526062,-0.273193,0.069946,1.0,1.0,0.0,4194.0,6236.0,1951.0,0.0,-366.0,-483.0,322.0,266.0,-438.0,0.511962,0.805909,0.297213,8322.0,12722.0,3782.0,26.0,24.0,2.0
2865.0,2815.0,2871.0,3149.0,3047.0,0.802124,0.526306,-0.273132,0.070068,0.0,1.0,-1.0,4170.0,6288.0,1933.0,-23.0,-315.0,-497.0,287.0,305.0,-413.0,0.511927,0.80605,0.296713,8202.0,12906.0,3780.0,17.0,28.0,-12.0
2885.0,2847.0,2915.0,3163.0,3037.0,0.801941,0.526733,-0.272888,0.070068,0.0,1.0,-2.0,4133.0,6368.0,1942.0,-57.0,-239.0,-483.0,223.0,332.0,-364.0,0.511495,0.806576,0.296103,8184.0,12974.0,3970.0,9.0,35.0,-23.0
2862.0,2832.0,2902.0,3150.0,3067.0,0.80188,0.526917,-0.272705,0.070068,0.0,1.0,-1.0,4104.0,6399.0,1946.0,-83.0,-210.0,-478.0,187.0,345.0,-353.0,0.511194,0.806831,0.295912,8004.0,12988.0,3892.0,15.0,33.0,-21.0
2853.0,2829.0,2895.0,3139.0,3067.0,0.801575,0.527405,-0.272583,0.070068,1.0,0.0,-1.0,4090.0,6436.0,1977.0,-95.0,-177.0,-439.0,150.0,327.0,-320.0,0.5109,0.80731,0.294974,8284.0,12962.0,4062.0,33.0,7.0,-7.0
2867.0,2827.0,2898.0,3149.0,3031.0,0.801392,0.52771,-0.272583,0.070129,1.0,0.0,-1.0,4100.0,6454.0,1993.0,-85.0,-161.0,-418.0,144.0,314.0,-296.0,0.510907,0.807572,0.294367,8236.0,13044.0,4068.0,43.0,14.0,-4.0
2865.0,2815.0,2896.0,3151.0,3031.0,0.801025,0.52832,-0.272522,0.07019,1.0,0.0,-1.0,4090.0,6527.0,2008.0,-94.0,-93.0,-393.0,100.0,324.0,-238.0,0.51076,0.808139,0.293178,8130.0,13370.0,4042.0,34.0,9.0,-10.0
2894.0,2847.0,2915.0,3137.0,3055.0,0.800903,0.528564,-0.2724,0.070129,0.0,0.0,-1.0,4081.0,6569.0,2002.0,-100.0,-53.0,-396.0,80.0,345.0,-209.0,0.510468,0.808452,0.292782,8130.0,13388.0,4010.0,15.0,6.0,-19.0
2877.0,2839.0,2893.0,3149.0,3023.0,0.800781,0.528809,-0.272278,0.069885,-1.0,0.0,-1.0,4098.0,6601.0,2020.0,-79.0,-25.0,-375.0,79.0,335.0,-170.0,0.509982,0.808864,0.292361,8184.0,13188.0,4078.0,-22.0,14.0,-22.0
2881.0,2839.0,2903.0,3151.0,3038.0,0.800781,0.52887,-0.272278,0.069824,-2.0,0.0,-1.0,4087.0,6596.0,2015.0,-90.0,-31.0,-379.0,73.0,337.0,-181.0,0.509926,0.808995,0.292288,8092.0,13146.0,3984.0,-28.0,5.0,-15.0
2871.0,2831.0,2887.0,3149.0,3023.0,0.800659,0.52887,-0.272583,0.06958,-2.0,-2.0,0.0,4091.0,6593.0,2012.0,-87.0,-33.0,-379.0,77.0,336.0,-181.0,0.51009,0.808956,0.291892,8318.0,13160.0,4062.0,-27.0,-34.0,11.0
2877.0,2845.0,2883.0,3119.0,3058.0,0.800598,0.52887,-0.272827,0.069458,-2.0,-2.0,0.0,4116.0,6601.0,2009.0,-64.0,-25.0,-380.0,94.0,336.0,-163.0,0.510318,0.808924,0.291644,8414.0,13268.0,4014.0,-25.0,-32.0,14.0
2871.0,2842.0,2911.0,3159.0,3071.0,0.800537,0.528809,-0.273132,0.069397,-2.0,-1.0,0.0,4157.0,6627.0,1995.0,-26.0,1.0,-392.0,120.0,351.0,-126.0,0.510701,0.808753,0.291436,8340.0,13368.0,3902.0,-43.0,-1.0,7.0
2870.0,2829.0,2903.0,3163.0,3067.0,0.800537,0.528748,-0.273254,0.069275,-3.0,-1.0,0.0,4158.0,6633.0,1983.0,-26.0,8.0,-404.0,122.0,365.0,-124.0,0.510758,0.808705,0.291417,8326.0,13270.0,3924.0,-57.0,0.0,4.0
2867.0,2815.0,2907.0,3155.0,3057.0,0.80072,0.528442,-0.273376,0.069092,-3.0,0.0,-1.0,4146.0,6590.0,1989.0,-38.0,-33.0,-402.0,127.0,347.0,-163.0,0.510818,0.808493,0.291941,8188.0,13016.0,4034.0,-65.0,11.0,-14.0
55.0,0.761047,0.560608,-0.325989,0.015747,-1.0,-1.0,-1.0,4021.0,6648.0,1243.0,-188.0,-258.0,-58.0,-19.0,18.0,-323.0,0.513842,0.843032,0.158891,8060.0,13114.0,2496.0,-15.0,-16.0,-13.0,,,,
2874.0,2838.0,2911.0,3152.0,3047.0,0.760925,0.560669,-0.326111,0.015625,0.0,-1.0,-1.0,4025.0,6641.0,1237.0,-184.0,-265.0,-61.0,-12.0,17.0,-327.0,0.513813,0.843063,0.158554,8048.0,13394.0,2470.0,18.0,-19.0,-12.0
2869.0,2832.0,2896.0,3152.0,3047.0,0.760803,0.560791,-0.326111,0.015503,0.0,-2.0,-1.0,4031.0,6675.0,1242.0,-176.0,-232.0,-54.0,-22.0,20.0,-294.0,0.5136,0.843192,0.158227,8072.0,13568.0,2542.0,16.0,-23.0,-15.0
2866.0,2827.0,2901.0,3159.0,3051.0,0.760742,0.560974,-0.326111,0.015137,-1.0,-1.0,-1.0,4000.0,6755.0,1243.0,-203.0,-156.0,-50.0,-75.0,55.0,-243.0,0.513155,0.843641,0.157918,7852.0,13688.0,2494.0,-5.0,-21.0,-18.0
2871.0,2838.0,2907.0,3147.0,3055.0,0.760681,0.560974,-0.326111,0.014954,-1.0,-2.0,-1.0,3998.0,6774.0,1236.0,-203.0,-137.0,-56.0,-79.0,67.0,-228.0,0.51291,0.843692,0.157819,8020.0,13642.0,2434.0,-10.0,-27.0,-14.0
2869.0,2835.0,2899.0,3141.0,3055.0,0.76062,0.561035,-0.326172,0.014771,-1.0,-1.0,0.0,4024.0,6781.0,1208.0,-176.0,-131.0,-83.0,-47.0,83.0,-213.0,0.512759,0.843834,0.157613,8054.0,13610.0,2336.0,0.0,-4.0,1.0
2869.0,2821.0,2896.0,3153.0,3051.0,0.76062,0.561096,-0.326172,0.014709,0.0,-1.0,0.0,4025.0,6798.0,1200.0,-174.0,-115.0,-90.0,-49.0,94.0,-200.0,0.512693,0.843966,0.157542,8070.0,13724.0,2360.0,2.0,-2.0,3.0
2867.0,2830.0,2907.0,3153.0,3051.0,0.760559,0.561157,-0.326172,0.014709,-1.0,0.0,0.0,4034.0,6821.0,1187.0,-165.0,-92.0,-102.0,-45.0,110.0,-178.0,0.512655,0.843991,0.157381,8042.0,13666.0,2392.0,-9.0,8.0,7.0
2873.0,2835.0,2901.0,3135.0,3055.0,0.76062,0.561096,-0.326111,0.014709,-1.0,0.0,0.0,4013.0,6820.0,1181.0,-186.0,-93.0,-109.0,-57.0,123.0,-191.0,0.5126,0.843968,0.157582,7918.0,13638.0,2328.0,-13.0,1.0,9.0
2871.0,2835.0,2907.0,3149.0,3053.0,0.76062,0.561035,-0.326294,0.014587,-1.0,-1.0,0.0,4005.0,6791.0,1203.0,-195.0,-122.0,-87.0,-64.0,97.0,-216.0,0.51274,0.84395,0.157528,7992.0,13422.0,2480.0,-15.0,-20.0,16.0
2864.0,2831.0,2894.0,3152.0,3037.0,0.76062,0.560974,-0.326355,0.014587,-1.0,-1.0,0.0,4011.0,6766.0,1209.0,-190.0,-146.0,-81.0,-53.0,81.0,-233.0,0.512831,0.843855,0.157556,8086.0,13392.0,2460.0,-14.0,-20.0,12.0
2871.0,2832.0,2895.0,3155.0,3046.0,0.760559,0.560913,-0.326538,0.014526,-1.0,-1.0,0.0,4021.0,6722.0,1211.0,-181.0,-189.0,-78.0,-31.0,59.0,-264.0,0.512999,0.843728,0.157411,8098.0,13330.0,2428.0,-4.0,-15.0,9.0
2867.0,2838.0,2903.0,3143.0,3055.0,0.760559,0.560913,-0.326599,0.014526,0.0,-1.0,0.0,4021.0,6703.0,1212.0,-182.0,-208.0,-77.0,-25.0,52.0,-280.0,0.513092,0.843727,0.157371,8022.0,13306.0,2348.0,3.0,-11.0,7.0
2845.0,2837.0,2906.0,3151.0,3055.0,0.760437,0.560974,-0.326782,0.014465,0.0,-1.0,0.0,4013.0,6682.0,1198.0,-191.0,-229.0,-88.0,-18.0,56.0,-305.0,0.513224,0.843717,0.156995,8054.0,13342.0,2372.0,11.0,-18.0,3.0
2867.0,2832.0,2895.0,3149.0,3055.0,0.760315,0.561035,-0.326843,0.014404,0.0,-1.0,0.0,4018.0,6685.0,1193.0,-185.0,-226.0,-90.0,-14.0,57.0,-299.0,0.51317,0.843711,0.156699,8056.0,13390.0,2374.0,10.0,-13.0,0.0
2871.0,2833.0,2894.0,3153.0,3051.0,0.760254,0.561157,-0.326904,0.014282,-1.0,-1.0,-1.0,4013.0,6699.0,1174.0,-190.0,-214.0,-107.0,-14.0,78.0,-294.0,0.51309,0.843906,0.156426,8026.0,13408.0,2290.0,-3.0,-18.0,-5.0
2869.0,2835.0,2900.0,3150.0,3057.0,0.760193,0.561218,-0.326965,0.01416,-1.0,-1.0,-1.0,4017.0,6706.0,1176.0,-185.0,-208.0,-103.0,-14.0,75.0,-286.0,0.513007,0.844009,0.156221,8052.0,13444.0,2386.0,-5.0,-22.0,-5.0
2864.0,2843.0,2903.0,3151.0,3057.0,0.760071,0.561218,-0.327209,0.013977,0.0,-2.0,0.0,4031.0,6699.0,1191.0,-172.0,-214.0,-85.0,-11.0,53.0,-282.0,0.513093,0.843984,0.155871,8116.0,13346.0,2438.0,1.0,-29.0,4.0
2865.0,2831.0,2897.0,3158.0,3053.0,0.76001,0.561218,-0.327332,0.013977,0.0,-1.0,0.0,4041.0,6693.0,1192.0,-163.0,-220.0,-83.0,-2.0,46.0,-282.0,0.513239,0.843912,0.155698,8122.0,13372.0,2376.0,15.0,-21.0,9.0
2871.0,2831.0,2891.0,3151.0,3047.0,0.759766,0.561462,-0.327515,0.014038,1.0,-1.0,0.0,4051.0,6708.0,1214.0,-155.0,-205.0,-55.0,-15.0,25.0,-261.0,0.513432,0.843964,0.154935,8144.0,13534.0,2542.0,38.0,-14.0,12.0
2873.0,2841.0,2903.0,3150.0,3056.0,0.759644,0.561584,-0.327576,0.014099,1.0,-1.0,0.0,4051.0,6743.0,1222.0,-155.0,-170.0,-44.0,-34.0,28.0,-229.0,0.513517,0.843971,0.154574,8074.0,13724.0,2512.0,33.0,-11.0,12.0
2867.0,2832.0,2903.0,3151.0,3055.0,0.75946,0.561768,-0.327698,0.014099,0.0,-1.0,0.0,4052.0,6806.0,1237.0,-155.0,-108.0,-24.0,-67.0,34.0,-174.0,0.513588,0.84404,0.15401,8128.0,13752.0,2544.0,6.0,-16.0,14.0
2864.0,2830.0,2896.0,3153.0,3046.0,0.75946,0.561707,-0.327759,0.014099,-1.0,-1.0,0.0,4068.0,6820.0,1240.0,-140.0,-93.0,-21.0,-63.0,32.0,-153.0,0.513679,0.843946,0.154039,8230.0,13704.0,2476.0,-2.0,-13.0,13.0
2875.0,2835.0,2897.0,3154.0,3055.0,0.75946,0.561584,-0.327942,0.014221,-1.0,0.0,0.0,4125.0,6820.0,1257.0,-86.0,-91.0,-5.0,-29.0,0.0,-121.0,0.514091,0.843675,0.154059,8368.0,13658.0,2576.0,-5.0,3.0,21.0
2867.0,2833.0,2899.0,3150.0,3057.0,0.759521,0.561523,-0.327942,0.014343,-1.0,0.0,1.0,4134.0,6824.0,1261.0,-78.0,-86.0,-2.0,-26.0,-2.0,-112.0,0.514266,0.843571,0.154224,8308.0,13668.0,2548.0,-14.0,10.0,24.0
2870.0,2839.0,2903.0,3143.0,3051.0,0.759705,0.561218,-0.328003,0.014465,-2.0,0.0,1.0,4134.0,6803.0,1249.0,-81.0,-104.0,-19.0,-13.0,5.0,-132.0,0.514607,0.843231,0.154808,8284.0,13482.0,2432.0,-33.0,8.0,29.0
2871.0,2831.0,2893.0,3155.0,3047.0,0.759827,0.561035,-0.328125,0.014587,-2.0,0.0,1.0,4150.0,6777.0,1244.0,-68.0,-128.0,-26.0,9.0,-1.0,-146.0,0.515004,0.843006,0.155123,8422.0,13392.0,2446.0,-29.0,12.0,32.0
2875.0,2832.0,2898.0,3155.0,3047.0,0.76001,0.56073,-0.328186,0.015015,-1.0,1.0,1.0,4169.0,6744.0,1225.0,-55.0,-157.0,-50.0,42.0,3.0,-168.0,0.515688,0.842465,0.155716,8348.0,13442.0,2376.0,-12.0,27.0,39.0
2864.0,2832.0,2896.0,3147.0,3057.0,0.76001,0.560608,-0.328247,0.015259,-1.0,1.0,1.0,4183.0,6744.0,1222.0,-44.0,-154.0,-54.0,51.0,4.0,-160.0,0.51605,0.842118,0.15582,8484.0,13490.0,2472.0,-13.0,25.0,44.0
2871.0,2839.0,2898.0,3147.0,3053.0,0.760193,0.560303,-0.328369,0.015808,-1.0,1.0,1.0,4185.0,6752.0,1229.0,-49.0,-141.0,-52.0,41.0,9.0,-152.0,0.516962,0.841495,0.156378,8356.0,13556.0,2402.0,-18.0,25.0,45.0
2867.0,2832.0,2907.0,3155.0,3051.0,0.760315,0.56012,-0.32843,0.015991,-2.0,0.0,2.0,4195.0,6763.0,1223.0,-43.0,-128.0,-60.0,45.0,18.0,-139.0,0.517335,0.841231,0.156734,8466.0,13598.0,2416.0,-23.0,19.0,49.0
2875.0,2838.0,2899.0,3155.0,3039.0,0.760498,0.559753,-0.328613,0.016541,-2.0,1.0,2.0,4223.0,6791.0,1221.0,-23.0,-94.0,-67.0,51.0,30.0,-101.0,0.518337,0.840512,0.15732,8516.0,13708.0,2484.0,-35.0,34.0,57.0
2870.0,2834.0,2896.0,3151.0,3050.0,0.760681,0.559448,-0.328613,0.016846,-2.0,2.0,2.0,4232.0,6804.0,1224.0,-17.0,-77.0,-69.0,50.0,36.0,-84.0,0.518788,0.840052,0.157951,8490.0,13646.0,2458.0,-41.0,48.0,57.0
2869.0,2839.0,2907.0,3151.0,3043.0,0.761108,0.558899,-0.328613,0.017517,-2.0,2.0,3.0,4206.0,6798.0,1236.0,-52.0,-77.0,-68.0,22.0,47.0,-102.0,0.519801,0.839253,0.159238,8318.0,13556.0,2522.0,-45.0,50.0,72.0
2850.0,2835.0,2896.0,3155.0,3051.0,0.761292,0.558594,-0.328674,0.017883,-2.0,2.0,3.0,4196.0,6792.0,1241.0,-67.0,-79.0,-68.0,11.0,51.0,-111.0,0.520413,0.83875,0.159831,8350.0,13564.0,2518.0,-39.0,49.0,77.0
2870.0,2830.0,2899.0,3151.0,3047.0,0.761719,0.557983,-0.328735,0.018738,-2.0,2.0,3.0,4194.0,6794.0,1281.0,-79.0,-68.0,-39.0,-16.0,34.0,-104.0,0.521719,0.837733,0.161154,8410.0,13596.0,2684.0,-39.0,55.0,89.0
2875.0,2836.0,2903.0,3153.0,3059.0,0.761902,0.557617,-0.328796,0.019226,-3.0,2.0,3.0,4199.0,6793.0,1293.0,-81.0,-64.0,-32.0,-22.0,30.0,-101.0,0.522463,0.837056,0.16182,8410.0,13566.0,2632.0,-48.0,59.0,91.0
2873.0,2815.0,2903.0,3151.0,3055.0,0.762451,0.556824,-0.328857,0.02002,-3.0,2.0,3.0,4204.0,6774.0,1319.0,-86.0,-73.0,-20.0,-28.0,18.0,-109.0,0.52377,0.835935,0.163533,8462.0,13438.0,2702.0,-67.0,53.0,88.0
2865.0,2830.0,2900.0,3155.0,3051.0,0.762817,0.556335,-0.328918,0.020447,-4.0,2.0,3.0,4217.0,6758.0,1324.0,-80.0,-84.0,-24.0,-17.0,15.0,-116.0,0.52456,0.835314,0.164612,8504.0,13404.0,2642.0,-77.0,57.0,88.0
2871.0,2831.0,2896.0,3153.0,3047.0,0.76355,0.555237,-0.328979,0.021301,-5.0,3.0,4.0,4269.0,6715.0,1341.0,-40.0,-116.0,-26.0,27.0,-8.0,-122.0,0.526039,0.833887,0.166947,8756.0,13256.0,2766.0,-94.0,73.0,93.0
2871.0,2839.0,2905.0,3151.0,3055.0,0.763977,0.554626,-0.328918,0.02179,-5.0,3.0,4.0,4281.0,6678.0,1352.0,-34.0,-146.0,-27.0,44.0,-21.0,-144.0,0.526742,0.83311,0.168338,8592.0,13114.0,2744.0,-96.0,87.0,94.0
2871.0,2835.0,2909.0,3154.0,3058.0,0.764771,0.553467,-0.328979,0.022827,-4.0,2.0,4.0,4287.0,6574.0,1367.0,-42.0,-237.0,-32.0,77.0,-50.0,-224.0,0.528456,0.831531,0.170842,8680.0,12806.0,2846.0,-88.0,67.0,103.0
2871.0,2831.0,2897.0,3159.0,3055.0,0.765137,0.552856,-0.329102,0.023376,-4.0,3.0,4.0,4302.0,6508.0,1396.0,-35.0,-296.0,-13.0,97.0,-92.0,-266.0,0.529463,0.830635,0.172023,8696.0,12630.0,2994.0,-76.0,75.0,106.0
2874.0,2834.0,2897.0,3159.0,3059.0,0.76593,0.551697,-0.329102,0.024658,-3.0,4.0,4.0,4286.0,6378.0,1453.0,-66.0,-412.0,22.0,103.0,-158.0,-372.0,0.531345,0.828892,0.17458,8486.0,12322.0,3060.0,-66.0,95.0,104.0
2869.0,2833.0,2899.0,3151.0,3055.0,0.766296,0.551208,-0.329041,0.02533,-3.0,4.0,3.0,4258.0,6286.0,1464.0,-101.0,-497.0,24.0,109.0,-182.0,-461.0,0.532209,0.828109,0.175753,8358.0,11988.0,2964.0,-56.0,94.0,90.0
2871.0,2839.0,2903.0,3151.0,3055.0,0.766846,0.550415,-0.328979,0.026611,-1.0,3.0,3.0,4259.0,6086.0,1496.0,-114.0,-685.0,41.0,167.0,-267.0,-619.0,0.533848,0.826658,0.177576,8574.0,11590.0,3124.0,-1.0,77.0,84.0
2877.0,2832.0,2911.0,3155.0,3055.0,0.766968,0.550232,-0.329041,0.027344,1.0,2.0,3.0,4273.0,5999.0,1498.0,-108.0,-767.0,40.0,206.0,-301.0,-684.0,0.534818,0.826026,0.177964,8644.0,11470.0,3022.0,34.0,64.0,74.0
2869.0,2833.0,2906.0,3163.0,3051.0,0.766785,0.550232,-0.329285,0.028687,4.0,1.0,2.0,4355.0,5816.0,1496.0,-40.0,-941.0,41.0,331.0,-392.0,-790.0,0.536549,0.824927,0.177598,9012.0,11068.0,2910.0,96.0,34.0,49.0
2873.0,2838.0,2903.0,3151.0,3057.0,0.766479,0.550476,-0.329468,0.029419,5.0,1.0,1.0,4413.0,5713.0,1474.0,10.0,-1041.0,25.0,420.0,-432.0,-848.0,0.537449,0.824472,0.176783,9216.0,10814.0,2822.0,132.0,33.0,34.0
2867.0,2839.0,2898.0,3147.0,3055.0,0.765686,0.551453,-0.329529,0.031006,8.0,3.0,-1.0,4531.0,5515.0,1432.0,116.0,-1235.0,2.0,597.0,-519.0,-954.0,0.538828,0.824045,0.174547,9340.0,10512.0,2748.0,204.0,82.0,-20.0
2869.0,2831.0,2898.0,3167.0,3047.0,0.765259,0.552185,-0.329224,0.031799,10.0,4.0,-3.0,4544.0,5408.0,1409.0,128.0,-1343.0,-10.0,658.0,-552.0,-1039.0,0.539001,0.824191,0.173336,9102.0,10144.0,2654.0,231.0,107.0,-56.0
2867.0,2831.0,2901.0,3165.0,3055.0,0.764038,0.554321,-0.328247,0.033386,14.0,4.0,-6.0,4567.0,5176.0,1344.0,154.0,-1583.0,-47.0,799.0,-613.0,-1231.0,0.5386,0.825127,0.169851,9248.0,9590.0,2510.0,331.0,113.0,-117.0
2869.0,2832.0,2901.0,3149.0,3055.0,0.763123,0.555847,-0.327759,0.034241,17.0,4.0,-7.0,4575.0,5047.0,1308.0,165.0,-1718.0,-61.0,873.0,-650.0,-1340.0,0.538305,0.825914,0.167137,9188.0,9310.0,2388.0,403.0,109.0,-139.0
2871.0,2835.0,2874.0,3151.0,3056.0,0.760498,0.559875,-0.326843,0.03595,24.0,1.0,-7.0,4582.0,4806.0,1239.0,179.0,-1977.0,-66.0,1002.0,-730.0,-1551.0,0.537382,0.828069,0.159363,9294.0,8996.0,2256.0,553.0,41.0,-154.0
2866.0,2832.0,2903.0,3155.0,3047.0,0.758789,0.562378,-0.326477,0.036865,28.0,2.0,-10.0,4618.0,4687.0,1186.0,219.0,-2107.0,-77.0,1098.0,-769.0,-1641.0,0.536919,0.829381,0.154264,9472.0,8680.0,2022.0,649.0,46.0,-210.0
2869.0,2826.0,2898.0,3155.0,3051.0,0.754456,0.569153,-0.324585,0.038696,37.0,5.0,-16.0,4652.0,4547.0,1012.0,278.0,-2282.0,-146.0,1260.0,-754.0,-1774.0,0.533818,0.833681,0.14141,9230.0,8858.0,1388.0,854.0,119.0,-358.0
2875.0,2834.0,2901.0,3143.0,3055.0,0.751831,0.573303,-0.32312,0.039429,40.0,5.0,-19.0,4620.0,4567.0,894.0,269.0,-2286.0,-201.0,1283.0,-681.0,-1796.0,0.531073,0.836574,0.133721,8986.0,9340.0,1092.0,927.0,121.0,-432.0
2867.0,2832.0,2899.0,3143.0,3053.0,0.74646,0.582031,-0.320007,0.039734,37.0,0.0,-24.0,4464.0,4823.0,733.0,171.0,-2086.0,-230.0,1135.0,-513.0,-1696.0,0.523998,0.843496,0.117616,8342.0,10754.0,1096.0,867.0,22.0,-531.0
2869.0,2832.0,2899.0,3157.0,3057.0,0.74408,0.58606,-0.318298,0.038757,31.0,-2.0,-28.0,4378.0,5046.0,728.0,125.0,-1896.0,-176.0,991.0,-469.0,-1561.0,0.519107,0.847477,0.110377,8286.0,11502.0,1510.0,732.0,-36.0,-629.0
2869.0,2835.0,2913.0,3159.0,3047.0,0.741272,0.592529,-0.313416,0.033936,14.0,-1.0,-42.0,4093.0,5437.0,759.0,-42.0,-1585.0,-70.0,664.0,-391.0,-1386.0,0.504868,0.857179,0.101315,7102.0,11696.0,1578.0,332.0,-16.0,-948.0
2863.0,2833.0,2898.0,3143.0,3043.0,0.740784,0.595154,-0.309998,0.03009,8.0,0.0,-49.0,3790.0,5482.0,702.0,-265.0,-1588.0,-111.0,490.0,-274.0,-1512.0,0.495099,0.863105,0.099359,5550.0,11134.0,962.0,187.0,5.0,-1100.0
2871.0,2832.0,2909.0,3151.0,3051.0,0.739624,0.601013,-0.302063,0.020264,10.0,-4.0,-57.0,3053.0,5396.0,491.0,-806.0,-1786.0,-287.0,165.0,33.0,-1973.0,0.471184,0.876806,0.094995,4094.0,10378.0,422.0,233.0,-73.0,-1297.0
2870.0,2843.0,2899.0,3157.0,3051.0,0.738403,0.604675,-0.298035,0.015198,16.0,-5.0,-57.0,2746.0,5358.0,383.0,-1010.0,-1883.0,-362.0,43.0,162.0,-2160.0,0.458519,0.88393,0.091014,3802.0,10612.0,318.0,383.0,-93.0,-1293.0
2870.0,2837.0,2903.0,3163.0,3057.0,0.73407,0.614075,-0.289734,0.006104,33.0,-2.0,-56.0,2173.0,5528.0,249.0,-1373.0,-1828.0,-388.0,-313.0,378.0,-2266.0,0.432866,0.898011,0.077862,2736.0,11950.0,234.0,763.0,-42.0,-1261.0
2870.0,2835.0,2896.0,3151.0,3051.0,0.731018,0.619873,-0.285095,0.002075,41.0,0.0,-56.0,1881.0,5740.0,225.0,-1554.0,-1674.0,-339.0,-564.0,464.0,-2190.0,0.419392,0.905094,0.06887,1840.0,12844.0,264.0,957.0,19.0,-1272.0
2867.0,2837.0,2901.0,3143.0,3055.0,0.7229,0.633728,-0.275269,-0.005859,55.0,-3.0,-55.0,1032.0,6481.0,48.0,-2167.0,-1051.0,-322.0,-1350.0,861.0,-1827.0,0.390557,0.91947,0.045235,-352.0,15750.0,-230.0,1268.0,-48.0,-1237.0
2871.0,2838.0,2899.0,3167.0,3053.0,0.71814,0.641052,-0.270508,-0.010071,56.0,-5.0,-53.0,623.0,7061.0,-10.0,-2454.0,-526.0,-269.0,-1811.0,1039.0,-1417.0,0.375613,0.926179,0.031704,-1220.0,17820.0,-398.0,1294.0,-110.0,-1204.0
2875.0,2837.0,2899.0,3155.0,3055.0,0.70929,0.654175,-0.261719,-0.02002,42.0,-12.0,-51.0,-5.0,8325.0,-89.0,-2831.0,636.0,-146.0,-2582.0,1274.0,-381.0,0.345076,0.938478,0.007051,-1366.0,20108.0,-246.0,970.0,-268.0,-1168.0
2869.0,2834.0,2897.0,3142.0,3057.0,0.705872,0.659363,-0.257446,-0.025818,32.0,-13.0,-53.0,-211.0,8801.0,-116.0,-2909.0,1066.0,-98.0,-2803.0,1321.0,48.0,0.329401,0.944144,-0.002117,-1646.0,20204.0,-506.0,740.0,-285.0,-1197.0
2871.0,2836.0,2899.0,3143.0,3055.0,0.700439,0.667603,-0.249268,-0.038513,19.0,-17.0,-53.0,-454.0,9168.0,-294.0,-2893.0,1349.0,-165.0,-2834.0,1412.0,428.0,0.297771,0.95443,-0.015729,-1146.0,18570.0,-1138.0,438.0,-379.0,-1205.0
2869.0,2835.0,2907.0,3143.0,3055.0,0.694946,0.674988,-0.242432,-0.050598,23.0,-18.0,-48.0,-434.0,8996.0,-561.0,-2634.0,1109.0,-324.0,-2464.0,1435.0,369.0,0.268648,0.962694,-0.028871,-726.0,17374.0,-2004.0,544.0,-394.0,-1092.0
2870.0,2839.0,2903.0,3163.0,3047.0,0.691528,0.679077,-0.239685,-0.055847,29.0,-18.0,-44.0,-400.0,8929.0,-668.0,-2494.0,1015.0,-362.0,-2296.0,1407.0,356.0,0.255649,0.965974,-0.037264,-642.0,17580.0,-1916.0,669.0,-394.0,-985.0
2867.0,2835.0,2903.0,3165.0,3054.0,0.683777,0.687744,-0.234924,-0.064758,36.0,-15.0,-38.0,-335.0,9067.0,-787.0,-2237.0,1112.0,-324.0,-2099.0,1266.0,578.0,0.232197,0.970954,-0.056437,-426.0,18802.0,-1786.0,832.0,-336.0,-851.0
2875.0,2837.0,2899.0,3167.0,3055.0,0.675842,0.69635,-0.230286,-0.07251,35.0,-14.0,-35.0,-434.0,9337.0,-897.0,-2156.0,1352.0,-275.0,-2092.0,1178.0,885.0,0.210289,0.974642,-0.075914,-1290.0,19570.0,-2122.0,823.0,-311.0,-794.0
2874.0,2832.0,2919.0,3147.0,3051.0,0.671936,0.700378,-0.228149,-0.076538,33.0,-16.0,-35.0,-419.0,9461.0,-940.0,-2052.0,1464.0,-241.0,-2031.0,1095.0,1040.0,0.199392,0.976143,-0.085226,-550.0,19598.0,-2208.0,777.0,-348.0,-789.0
2867.0,2835.0,2903.0,3151.0,3051.0,0.664124,0.708008,-0.224609,-0.084656,33.0,-20.0,-36.0,-32.0,9661.0,-1155.0,-1493.0,1645.0,-307.0,-1530.0,891.0,1374.0,0.178463,0.978438,-0.103498,1482.0,20076.0,-3168.0,775.0,-437.0,-815.0
2870.0,2832.0,2907.0,3159.0,3057.0,0.659973,0.711731,-0.223389,-0.088623,34.0,-21.0,-35.0,221.0,9834.0,-1306.0,-1161.0,1813.0,-379.0,-1231.0,793.0,1621.0,0.16871,0.979041,-0.113045,1930.0,20836.0,-3556.0,780.0,-479.0,-787.0
2869.0,2838.0,2903.0,3155.0,3053.0,0.651978,0.718628,-0.22168,-0.096191,30.0,-22.0,-32.0,733.0,10348.0,-1580.0,-502.0,2322.0,-504.0,-676.0,554.0,2265.0,0.150809,0.979706,-0.131241,3016.0,22338.0,-3880.0,703.0,-484.0,-712.0
2871.0,2839.0,2899.0,3167.0,3050.0,0.645752,0.723999,-0.219543,-0.102417,20.0,-13.0,-30.0,1161.0,10867.0,-1667.0,53.0,2838.0,-480.0,-272.0,206.0,2858.0,0.135242,0.980018,-0.144889,3180.0,23102.0,-3348.0,475.0,-281.0,-683.0
2867.0,2835.0,2909.0,3149.0,3055.0,0.643738,0.725952,-0.217834,-0.105164,14.0,-9.0,-30.0,1197.0,11035.0,-1699.0,150.0,3003.0,-478.0,-203.0,128.0,3034.0,0.127769,0.980462,-0.149001,2492.0,22878.0,-3608.0,328.0,-198.0,-667.0
2870.0,2839.0,2900.0,3147.0,3055.0,0.640991,0.728821,-0.213867,-0.110291,8.0,-5.0,-30.0,1260.0,10937.0,-1722.0,330.0,2896.0,-461.0,-1.0,8.0,2950.0,0.11341,0.981511,-0.153885,2674.0,21148.0,-3596.0,191.0,-93.0,-667.0
2871.0,2834.0,2907.0,3159.0,3057.0,0.639648,0.730286,-0.21167,-0.112549,9.0,-3.0,-30.0,1289.0,10819.0,-1719.0,417.0,2775.0,-438.0,101.0,-56.0,2837.0,0.106403,0.981899,-0.156304,2774.0,21010.0,-3356.0,215.0,-56.0,-680.0
2870.0,2837.0,2903.0,3159.0,3010.0,0.636902,0.733154,-0.207642,-0.116638,11.0,-4.0,-28.0,1617.0,10625.0,-1732.0,851.0,2577.0,-409.0,530.0,-287.0,2677.0,0.093467,0.982333,-0.161382,4880.0,20648.0,-3630.0,269.0,-86.0,-629.0
2869.0,2833.0,2905.0,3143.0,3054.0,0.635193,0.734802,-0.20636,-0.118042,15.0,-4.0,-26.0,1937.0,10576.0,-1786.0,1210.0,2529.0,-433.0,874.0,-437.0,2662.0,0.088682,0.982201,-0.165115,5854.0,20996.0,-3944.0,361.0,-88.0,-579.0
2871.0,2835.0,2903.0,3147.0,3055.0,0.631531,0.738281,-0.204773,-0.118958,17.0,0.0,-17.0,2550.0,10864.0,-1945.0,1870.0,2825.0,-519.0,1455.0,-722.0,3017.0,0.082993,0.981213,-0.174009,6700.0,23200.0,-4308.0,392.0,16.0,-373.0
2871.0,2835.0,2899.0,3145.0,3057.0,0.630249,0.739929,-0.203796,-0.116943,2.0,11.0,-6.0,3061.0,11366.0,-2014.0,2374.0,3335.0,-554.0,1835.0,-983.0,3567.0,0.083825,0.980345,-0.178139,7598.0,23852.0,-4046.0,67.0,255.0,-127.0
2868.0,2834.0,2901.0,3155.0,3053.0,0.631165,0.739685,-0.203064,-0.114685,-6.0,18.0,-2.0,3226.0,11456.0,-2024.0,2515.0,3425.0,-575.0,1953.0,-1022.0,3677.0,0.086672,0.980303,-0.176848,7272.0,23294.0,-4090.0,-119.0,430.0,-31.0
2870.0,2833.0,2907.0,3167.0,3057.0,0.635193,0.737915,-0.2005,-0.108337,-18.0,31.0,5.0,3316.0,11304.0,-2058.0,2539.0,3268.0,-669.0,2035.0,-870.0,3559.0,0.094825,0.98088,-0.169512,6814.0,21718.0,-4076.0,-392.0,711.0,119.0
2871.0,2835.0,2903.0,3143.0,3055.0,0.638184,0.736389,-0.198914,-0.104187,-23.0,36.0,9.0,3314.0,11115.0,-2013.0,2491.0,3075.0,-671.0,2021.0,-784.0,3377.0,0.100442,0.981351,-0.163702,6534.0,20994.0,-3704.0,-506.0,841.0,217.0
2871.0,2834.0,2901.0,3143.0,3055.0,0.645752,0.731812,-0.195984,-0.094543,-32.0,40.0,18.0,3175.0,10503.0,-1798.0,2235.0,2456.0,-585.0,1847.0,-601.0,2755.0,0.114738,0.982195,-0.148024,5712.0,18884.0,-2866.0,-730.0,922.0,434.0
2867.0,2834.0,2901.0,3163.0,3052.0,0.650146,0.728821,-0.195068,-0.089539,-36.0,37.0,23.0,3061.0,10137.0,-1656.0,2052.0,2087.0,-521.0,1712.0,-510.0,2375.0,0.123131,0.982613,-0.138524,5412.0,18094.0,-2392.0,-811.0,867.0,541.0
2864.0,2838.0,2907.0,3153.0,3055.0,0.659607,0.721497,-0.194763,-0.079956,-43.0,30.0,31.0,2874.0,9417.0,-1313.0,1714.0,1364.0,-354.0,1454.0,-410.0,1624.0,0.141558,0.982953,-0.117016,5444.0,16556.0,-1568.0,-973.0,704.0,715.0
2871.0,2837.0,2903.0,3159.0,3057.0,0.669861,0.712524,-0.196716,-0.069641,-46.0,30.0,40.0,2995.0,8565.0,-956.0,1649.0,520.0,-195.0,1478.0,-448.0,799.0,0.164303,0.981983,-0.092825,6454.0,14498.0,-872.0,-1036.0,703.0,939.0
2867.0,2867.0,2899.0,3143.0,3053.0,0.675049,0.707825,-0.19812,-0.063599,-44.0,32.0,45.0,3025.0,8143.0,-772.0,1571.0,108.0,-112.0,1453.0,-472.0,393.0,0.177448,0.980833,-0.080532,6128.0,13830.0,-418.0,-1004.0,744.0,1037.0
2873.0,2833.0,2901.0,3147.0,3055.0,0.684998,0.698181,-0.20166,-0.050903,-43.0,30.0,51.0,2970.0,7520.0,-417.0,1289.0,-483.0,44.0,1264.0,-503.0,-209.0,0.205194,0.977035,-0.056311,5732.0,13608.0,212.0,-980.0,709.0,1179.0
2871.0,2837.0,2903.0,3157.0,3056.0,0.690002,0.693054,-0.203796,-0.044617,-46.0,28.0,53.0,2870.0,7333.0,-297.0,1072.0,-650.0,61.0,1101.0,-449.0,-400.0,0.219396,0.974604,-0.043763,5000.0,13622.0,-22.0,-1044.0,653.0,1230.0
2871.0,2834.0,2907.0,3155.0,3057.0,0.7005,0.681519,-0.208923,-0.033875,-56.0,18.0,51.0,2606.0,7071.0,-131.0,586.0,-866.0,2.0,738.0,-256.0,-694.0,0.24653,0.968962,-0.016268,4376.0,13444.0,-38.0,-1261.0,413.0,1180.0
2869.0,2834.0,2901.0,3143.0,3051.0,0.705933,0.675171,-0.211731,-0.029907,-60.0,12.0,47.0,2592.0,6930.0,-80.0,473.0,-982.0,-68.0,692.0,-176.0,-826.0,0.258551,0.965915,-0.00145,5382.0,12956.0,220.0,-1374.0,282.0,1094.0
2871.0,2839.0,2907.0,3149.0,3053.0,0.717529,0.661255,-0.217468,-0.022644,-67.0,12.0,46.0,2820.0,6490.0,12.0,508.0,-1364.0,-240.0,889.0,-106.0,-1171.0,0.282133,0.958788,0.030811,6454.0,11316.0,174.0,-1530.0,293.0,1056.0
2869.0,2837.0,2907.0,3163.0,3058.0,0.723328,0.654053,-0.220337,-0.018433,-66.0,16.0,48.0,2964.0,6200.0,78.0,550.0,-1617.0,-308.0,1024.0,-116.0,-1395.0,0.29464,0.954312,0.047209,6750.0,10670.0,558.0,-1507.0,367.0,1107.0
2865.0,2837.0,2903.0,3163.0,3054.0,0.734436,0.639832,-0.225952,-0.008301,-60.0,21.0,55.0,3079.0,5667.0,280.0,447.0,-2062.0,-367.0,1098.0,-164.0,-1831.0,0.321273,0.943582,0.079026,6302.0,9876.0,1492.0,-1358.0,483.0,1277.0
2871.0,2835.0,2903.0,3147.0,3055.0,0.739563,0.632874,-0.228943,-0.002502,-56.0,21.0,59.0,3066.0,5423.0,485.0,317.0,-2254.0,-285.0,1025.0,-274.0,-2033.0,0.335468,0.937245,0.094016,5976.0,9380.0,2234.0,-1278.0,489.0,1352.0
2866.0,2839.0,2899.0,3143.0,3055.0,0.748657,0.619629,-0.235474,0.009094,-47.0,14.0,60.0,2849.0,4958.0,915.0,-131.0,-2607.0,-77.0,706.0,-496.0,-2464.0,0.363848,0.923496,0.121183,4976.0,8714.0,3292.0,-1061.0,334.0,1397.0
2871.0,2838.0,2903.0,3167.0,3053.0,0.752441,0.613464,-0.239258,0.014343,-43.0,8.0,60.0,2712.0,4801.0,1146.0,-381.0,-2705.0,58.0,495.0,-618.0,-2614.0,0.377653,0.916328,0.132791,4558.0,8766.0,3588.0,-970.0,195.0,1384.0
2871.0,2839.0,2903.0,3159.0,3056.0,0.758545,0.602112,-0.247925,0.022766,-38.0,-6.0,54.0,2522.0,4663.0,1414.0,-783.0,-2727.0,169.0,163.0,-696.0,-2750.0,0.40354,0.902169,0.151903,4940.0,9006.0,3184.0,-848.0,-132.0,1258.0
2871.0,2838.0,2903.0,3149.0,3055.0,0.760925,0.596924,-0.252808,0.026123,-35.0,-10.0,52.0,2624.0,4583.0,1441.0,-783.0,-2750.0,134.0,210.0,-704.0,-2766.0,0.415922,0.895221,0.15946,6066.0,8726.0,2952.0,-782.0,-210.0,1206.0
2869.0,2833.0,2899.0,3142.0,3054.0,0.764465,0.587952,-0.262207,0.033081,-27.0,-7.0,48.0,2901.0,4643.0,1275.0,-701.0,-2578.0,-126.0,367.0,-493.0,-2602.0,0.439797,0.881589,0.171062,6748.0,9864.0,2012.0,-606.0,-159.0,1114.0
2871.0,2835.0,2899.0,3143.0,3055.0,0.767334,0.580383,-0.269592,0.039795,-24.0,0.0,39.0,3115.0,4870.0,1180.0,-652.0,-2250.0,-301.0,397.0,-288.0,-2310.0,0.459927,0.869239,0.18086,6332.0,10316.0,2150.0,-528.0,22.0,907.0
2870.0,2836.0,2903.0,3158.0,3056.0,0.768799,0.577026,-0.272217,0.042725,-23.0,1.0,36.0,3030.0,4941.0,1176.0,-802.0,-2136.0,-346.0,258.0,-191.0,-2284.0,0.467866,0.863974,0.185816,5378.0,10262.0,2418.0,-515.0,41.0,827.0
2871.0,2835.0,2909.0,3163.0,3057.0,0.771484,0.570679,-0.277222,0.047119,-22.0,-5.0,32.0,2604.0,5032.0,1243.0,-1340.0,-1967.0,-353.0,-230.0,-30.0,-2394.0,0.481524,0.854415,0.194882,3892.0,10190.0,2740.0,-482.0,-113.0,752.0
2867.0,2833.0,2903.0,3143.0,3024.0,0.772461,0.567932,-0.279907,0.048645,-19.0,-9.0,30.0,2436.0,5005.0,1282.0,-1559.0,-1959.0,-341.0,-408.0,1.0,-2493.0,0.487689,0.850179,0.198167,4020.0,9764.0,2830.0,-418.0,-184.0,700.0
2867.0,2833.0,2898.0,3147.0,3051.0,0.773193,0.56427,-0.284668,0.051575,-4.0,-7.0,24.0,2286.0,4879.0,1233.0,-1796.0,-2028.0,-414.0,-523.0,81.0,-2688.0,0.498411,0.843216,0.201051,4450.0,9216.0,2038.0,-87.0,-152.0,559.0
2871.0,2839.0,2907.0,3159.0,3045.0,0.772522,0.564087,-0.286499,0.053528,8.0,-4.0,22.0,2303.0,4811.0,1161.0,-1817.0,-2077.0,-472.0,-484.0,119.0,-2754.0,0.503042,0.840868,0.19938,4732.0,9310.0,1942.0,191.0,-72.0,526.0
2875.0,2835.0,2907.0,3159.0,3055.0,0.768921,0.567261,-0.288696,0.059387,31.0,2.0,24.0,2128.0,5100.0,990.0,-2060.0,-1765.0,-563.0,-750.0,380.0,-2639.0,0.511345,0.838068,0.189636,3548.0,11862.0,1734.0,714.0,61.0,571.0
2867.0,2835.0,2898.0,3143.0,3053.0,0.766235,0.570251,-0.289307,0.062683,38.0,3.0,24.0,1929.0,5523.0,924.0,-2288.0,-1338.0,-568.0,-1105.0,594.0,-2402.0,0.514844,0.837624,0.182161,2514.0,13874.0,1380.0,879.0,71.0,567.0
2870.0,2835.0,2903.0,3143.0,3055.0,0.760437,0.576965,-0.290344,0.066895,33.0,-8.0,18.0,1424.0,6730.0,846.0,-2825.0,-140.0,-510.0,-2076.0,1080.0,-1667.0,0.518769,0.838647,0.165551,1410.0,17280.0,1344.0,769.0,-182.0,417.0
2875.0,2843.0,2907.0,3159.0,3055.0,0.757751,0.580017,-0.291138,0.067078,26.0,-15.0,12.0,1390.0,7278.0,826.0,-2861.0,397.0,-464.0,-2355.0,1227.0,-1224.0,0.519032,0.83996,0.157506,3030.0,17628.0,1578.0,610.0,-324.0,284.0
2871.0,2839.0,2907.0,3145.0,3059.0,0.753662,0.584717,-0.292786,0.065979,17.0,-14.0,4.0,1851.0,7857.0,836.0,-2396.0,953.0,-349.0,-2258.0,1196.0,-489.0,0.518481,0.842722,0.144743,5398.0,16630.0,1628.0,400.0,-310.0,104.0
2867.0,2837.0,2901.0,3143.0,3055.0,0.751831,0.58667,-0.293579,0.06543,17.0,-13.0,3.0,2187.0,7915.0,868.0,-2058.0,1003.0,-272.0,-2030.0,1060.0,-258.0,0.518215,0.843736,0.139161,6420.0,16054.0,1946.0,407.0,-292.0,85.0
2869.0,2833.0,2894.0,3147.0,3054.0,0.747681,0.591248,-0.295166,0.065125,25.0,-12.0,3.0,2929.0,7997.0,970.0,-1317.0,1069.0,-66.0,-1529.0,704.0,212.0,0.518389,0.845684,0.126571,8166.0,16488.0,2300.0,586.0,-267.0,70.0
2871.0,2839.0,2909.0,3167.0,3055.0,0.745239,0.593933,-0.295959,0.065369,28.0,-11.0,3.0,3282.0,8178.0,1022.0,-967.0,1243.0,44.0,-1363.0,560.0,555.0,0.51877,0.846552,0.119306,8590.0,17652.0,2374.0,658.0,-250.0,70.0
2875.0,2842.0,2906.0,3163.0,3056.0,0.740662,0.598938,-0.297302,0.065186,21.0,-14.0,1.0,3847.0,8863.0,1124.0,-400.0,1912.0,257.0,-1284.0,389.0,1442.0,0.518485,0.848461,0.105713,9422.0,19984.0,2618.0,494.0,-309.0,32.0
2871.0,2833.0,2905.0,3143.0,3051.0,0.739136,0.600525,-0.298096,0.064392,12.0,-14.0,0.0,4144.0,9194.0,1176.0,-99.0,2236.0,348.0,-1220.0,308.0,1883.0,0.518004,0.849349,0.100977,10040.0,20226.0,2662.0,279.0,-312.0,2.0
2869.0,2832.0,2898.0,3139.0,3035.0,0.738525,0.600952,-0.299255,0.06189,-7.0,-10.0,-3.0,4554.0,9469.0,1203.0,323.0,2500.0,395.0,-1010.0,223.0,2332.0,0.516401,0.850595,0.098553,10092.0,19104.0,2342.0,-158.0,-218.0,-52.0
2871.0,2843.0,2911.0,3155.0,3058.0,0.739258,0.600037,-0.299622,0.060486,-14.0,-7.0,-3.0,4681.0,9408.0,1196.0,457.0,2437.0,373.0,-860.0,196.0,2346.0,0.515583,0.850918,0.100344,10052.0,18270.0,2328.0,-317.0,-144.0,-58.0
2859.0,2847.0,2907.0,3165.0,3057.0,0.742004,0.596802,-0.299683,0.057983,-22.0,-1.0,-3.0,4719.0,8908.0,1173.0,508.0,1937.0,288.0,-554.0,140.0,1940.0,0.513941,0.850906,0.107951,9264.0,15790.0,2270.0,-496.0,-16.0,-64.0
2870.0,2837.0,2891.0,3143.0,3055.0,0.743652,0.59491,-0.299561,0.057007,-22.0,0.0,-3.0,4666.0,8510.0,1151.0,460.0,1541.0,228.0,-391.0,105.0,1572.0,0.513366,0.850658,0.112615,9000.0,14530.0,2162.0,-492.0,17.0,-56.0
2868.0,2835.0,2899.0,3149.0,3055.0,0.746521,0.591492,-0.299377,0.055786,-17.0,1.0,-1.0,4473.0,7691.0,1104.0,270.0,730.0,113.0,-142.0,37.0,772.0,0.512977,0.84972,0.120916,8230.0,13142.0,2080.0,-374.0,45.0,-3.0
2871.0,2839.0,2911.0,3163.0,3057.0,0.747681,0.590088,-0.299438,0.055481,-15.0,1.0,0.0,4342.0,7367.0,1084.0,137.0,410.0,66.0,-92.0,24.0,426.0,0.513246,0.849168,0.124237,7890.0,12858.0,2012.0,-325.0,25.0,21.0
2871.0,2843.0,2907.0,3165.0,3057.0,0.749573,0.587524,-0.299805,0.054871,-14.0,0.0,1.0,4195.0,6867.0,1028.0,-15.0,-78.0,-35.0,35.0,12.0,-78.0,0.513927,0.847884,0.129802,8094.0,12358.0,1912.0,-298.0,10.0,30.0
2869.0,2831.0,2901.0,3143.0,3051.0,0.750549,0.586243,-0.299927,0.054626,-14.0,0.0,0.0,4132.0,6667.0,987.0,-80.0,-273.0,-99.0,91.0,28.0,-285.0,0.514268,0.84724,0.132672,7856.0,12182.0,1636.0,-303.0,19.0,16.0
2869.0,2832.0,2895.0,3187.0,3055.0,0.75238,0.583801,-0.300171,0.053894,-14.0,1.0,-1.0,4082.0,6338.0,887.0,-133.0,-593.0,-243.0,242.0,71.0,-603.0,0.514612,0.846126,0.138054,8126.0,11784.0,1466.0,-300.0,31.0,-18.0
2871.0,2843.0,2911.0,3159.0,3057.0,0.753235,0.582764,-0.30011,0.053589,-13.0,2.0,-2.0,4055.0,6218.0,835.0,-160.0,-710.0,-316.0,298.0,107.0,-727.0,0.514566,0.845751,0.140555,7874.0,11776.0,1368.0,-281.0,54.0,-35.0
2871.0,2843.0,2907.0,3163.0,3057.0,0.754883,0.580933,-0.299744,0.052734,-12.0,2.0,-4.0,3987.0,6099.0,799.0,-222.0,-826.0,-391.0,325.0,151.0,-869.0,0.513813,0.845459,0.1453,7886.0,11980.0,1650.0,-252.0,48.0,-73.0
2870.0,2831.0,2899.0,3141.0,3047.0,0.755676,0.580078,-0.2995,0.052307,-11.0,2.0,-4.0,3980.0,6068.0,817.0,-225.0,-857.0,-392.0,335.0,140.0,-897.0,0.513334,0.845371,0.147592,7946.0,11970.0,1790.0,-243.0,54.0,-73.0
2867.0,2835.0,2895.0,3143.0,3051.0,0.75708,0.578613,-0.298889,0.051575,-8.0,2.0,-4.0,3952.0,5987.0,847.0,-244.0,-937.0,-395.0,353.0,119.0,-976.0,0.51225,0.845283,0.151702,7866.0,11664.0,1780.0,-177.0,66.0,-74.0
2871.0,2844.0,2910.0,3159.0,3055.0,0.757507,0.578186,-0.298584,0.051392,-5.0,2.0,-3.0,3965.0,5941.0,874.0,-227.0,-983.0,-379.0,379.0,83.0,-1005.0,0.511787,0.845271,0.153007,8062.0,11674.0,1950.0,-106.0,65.0,-63.0
2875.0,2846.0,2907.0,3159.0,3059.0,0.757751,0.578125,-0.298157,0.051575,1.0,2.0,-2.0,3995.0,5979.0,948.0,-195.0,-946.0,-311.0,362.0,25.0,-947.0,0.511491,0.845395,0.153721,8068.0,12296.0,2112.0,31.0,49.0,-30.0
2870.0,2833.0,2897.0,3143.0,3053.0,0.757629,0.578369,-0.298035,0.051758,2.0,1.0,-2.0,4008.0,6068.0,999.0,-181.0,-858.0,-257.0,315.0,1.0,-857.0,0.51147,0.845528,0.153346,8092.0,12702.0,2282.0,64.0,29.0,-25.0
2871.0,2831.0,2898.0,3141.0,3043.0,0.757202,0.579041,-0.297607,0.051697,2.0,-1.0,-4.0,4037.0,6287.0,1079.0,-145.0,-644.0,-167.0,219.0,-18.0,-644.0,0.510567,0.846131,0.15217,8292.0,13168.0,2354.0,61.0,-3.0,-70.0
2871.0,2843.0,2910.0,3159.0,3057.0,0.75708,0.579346,-0.297424,0.051453,1.0,-1.0,-4.0,4090.0,6365.0,1120.0,-87.0,-570.0,-122.0,217.0,-50.0,-545.0,0.509966,0.846616,0.151715,8508.0,13150.0,2480.0,40.0,-2.0,-78.0
2877.0,2844.0,2910.0,3157.0,3056.0,0.757019,0.579773,-0.296936,0.051147,1.0,0.0,-4.0,4114.0,6458.0,1142.0,-54.0,-484.0,-98.0,198.0,-52.0,-452.0,0.50888,0.847423,0.151386,8112.0,13232.0,2294.0,30.0,18.0,-76.0
2847.0,2837.0,2897.0,3143.0,3053.0,0.756897,0.579956,-0.296753,0.050964,0.0,-1.0,-3.0,4086.0,6518.0,1143.0,-78.0,-426.0,-94.0,152.0,-30.0,-414.0,0.508337,0.847686,0.151079,8006.0,13416.0,2296.0,22.0,-10.0,-47.0
2870.0,2831.0,2899.0,3143.0,3051.0,0.756653,0.5802,-0.297058,0.050598,0.0,-4.0,0.0,4027.0,6648.0,1125.0,-136.0,-298.0,-105.0,55.0,35.0,-337.0,0.508254,0.847959,0.150208,7774.0,13790.0,2168.0,11.0,-73.0,1.0
2873.0,2843.0,2909.0,3159.0,3059.0,0.756409,0.580261,-0.297485,0.050232,0.0,-6.0,0.0,3993.0,6742.0,1116.0,-171.0,-204.0,-108.0,-11.0,78.0,-276.0,0.508336,0.847943,0.149477,7794.0,14090.0,2206.0,1.0,-116.0,22.0
2875.0,2842.0,2910.0,3163.0,3057.0,0.756104,0.580078,-0.298828,0.049377,-3.0,-8.0,1.0,4033.0,6889.0,1153.0,-138.0,-55.0,-62.0,-65.0,76.0,-126.0,0.509176,0.847687,0.148342,8388.0,13994.0,2462.0,-57.0,-161.0,36.0
2870.0,2832.0,2899.0,3139.0,3053.0,0.756104,0.579773,-0.299561,0.048889,-4.0,-7.0,0.0,4092.0,6889.0,1175.0,-83.0,-53.0,-39.0,-29.0,40.0,-92.0,0.509687,0.847446,0.148209,8516.0,13716.0,2490.0,-69.0,-138.0,21.0
2874.0,2832.0,2901.0,3143.0,3055.0,0.756104,0.579346,-0.300476,0.048096,-2.0,-5.0,-1.0,4152.0,6831.0,1182.0,-26.0,-109.0,-31.0,37.0,0.0,-110.0,0.51011,0.847187,0.148078,8446.0,13568.0,2428.0,-45.0,-93.0,-17.0
2870.0,2839.0,2905.0,3155.0,3056.0,0.756104,0.579224,-0.300781,0.047791,-3.0,-4.0,-1.0,4171.0,6824.0,1194.0,-8.0,-115.0,-18.0,49.0,-18.0,-104.0,0.510206,0.847157,0.148007,8418.0,13612.0,2440.0,-46.0,-72.0,-16.0
2871.0,2837.0,2907.0,3159.0,3055.0,0.756348,0.578674,-0.30127,0.047302,-3.0,-2.0,-1.0,4187.0,6784.0,1202.0,5.0,-153.0,-15.0,74.0,-37.0,-129.0,0.510474,0.846856,0.148672,8386.0,13428.0,2482.0,-61.0,-25.0,-2.0
2871.0,2832.0,2902.0,3135.0,3055.0,0.75647,0.57843,-0.301331,0.047241,-3.0,-1.0,-1.0,4158.0,6775.0,1202.0,-24.0,-160.0,-19.0,55.0,-28.0,-150.0,0.510546,0.846659,0.149097,8082.0,13554.0,2386.0,-52.0,-12.0,-1.0
2869.0,2831.0,2899.0,3139.0,3051.0,0.756714,0.578125,-0.301453,0.047058,-2.0,0.0,0.0,4149.0,6770.0,1224.0,-34.0,-165.0,-2.0,42.0,-42.0,-157.0,0.510638,0.846579,0.149728,8298.0,13550.0,2588.0,-28.0,1.0,9.0
2871.0,2843.0,2907.0,3159.0,3057.0,0.756775,0.578003,-0.301453,0.04718,-1.0,0.0,0.0,4126.0,6769.0,1225.0,-58.0,-164.0,-3.0,22.0,-34.0,-168.0,0.510804,0.846391,0.149973,8102.0,13520.0,2438.0,-7.0,12.0,17.0
2871.0,2839.0,2906.0,3155.0,3055.0,0.756775,0.578003,-0.301392,0.047668,1.0,2.0,1.0,4117.0,6793.0,1282.0,-71.0,-138.0,52.0,-20.0,-72.0,-145.0,0.511276,0.846102,0.150056,8154.0,13774.0,2750.0,36.0,48.0,33.0
2871.0,2832.0,2901.0,3147.0,3055.0,0.756836,0.578064,-0.301147,0.047974,1.0,2.0,0.0,4068.0,6840.0,1301.0,-120.0,-91.0,70.0,-87.0,-59.0,-127.0,0.511302,0.846105,0.150254,7788.0,13988.0,2660.0,34.0,61.0,14.0
2870.0,2831.0,2899.0,3141.0,3055.0,0.75708,0.578064,-0.300476,0.048096,-1.0,2.0,-1.0,4033.0,6909.0,1350.0,-149.0,-24.0,112.0,-156.0,-68.0,-79.0,0.510574,0.846378,0.15104,8020.0,13964.0,2848.0,-22.0,51.0,-14.0
2874.0,2839.0,2901.0,3153.0,3057.0,0.757385,0.577881,-0.30011,0.048035,-2.0,2.0,-2.0,4013.0,6898.0,1348.0,-165.0,-36.0,103.0,-160.0,-59.0,-98.0,0.510114,0.846526,0.151928,7890.0,13664.0,2638.0,-45.0,56.0,-30.0
2873.0,2837.0,2907.0,3155.0,3056.0,0.757935,0.577515,-0.299438,0.047852,-3.0,2.0,-2.0,4013.0,6800.0,1334.0,-158.0,-136.0,75.0,-101.0,-69.0,-184.0,0.509179,0.846779,0.153568,8026.0,13256.0,2646.0,-47.0,49.0,-30.0
2867.0,2833.0,2896.0,3139.0,3051.0,0.758118,0.577393,-0.299194,0.047852,-2.0,2.0,-2.0,4001.0,6732.0,1322.0,-167.0,-205.0,59.0,-74.0,-75.0,-249.0,0.508907,0.846829,0.154133,7920.0,13060.0,2538.0,-30.0,47.0,-24.0
2867.0,2832.0,2897.0,3139.0,3047.0,0.758362,0.577271,-0.298767,0.047913,-1.0,1.0,-1.0,3990.0,6682.0,1336.0,-175.0,-256.0,67.0,-62.0,-97.0,-295.0,0.508464,0.84693,0.154905,7962.0,13334.0,2796.0,0.0,30.0,-13.0
2871.0,2835.0,2903.0,3155.0,3055.0,0.758484,0.577209,-0.298584,0.047974,-1.0,1.0,-1.0,3977.0,6681.0,1338.0,-187.0,-257.0,65.0,-71.0,-92.0,-302.0,0.508324,0.84696,0.155276,7854.0,13368.0,2666.0,-10.0,32.0,-18.0
2871.0,2839.0,2907.0,3167.0,3056.0,0.758789,0.577087,-0.298096,0.047791,-2.0,0.0,-2.0,3913.0,6668.0,1311.0,-244.0,-272.0,31.0,-98.0,-51.0,-349.0,0.507542,0.847283,0.156154,7684.0,13248.0,2532.0,-30.0,20.0,-25.0
2869.0,2832.0,2898.0,3138.0,3047.0,0.758911,0.577026,-0.297913,0.047668,-2.0,0.0,-1.0,3918.0,6638.0,1304.0,-236.0,-304.0,21.0,-74.0,-55.0,-374.0,0.50719,0.847421,0.156507,7908.0,13046.0,2588.0,-23.0,10.0,-20.0
2871.0,2832.0,2898.0,3143.0,3051.0,0.758972,0.577087,-0.297668,0.047607,1.0,0.0,-2.0,3913.0,6588.0,1285.0,-238.0,-355.0,1.0,-47.0,-53.0,-421.0,0.506791,0.847644,0.156669,7798.0,13134.0,2564.0,29.0,14.0,-25.0
2871.0,2838.0,2903.0,3159.0,3055.0,0.75885,0.577271,-0.297485,0.047607,1.0,0.0,-2.0,3901.0,6594.0,1280.0,-247.0,-351.0,-1.0,-55.0,-47.0,-422.0,0.506458,0.847799,0.156381,7730.0,13260.0,2538.0,45.0,8.0,-24.0
2871.0,2839.0,2903.0,3153.0,3055.0,0.758606,0.57782,-0.297241,0.047485,2.0,-1.0,-2.0,3876.0,6648.0,1268.0,-267.0,-302.0,-5.0,-91.0,-21.0,-392.0,0.505854,0.848446,0.15551,7702.0,13474.0,2468.0,47.0,-2.0,-28.0
2867.0,2832.0,2899.0,3143.0,3053.0,0.758484,0.578003,-0.297119,0.047363,1.0,-1.0,-2.0,3864.0,6668.0,1254.0,-276.0,-284.0,-17.0,-101.0,-2.0,-383.0,0.505472,0.848667,0.155174,7648.0,13454.0,2410.0,39.0,-10.0,-28.0
2869.0,2831.0,2899.0,3147.0,3053.0,0.758179,0.57843,-0.297058,0.047058,1.0,-2.0,-1.0,3878.0,6697.0,1231.0,-258.0,-259.0,-32.0,-91.0,14.0,-355.0,0.504886,0.849149,0.154224,7894.0,13510.0,2426.0,36.0,-32.0,-14.0
2869.0,2839.0,2903.0,3153.0,3055.0,0.758057,0.578613,-0.297119,0.046997,1.0,-2.0,-1.0,3917.0,6712.0,1226.0,-218.0,-245.0,-33.0,-63.0,9.0,-323.0,0.504853,0.849316,0.153785,8068.0,13518.0,2400.0,36.0,-29.0,-13.0
2871.0,2836.0,2903.0,3155.0,3055.0,0.75769,0.579041,-0.297241,0.046814,1.0,-2.0,-1.0,3981.0,6758.0,1206.0,-153.0,-202.0,-44.0,-23.0,16.0,-255.0,0.504648,0.849637,0.152646,8182.0,13696.0,2366.0,40.0,-27.0,-13.0
2870.0,2832.0,2899.0,3143.0,3054.0,0.757507,0.579224,-0.297363,0.046753,1.0,-2.0,-1.0,3998.0,6797.0,1201.0,-136.0,-163.0,-44.0,-26.0,24.0,-213.0,0.504671,0.849727,0.152078,8050.0,13836.0,2394.0,28.0,-27.0,-8.0
2870.0,2832.0,2899.0,3141.0,3051.0,0.757385,0.579285,-0.297607,0.046326,-1.0,-3.0,-1.0,3994.0,6855.0,1209.0,-138.0,-107.0,-33.0,-55.0,33.0,-165.0,0.504478,0.84991,0.151638,8036.0,13808.0,2492.0,-19.0,-60.0,-3.0
2869.0,2839.0,2902.0,3153.0,3051.0,0.757385,0.579224,-0.297852,0.046082,-2.0,-3.0,0.0,4020.0,6841.0,1227.0,-113.0,-121.0,-14.0,-36.0,4.0,-161.0,0.50456,0.84994,0.15154,8248.0,13556.0,2586.0,-30.0,-65.0,2.0
2871.0,2839.0,2903.0,3167.0,3050.0,0.757324,0.579041,-0.298401,0.045837,0.0,-3.0,0.0,4067.0,6761.0,1245.0,-70.0,-199.0,5.0,23.0,-49.0,-203.0,0.505056,0.849687,0.15131,8294.0,13300.0,2586.0,4.0,-46.0,12.0
2870.0,2832.0,2899.0,3139.0,3050.0,0.757202,0.579041,-0.298645,0.045898,1.0,-2.0,0.0,4085.0,6747.0,1247.0,-55.0,-211.0,10.0,38.0,-62.0,-205.0,0.505423,0.849487,0.150985,8242.0,13466.0,2456.0,31.0,-32.0,18.0
2869.0,2832.0,2899.0,3141.0,3047.0,0.756897,0.579285,-0.299011,0.046021,1.0,-2.0,1.0,4078.0,6777.0,1247.0,-66.0,-181.0,17.0,14.0,-55.0,-184.0,0.505959,0.849396,0.150032,8138.0,13628.0,2488.0,34.0,-34.0,30.0
2869.0,2835.0,2903.0,3153.0,3055.0,0.756714,0.579285,-0.299255,0.046143,1.0,-2.0,1.0,4088.0,6787.0,1240.0,-60.0,-168.0,14.0,15.0,-50.0,-170.0,0.506361,0.849089,0.149621,8260.0,13624.0,2454.0,25.0,-37.0,38.0
2870.0,2839.0,2907.0,3159.0,3055.0,0.756592,0.579224,-0.299805,0.046326,-1.0,-2.0,1.0,4089.0,6806.0,1226.0,-67.0,-146.0,3.0,5.0,-31.0,-157.0,0.507325,0.848694,0.149194,8030.0,13656.0,2314.0,-6.0,-26.0,45.0
2866.0,2833.0,2898.0,3143.0,3095.0,0.756531,0.579102,-0.30011,0.046326,-1.0,-2.0,1.0,4077.0,6791.0,1195.0,-82.0,-159.0,-26.0,9.0,-5.0,-180.0,0.507739,0.848411,0.14906,8130.0,13462.0,2224.0,-22.0,-43.0,43.0
2870.0,2832.0,2914.0,3143.0,3053.0,0.75647,0.578857,-0.300659,0.046448,-1.0,-1.0,1.0,4109.0,6741.0,1175.0,-57.0,-204.0,-45.0,56.0,-9.0,-208.0,0.508652,0.847846,0.148932,8244.0,13366.0,2352.0,-14.0,-21.0,36.0
5.0,48.0,-111.0,0.503413,0.854451,0.127665,8074.0,13948.0,1810.0,-6.0,-7.0,7.0,,,,,,,,,,,,,,,,,,
2870.0,2827.0,2896.0,3155.0,3051.0,0.749023,0.591003,-0.294739,0.052551,-1.0,0.0,0.0,4038.0,6927.0,944.0,-87.0,-72.0,-101.0,-2.0,94.0,-118.0,0.503648,0.854373,0.127642,8032.0,13872.0,1808.0,-8.0,14.0,15.0
2874.0,2839.0,2907.0,3153.0,3055.0,0.749084,0.590942,-0.294678,0.052612,-1.0,1.0,0.0,4030.0,6932.0,947.0,-95.0,-66.0,-100.0,-11.0,97.0,-117.0,0.503659,0.854324,0.127848,8020.0,13916.0,1966.0,-10.0,29.0,13.0
2871.0,2838.0,2901.0,3152.0,3059.0,0.749329,0.590759,-0.294434,0.052795,-2.0,1.0,0.0,3968.0,6934.0,974.0,-157.0,-64.0,-79.0,-71.0,95.0,-143.0,0.503634,0.854256,0.128593,7710.0,13836.0,2016.0,-41.0,29.0,19.0
2867.0,2822.0,2895.0,3147.0,3043.0,0.749512,0.590515,-0.294373,0.052795,-3.0,0.0,0.0,3939.0,6899.0,989.0,-186.0,-97.0,-69.0,-85.0,84.0,-185.0,0.503624,0.854113,0.129192,7704.0,13538.0,2104.0,-49.0,18.0,21.0
2870.0,2827.0,2897.0,3151.0,3047.0,0.749756,0.590149,-0.294495,0.052856,-1.0,-1.0,1.0,3891.0,6819.0,1033.0,-237.0,-175.0,-31.0,-108.0,39.0,-272.0,0.503985,0.853803,0.129925,7666.0,13508.0,2198.0,-20.0,-5.0,30.0
2869.0,2839.0,2903.0,3143.0,3056.0,0.749817,0.590088,-0.294556,0.052917,-1.0,-1.0,1.0,3877.0,6818.0,1060.0,-253.0,-175.0,-5.0,-131.0,20.0,-277.0,0.504178,0.853741,0.130059,7684.0,13668.0,2292.0,-14.0,-6.0,27.0
2875.0,2837.0,2911.0,3155.0,3055.0,0.75,0.589844,-0.294556,0.052795,-2.0,-1.0,0.0,3837.0,6856.0,1081.0,-292.0,-137.0,11.0,-185.0,27.0,-262.0,0.504116,0.853663,0.130609,7558.0,13834.0,2258.0,-36.0,-9.0,21.0
2867.0,2825.0,2896.0,3151.0,3047.0,0.750122,0.589661,-0.294617,0.052734,-2.0,-1.0,1.0,3814.0,6859.0,1087.0,-316.0,-133.0,14.0,-207.0,32.0,-271.0,0.504188,0.853562,0.130965,7488.0,13712.0,2186.0,-44.0,-18.0,27.0
2871.0,2831.0,2895.0,3155.0,3051.0,0.750244,0.589233,-0.295044,0.052551,-2.0,-3.0,2.0,3808.0,6848.0,1100.0,-326.0,-140.0,23.0,-216.0,24.0,-280.0,0.50464,0.853128,0.131381,7696.0,13668.0,2274.0,-30.0,-46.0,49.0
2874.0,2837.0,2901.0,3155.0,3063.0,0.750305,0.589111,-0.295349,0.05249,-2.0,-3.0,2.0,3824.0,6852.0,1108.0,-313.0,-135.0,31.0,-210.0,15.0,-269.0,0.505049,0.853021,0.13143,7738.0,13738.0,2264.0,-25.0,-47.0,51.0
2871.0,2838.0,2898.0,3146.0,3058.0,0.750366,0.588684,-0.296021,0.052185,-3.0,-4.0,1.0,3848.0,6839.0,1119.0,-294.0,-145.0,40.0,-194.0,0.0,-267.0,0.505689,0.852562,0.131596,7838.0,13564.0,2198.0,-46.0,-79.0,37.0
2871.0,2829.0,2902.0,3150.0,3055.0,0.750427,0.58844,-0.296448,0.052002,-3.0,-4.0,1.0,3879.0,6801.0,1112.0,-267.0,-181.0,33.0,-154.0,-12.0,-285.0,0.506125,0.852331,0.131702,7950.0,13352.0,2160.0,-51.0,-85.0,31.0
2867.0,2831.0,2897.0,3147.0,3051.0,0.750366,0.588013,-0.297485,0.051575,-2.0,-5.0,1.0,3967.0,6683.0,1088.0,-187.0,-294.0,11.0,-31.0,-48.0,-343.0,0.507099,0.851764,0.131453,8278.0,13000.0,2026.0,-26.0,-107.0,34.0
2875.0,2835.0,2899.0,3149.0,3057.0,0.750183,0.587952,-0.298096,0.051453,0.0,-5.0,1.0,4034.0,6633.0,1073.0,-125.0,-342.0,0.0,44.0,-69.0,-354.0,0.507756,0.851467,0.130874,8460.0,13026.0,2006.0,10.0,-106.0,34.0
2870.0,2838.0,2903.0,3153.0,3047.0,0.749512,0.588196,-0.299316,0.051392,2.0,-5.0,1.0,4165.0,6655.0,992.0,-5.0,-316.0,-63.0,155.0,-36.0,-279.0,0.509139,0.850955,0.128844,8704.0,13560.0,1732.0,50.0,-92.0,38.0
2869.0,2833.0,2901.0,3152.0,3057.0,0.749207,0.588318,-0.299866,0.051453,1.0,-4.0,1.0,4219.0,6698.0,957.0,42.0,-270.0,-90.0,185.0,-11.0,-219.0,0.509864,0.850685,0.12792,8752.0,13632.0,1712.0,38.0,-76.0,36.0
2866.0,2831.0,2891.0,3151.0,3051.0,0.748718,0.58844,-0.300659,0.051575,0.0,-2.0,1.0,4250.0,6785.0,893.0,64.0,-179.0,-143.0,184.0,58.0,-137.0,0.510915,0.850139,0.126582,8550.0,13852.0,1662.0,1.0,-43.0,41.0
2865.0,2833.0,2903.0,3155.0,3051.0,0.748657,0.588379,-0.301025,0.051636,-2.0,-2.0,1.0,4240.0,6819.0,878.0,49.0,-143.0,-157.0,162.0,86.0,-116.0,0.511492,0.849901,0.126348,8376.0,13804.0,1672.0,-29.0,-33.0,43.0
2873.0,2835.0,2903.0,3153.0,3054.0,0.74884,0.587891,-0.301514,0.051575,-4.0,-1.0,1.0,4234.0,6804.0,878.0,37.0,-154.0,-161.0,159.0,89.0,-132.0,0.512212,0.849371,0.126896,8482.0,13394.0,1808.0,-70.0,-14.0,27.0
2866.0,2831.0,2899.0,3147.0,3047.0,0.749023,0.587585,-0.301697,0.051636,-3.0,0.0,1.0,4234.0,6744.0,885.0,34.0,-211.0,-158.0,180.0,70.0,-181.0,0.512637,0.849074,0.127425,8444.0,13100.0,1784.0,-64.0,4.0,28.0
2869.0,2830.0,2896.0,3150.0,3059.0,0.749146,0.587158,-0.302002,0.052063,-1.0,0.0,1.0,4226.0,6644.0,922.0,18.0,-305.0,-126.0,195.0,16.0,-265.0,0.513625,0.848288,0.12797,8472.0,13076.0,2008.0,-8.0,21.0,36.0
2870.0,2835.0,2906.0,3147.0,3049.0,0.749207,0.587097,-0.302002,0.052368,0.0,1.0,1.0,4216.0,6623.0,958.0,5.0,-324.0,-91.0,179.0,-17.0,-283.0,0.514014,0.848083,0.128165,8336.0,13160.0,2104.0,18.0,36.0,33.0
2869.0,2839.0,2906.0,3149.0,3053.0,0.749146,0.587158,-0.301941,0.052917,0.0,1.0,1.0,4152.0,6665.0,1004.0,-63.0,-279.0,-45.0,87.0,-26.0,-274.0,0.514537,0.847778,0.128096,8116.0,13472.0,2142.0,21.0,33.0,26.0
2871.0,2829.0,2896.0,3155.0,3053.0,0.749146,0.587158,-0.30188,0.053101,0.0,1.0,1.0,4117.0,6697.0,1021.0,-99.0,-247.0,-28.0,37.0,-22.0,-263.0,0.514661,0.847674,0.128152,8032.0,13602.0,2120.0,8.0,23.0,23.0
2871.0,2831.0,2899.0,3152.0,3051.0,0.749329,0.586975,-0.301758,0.053284,-2.0,0.0,0.0,4105.0,6732.0,1043.0,-112.0,-210.0,-11.0,4.0,-23.0,-237.0,0.514784,0.847517,0.128735,8208.0,13492.0,2152.0,-28.0,22.0,10.0
2871.0,2835.0,2903.0,3147.0,3055.0,0.749512,0.586792,-0.301636,0.053345,-2.0,1.0,0.0,4108.0,6719.0,1054.0,-108.0,-223.0,-5.0,10.0,-33.0,-245.0,0.514764,0.847434,0.129305,8240.0,13354.0,2146.0,-30.0,35.0,2.0
2878.0,2834.0,2905.0,3149.0,3056.0,0.749817,0.586609,-0.30127,0.053528,-1.0,2.0,-1.0,4088.0,6698.0,1062.0,-127.0,-244.0,-4.0,4.0,-36.0,-272.0,0.514594,0.847446,0.130217,8160.0,13368.0,2188.0,-7.0,49.0,-8.0
2867.0,2832.0,2899.0,3152.0,3051.0,0.749878,0.586609,-0.301025,0.053711,0.0,2.0,-1.0,4077.0,6710.0,1063.0,-137.0,-232.0,-5.0,-8.0,-29.0,-267.0,0.514479,0.847433,0.130475,8070.0,13508.0,2140.0,1.0,58.0,-5.0
2871.0,2832.0,2895.0,3151.0,3047.0,0.750061,0.586548,-0.300598,0.053955,-1.0,1.0,0.0,4043.0,6777.0,1072.0,-169.0,-165.0,-2.0,-65.0,-2.0,-226.0,0.514228,0.847456,0.131105,8080.0,13782.0,2266.0,-8.0,38.0,10.0
2865.0,2839.0,2902.0,3150.0,3056.0,0.750183,0.586487,-0.300415,0.054077,-1.0,1.0,0.0,4049.0,6806.0,1083.0,-163.0,-136.0,5.0,-75.0,-1.0,-198.0,0.514164,0.847454,0.131483,8122.0,13768.0,2246.0,-13.0,42.0,16.0
2871.0,2837.0,2903.0,3147.0,3054.0,0.750488,0.586243,-0.30011,0.054443,-1.0,2.0,0.0,4077.0,6837.0,1099.0,-136.0,-103.0,13.0,-71.0,-6.0,-155.0,0.514292,0.847259,0.13245,8226.0,13754.0,2188.0,-18.0,54.0,19.0
2867.0,2831.0,2898.0,3155.0,3051.0,0.75061,0.586121,-0.299927,0.054626,-1.0,2.0,0.0,4100.0,6848.0,1099.0,-113.0,-91.0,10.0,-56.0,-6.0,-133.0,0.514292,0.847129,0.132907,8344.0,13770.0,2196.0,-19.0,54.0,21.0
2869.0,2833.0,2896.0,3151.0,3056.0,0.750977,0.585815,-0.299622,0.055054,-2.0,2.0,1.0,4120.0,6871.0,1092.0,-94.0,-66.0,-6.0,-45.0,10.0,-105.0,0.51452,0.846877,0.134044,8300.0,13796.0,2162.0,-36.0,53.0,24.0
2866.0,2834.0,2906.0,3149.0,3055.0,0.75116,0.585571,-0.299561,0.055237,-3.0,2.0,1.0,4122.0,6877.0,1079.0,-94.0,-58.0,-24.0,-42.0,29.0,-100.0,0.514726,0.846622,0.134662,8244.0,13790.0,2046.0,-46.0,51.0,29.0
2867.0,2815.0,2903.0,3147.0,3056.0,0.751648,0.584961,-0.299438,0.055725,-3.0,2.0,2.0,4165.0,6856.0,1085.0,-56.0,-74.0,-31.0,-1.0,20.0,-95.0,0.515339,0.845997,0.136237,8452.0,13604.0,2262.0,-55.0,56.0,50.0
2867.0,2832.0,2901.0,3111.0,3050.0,0.751892,0.584656,-0.299377,0.056091,-3.0,2.0,2.0,4171.0,6831.0,1102.0,-54.0,-96.0,-20.0,5.0,2.0,-111.0,0.515787,0.845611,0.137039,8372.0,13516.0,2312.0,-51.0,63.0,58.0
2875.0,2831.0,2900.0,3151.0,3047.0,0.75238,0.583923,-0.299316,0.056946,-3.0,2.0,3.0,4166.0,6775.0,1145.0,-68.0,-143.0,8.0,3.0,-33.0,-154.0,0.516904,0.844575,0.138762,8266.0,13350.0,2444.0,-48.0,67.0,77.0
2875.0,2839.0,2899.0,3151.0,3056.0,0.752686,0.583557,-0.299316,0.057373,-3.0,2.0,3.0,4149.0,6744.0,1168.0,-90.0,-171.0,23.0,-7.0,-50.0,-187.0,0.517543,0.844125,0.139698,8190.0,13310.0,2446.0,-47.0,60.0,82.0
2871.0,2838.0,2903.0,3147.0,3055.0,0.753113,0.582764,-0.299622,0.05835,-2.0,1.0,4.0,4195.0,6682.0,1195.0,-59.0,-222.0,38.0,34.0,-88.0,-212.0,0.519306,0.842808,0.141197,8598.0,13196.0,2424.0,-41.0,41.0,97.0
2869.0,2829.0,2899.0,3152.0,3047.0,0.753296,0.582397,-0.299805,0.058838,-2.0,1.0,4.0,4214.0,6647.0,1201.0,-47.0,-251.0,38.0,57.0,-101.0,-230.0,0.520217,0.842155,0.141847,8488.0,13046.0,2420.0,-41.0,43.0,99.0
2871.0,2831.0,2899.0,3153.0,3051.0,0.753662,0.581482,-0.300354,0.059875,-3.0,1.0,4.0,4245.0,6537.0,1218.0,-34.0,-348.0,44.0,108.0,-141.0,-303.0,0.522364,0.840514,0.143258,8620.0,12620.0,2514.0,-59.0,28.0,111.0
2871.0,2832.0,2903.0,3151.0,3055.0,0.753906,0.580994,-0.300598,0.060425,-3.0,1.0,3.0,4265.0,6424.0,1241.0,-23.0,-454.0,60.0,158.0,-192.0,-384.0,0.523458,0.839702,0.144113,8682.0,12096.0,2624.0,-50.0,31.0,91.0
2871.0,2838.0,2903.0,3151.0,3055.0,0.754211,0.580261,-0.301025,0.061584,0.0,1.0,3.0,4274.0,6124.0,1256.0,-31.0,-742.0,65.0,278.0,-288.0,-628.0,0.525544,0.838202,0.145308,8526.0,11282.0,2560.0,11.0,44.0,69.0
2871.0,2833.0,2898.0,3151.0,3057.0,0.754211,0.580078,-0.301208,0.062195,2.0,1.0,1.0,4273.0,5957.0,1271.0,-40.0,-904.0,79.0,338.0,-350.0,-766.0,0.526505,0.837536,0.145486,8566.0,10910.0,2650.0,46.0,39.0,41.0
2869.0,2832.0,2905.0,3159.0,3047.0,0.754028,0.580261,-0.301147,0.063171,4.0,1.0,-3.0,4276.0,5555.0,1319.0,-44.0,-1301.0,129.0,493.0,-521.0,-1093.0,0.527459,0.837019,0.145156,8508.0,9780.0,2826.0,100.0,42.0,-51.0
2877.0,2835.0,2907.0,3147.0,3057.0,0.753906,0.580566,-0.300842,0.063416,5.0,1.0,-6.0,4256.0,5288.0,1382.0,-63.0,-1570.0,195.0,573.0,-661.0,-1319.0,0.527248,0.837229,0.144833,8354.0,8914.0,3170.0,130.0,43.0,-123.0
2875.0,2832.0,2907.0,3152.0,3059.0,0.753479,0.581787,-0.299622,0.063049,8.0,0.0,-14.0,4129.0,4657.0,1544.0,-170.0,-2215.0,368.0,705.0,-991.0,-1894.0,0.52488,0.838947,0.143456,7746.0,7340.0,3626.0,206.0,9.0,-304.0
2866.0,2831.0,2896.0,3151.0,3047.0,0.753174,0.582764,-0.298706,0.062317,10.0,-2.0,-18.0,4019.0,4314.0,1628.0,-262.0,-2572.0,462.0,749.0,-1161.0,-2233.0,0.522587,0.840616,0.142315,7350.0,6540.0,3756.0,244.0,-34.0,-409.0
2871.0,2832.0,2896.0,3153.0,3051.0,0.752075,0.585754,-0.296204,0.059021,14.0,-7.0,-30.0,3687.0,3616.0,1726.0,-529.0,-3315.0,593.0,788.0,-1423.0,-2995.0,0.514678,0.846098,0.138256,6160.0,5108.0,3620.0,337.0,-142.0,-682.0
2866.0,2834.0,2899.0,3151.0,3055.0,0.751099,0.588074,-0.294617,0.056213,18.0,-10.0,-37.0,3479.0,3268.0,1721.0,-688.0,-3697.0,617.0,796.0,-1501.0,-3410.0,0.508688,0.85028,0.134679,5714.0,4512.0,3350.0,416.0,-227.0,-844.0
2869.0,2833.0,2901.0,3147.0,3057.0,0.747986,0.594788,-0.290405,0.048523,28.0,-14.0,-52.0,3092.0,2773.0,1647.0,-939.0,-4285.0,633.0,776.0,-1557.0,-4075.0,0.49216,0.861603,0.12373,4892.0,4324.0,2778.0,642.0,-308.0,-1178.0
2871.0,2831.0,2897.0,3155.0,3053.0,0.745728,0.599365,-0.287537,0.043762,34.0,-15.0,-60.0,2851.0,2628.0,1580.0,-1091.0,-4488.0,628.0,697.0,-1518.0,-4351.0,0.481307,0.86876,0.116109,4198.0,4556.0,2702.0,791.0,-326.0,-1354.0
2867.0,2831.0,2896.0,3151.0,3055.0,0.73938,0.611328,-0.279968,0.032593,48.0,-18.0,-70.0,2150.0,2819.0,1452.0,-1567.0,-4437.0,668.0,164.0,-1265.0,-4577.0,0.453856,0.885758,0.095641,1710.0,7292.0,2482.0,1118.0,-406.0,-1594.0
2871.0,2832.0,2903.0,3154.0,3053.0,0.730835,0.625793,-0.271667,0.018555,54.0,-28.0,-75.0,1333.0,3770.0,1322.0,-2110.0,-3640.0,756.0,-743.0,-825.0,-4127.0,0.420311,0.904622,0.069043,244.0,10762.0,2048.0,1254.0,-621.0,-1715.0
2871.0,2835.0,2903.0,3152.0,3051.0,0.725891,0.633423,-0.2677,0.010498,55.0,-33.0,-77.0,925.0,4363.0,1153.0,-2367.0,-3124.0,709.0,-1186.0,-505.0,-3768.0,0.401942,0.913971,0.05414,-584.0,12426.0,1096.0,1275.0,-747.0,-1753.0
2869.0,2837.0,2899.0,3151.0,3056.0,0.715149,0.648743,-0.26001,-0.007935,52.0,-40.0,-83.0,437.0,5659.0,762.0,-2525.0,-1976.0,573.0,-1758.0,38.0,-2741.0,0.361596,0.932021,0.023029,-210.0,15058.0,216.0,1194.0,-903.0,-1900.0
2870.0,2829.0,2895.0,3149.0,3055.0,0.709778,0.656067,-0.255737,-0.017944,48.0,-39.0,-88.0,262.0,6184.0,480.0,-2519.0,-1520.0,412.0,-1875.0,319.0,-2281.0,0.339488,0.940502,0.008281,-530.0,15308.0,-884.0,1100.0,-888.0,-1996.0
2870.0,2833.0,2903.0,3151.0,3057.0,0.69928,0.669922,-0.246216,-0.038879,40.0,-38.0,-92.0,-146.0,7027.0,-156.0,-2540.0,-805.0,-1.0,-2001.0,897.0,-1511.0,0.292255,0.956071,-0.018914,-1840.0,16560.0,-2412.0,933.0,-870.0,-2086.0
2873.0,2828.0,2895.0,3147.0,3057.0,0.689087,0.681763,-0.237976,-0.061035,27.0,-50.0,-79.0,-867.0,7896.0,-964.0,-2871.0,-39.0,-612.0,-2263.0,1727.0,-714.0,0.244749,0.968637,-0.042867,-3500.0,18218.0,-4248.0,632.0,-1128.0,-1800.0
2875.0,2836.0,2911.0,3147.0,3055.0,0.684204,0.68634,-0.235535,-0.072021,22.0,-53.0,-71.0,-1051.0,8204.0,-1352.0,-2881.0,232.0,-916.0,-2197.0,2055.0,-369.0,0.223445,0.973121,-0.053217,-3086.0,18130.0,-5138.0,525.0,-1214.0,-1615.0
2874.0,2836.0,2899.0,3142.0,3055.0,0.673889,0.695312,-0.232056,-0.092285,27.0,-50.0,-64.0,-1180.0,8573.0,-2145.0,-2690.0,545.0,-1533.0,-1786.0,2582.0,152.0,0.184426,0.979958,-0.074666,-2458.0,18012.0,-6428.0,634.0,-1133.0,-1456.0
2875.0,2837.0,2907.0,3143.0,3055.0,0.661133,0.706238,-0.228271,-0.109436,45.0,-41.0,-62.0,-1210.0,8855.0,-2826.0,-2416.0,795.0,-1991.0,-1338.0,2871.0,629.0,0.14726,0.983796,-0.101807,-1892.0,18630.0,-7070.0,1041.0,-932.0,-1398.0
2871.0,2833.0,2898.0,3152.0,3054.0,0.653687,0.712585,-0.22644,-0.116394,53.0,-35.0,-57.0,-1174.0,9078.0,-3165.0,-2240.0,1014.0,-2196.0,-1107.0,2950.0,966.0,0.130161,0.984328,-0.1182,-2094.0,19680.0,-8262.0,1226.0,-795.0,-1288.0
2867.0,2827.0,2898.0,3151.0,3055.0,0.637939,0.726013,-0.223267,-0.126587,63.0,-24.0,-44.0,-973.0,9760.0,-3540.0,-1800.0,1708.0,-2278.0,-772.0,2708.0,1847.0,0.101054,0.98283,-0.153952,-1428.0,21788.0,-7974.0,1449.0,-531.0,-1007.0
2869.0,2832.0,2907.0,3157.0,3051.0,0.623718,0.737671,-0.221191,-0.133606,51.0,-20.0,-31.0,-877.0,10640.0,-3692.0,-1522.0,2617.0,-2166.0,-711.0,2290.0,2846.0,0.078808,0.979303,-0.186209,-1500.0,23874.0,-7414.0,1185.0,-450.0,-709.0
2871.0,2834.0,2911.0,3147.0,3055.0,0.618042,0.742065,-0.220337,-0.136719,42.0,-18.0,-29.0,-787.0,10989.0,-3648.0,-1355.0,2981.0,-2021.0,-683.0,1990.0,3221.0,0.069446,0.977504,-0.198542,-912.0,23854.0,-6934.0,974.0,-408.0,-652.0
2874.0,2837.0,2903.0,3143.0,3055.0,0.609558,0.748779,-0.217957,-0.142334,27.0,-12.0,-28.0,-547.0,11252.0,-3548.0,-977.0,3265.0,-1775.0,-493.0,1470.0,3515.0,0.052561,0.974894,-0.216355,-242.0,22746.0,-6714.0,637.0,-258.0,-631.0
2877.0,2835.0,2906.0,3151.0,3039.0,0.60321,0.754089,-0.214905,-0.145752,24.0,-1.0,-23.0,-205.0,11230.0,-3426.0,-528.0,3264.0,-1544.0,-201.0,984.0,3507.0,0.039446,0.972395,-0.229728,638.0,22346.0,-6466.0,564.0,-16.0,-508.0
2875.0,2832.0,2898.0,3154.0,3049.0,0.600403,0.756653,-0.21344,-0.146179,25.0,4.0,-18.0,-65.0,11196.0,-3344.0,-352.0,3241.0,-1408.0,-110.0,758.0,3467.0,0.035086,0.970994,-0.236228,542.0,22188.0,-6252.0,590.0,101.0,-396.0
2871.0,2837.0,2903.0,3151.0,3053.0,0.594482,0.761902,-0.211975,-0.145264,32.0,2.0,-5.0,-104.0,11184.0,-3301.0,-355.0,3258.0,-1245.0,-208.0,564.0,3453.0,0.030678,0.967459,-0.250917,-546.0,22558.0,-6764.0,745.0,52.0,-93.0
2873.0,2839.0,2899.0,3147.0,3051.0,0.590942,0.764526,-0.212708,-0.144775,36.0,-5.0,1.0,-53.0,11259.0,-3299.0,-298.0,3352.0,-1172.0,-221.0,427.0,3530.0,0.030027,0.965172,-0.259572,468.0,23058.0,-6580.0,828.0,-106.0,38.0
2867.0,2838.0,2907.0,3143.0,3058.0,0.583496,0.76947,-0.216919,-0.1427,40.0,-8.0,11.0,495.0,11640.0,-3318.0,220.0,3776.0,-1038.0,49.0,-91.0,3920.0,0.033536,0.959875,-0.278307,3056.0,24794.0,-6742.0,920.0,-167.0,268.0
2871.0,2834.0,2901.0,3149.0,3039.0,0.771484,-0.219666,-0.140625,0.002258,-5.0,16.0,848.0,11920.0,-3343.0,-19862.0,10150.0,-561.0,-24180.0,11568.0,-7835.0,-10364.0,0.215988,-0.339572,0.527165,4450.0,25794.0,-6806.0,700.0,13.0,529.0
2869.0,2833.0,2898.0,3155.0,3051.0,0.576416,0.773743,-0.22583,-0.134277,22.0,4.0,29.0,1489.0,12369.0,-3382.0,1058.0,4564.0,-929.0,458.0,-826.0,4681.0,0.052552,0.952643,-0.299391,4620.0,25778.0,-6872.0,522.0,107.0,667.0
2869.0,2832.0,2909.0,3159.0,3054.0,0.576355,0.773254,-0.232239,-0.125916,7.0,11.0,37.0,2019.0,12465.0,-3316.0,1421.0,4684.0,-827.0,602.0,-1094.0,4803.0,0.072974,0.949823,-0.303817,5428.0,24960.0,-6290.0,166.0,253.0,855.0
2871.0,2839.0,2902.0,3147.0,3057.0,0.577698,0.771973,-0.235657,-0.121338,-1.0,11.0,41.0,2235.0,12413.0,-3236.0,1539.0,4637.0,-753.0,631.0,-1173.0,4759.0,0.084938,0.949122,-0.303018,5796.0,24356.0,-5944.0,-22.0,273.0,953.0
2873.0,2835.0,2903.0,3149.0,3055.0,0.582642,0.767395,-0.243225,-0.111572,-15.0,13.0,49.0,2684.0,11978.0,-2958.0,1764.0,4207.0,-532.0,729.0,-1293.0,4345.0,0.112186,0.948507,-0.296134,6426.0,22318.0,-5056.0,-327.0,307.0,1125.0
2870.0,2831.0,2909.0,3153.0,3046.0,0.585754,0.764404,-0.247192,-0.106567,-18.0,13.0,51.0,2837.0,11681.0,-2837.0,1799.0,3913.0,-453.0,752.0,-1271.0,4069.0,0.126667,0.948192,-0.290953,6566.0,21552.0,-4964.0,-403.0,301.0,1174.0
2867.0,2831.0,2899.0,3155.0,3052.0,0.592957,0.757507,-0.255493,-0.096375,-26.0,15.0,54.0,3256.0,11166.0,-2547.0,1969.0,3403.0,-267.0,866.0,-1326.0,3608.0,0.156984,0.947584,-0.278209,7834.0,20912.0,-4202.0,-575.0,351.0,1250.0
2870.0,2832.0,2910.0,3158.0,3051.0,0.602112,0.74884,-0.26355,-0.085083,-36.0,20.0,59.0,3566.0,10674.0,-2373.0,2009.0,2919.0,-239.0,954.0,-1191.0,3207.0,0.189946,0.946618,-0.260443,8034.0,19698.0,-4210.0,-817.0,464.0,1372.0
2870.0,2835.0,2918.0,3151.0,3055.0,0.607361,0.743713,-0.267822,-0.079041,-41.0,21.0,63.0,3703.0,10354.0,-2278.0,2001.0,2606.0,-232.0,1003.0,-1098.0,2938.0,0.207763,0.945742,-0.249704,8162.0,18694.0,-4002.0,-936.0,503.0,1462.0
2871.0,2834.0,2902.0,3151.0,3056.0,0.618774,0.7323,-0.276428,-0.066162,-48.0,26.0,68.0,3960.0,9570.0,-2100.0,1951.0,1846.0,-253.0,1150.0,-879.0,2275.0,0.245192,0.942835,-0.225416,8624.0,16680.0,-3606.0,-1078.0,602.0,1575.0
2875.0,2843.0,2899.0,3143.0,3045.0,0.630981,0.719604,-0.285095,-0.052002,-53.0,30.0,73.0,4114.0,8735.0,-1952.0,1779.0,1052.0,-327.0,1259.0,-602.0,1558.0,0.284938,0.937765,-0.198268,8618.0,14950.0,-3430.0,-1204.0,706.0,1683.0
2871.0,2833.0,2895.0,3153.0,3051.0,0.637329,0.712769,-0.289307,-0.044556,-55.0,33.0,74.0,4190.0,8298.0,-1874.0,1689.0,644.0,-370.0,1330.0,-478.0,1185.0,0.305251,0.934317,-0.183564,8922.0,13952.0,-3162.0,-1257.0,758.0,1710.0
2873.0,2838.0,2903.0,3159.0,3051.0,0.650574,0.698181,-0.297302,-0.02887,-59.0,38.0,76.0,4293.0,7405.0,-1627.0,1454.0,-177.0,-383.0,1424.0,-321.0,398.0,0.346522,0.925603,-0.151766,8632.0,12124.0,-2270.0,-1348.0,887.0,1756.0
2875.0,2842.0,2909.0,3153.0,3051.0,0.657349,0.690491,-0.300964,-0.020996,-61.0,39.0,76.0,4197.0,6979.0,-1458.0,1193.0,-561.0,-353.0,1343.0,-238.0,-31.0,0.366682,0.920424,-0.134809,7648.0,11454.0,-1908.0,-1387.0,896.0,1741.0
2867.0,2833.0,2902.0,3157.0,3054.0,0.670959,0.674377,-0.307983,-0.006836,-67.0,34.0,71.0,4064.0,6269.0,-1010.0,753.0,-1178.0,-195.0,1170.0,-250.0,-747.0,0.404069,0.909171,-0.099405,7994.0,10532.0,-568.0,-1513.0,790.0,1644.0
2867.0,2835.0,2896.0,3147.0,3095.0,0.684998,0.657166,-0.31427,0.005737,-70.0,33.0,65.0,4049.0,5512.0,-650.0,460.0,-1833.0,-147.0,1202.0,-302.0,-1433.0,0.438089,0.896707,-0.061378,8212.0,8496.0,-536.0,-1603.0,756.0,1499.0
2867.0,2831.0,2883.0,3153.0,3047.0,0.69165,0.648682,-0.3172,0.01178,-68.0,33.0,62.0,4126.0,5089.0,-518.0,406.0,-2200.0,-166.0,1335.0,-358.0,-1766.0,0.454065,0.889849,-0.042884,8844.0,7686.0,-190.0,-1541.0,767.0,1442.0
2865.0,2829.0,2899.0,3154.0,3047.0,0.703979,0.63269,-0.321594,0.024658,-58.0,41.0,57.0,4334.0,4502.0,-286.0,369.0,-2665.0,-224.0,1563.0,-462.0,-2151.0,0.483994,0.874942,-0.007525,9322.0,7736.0,234.0,-1322.0,947.0,1320.0
2873.0,2839.0,2899.0,3143.0,3053.0,0.709839,0.625244,-0.322754,0.031494,-55.0,46.0,54.0,4430.0,4349.0,-149.0,353.0,-2756.0,-228.0,1609.0,-515.0,-2216.0,0.49759,0.867315,0.009763,9406.0,7914.0,628.0,-1242.0,1064.0,1254.0
2870.0,2835.0,2907.0,3143.0,3059.0,0.721313,0.610901,-0.322998,0.045349,-51.0,52.0,48.0,4439.0,4150.0,144.0,167.0,-2829.0,-223.0,1524.0,-557.0,-2333.0,0.521373,0.852007,0.044822,8580.0,7776.0,968.0,-1151.0,1214.0,1118.0
2867.0,2832.0,2899.0,3153.0,3056.0,0.726685,0.604126,-0.322754,0.052002,-48.0,50.0,47.0,4369.0,4065.0,220.0,11.0,-2852.0,-284.0,1451.0,-499.0,-2420.0,0.531912,0.84445,0.061636,8302.0,7620.0,878.0,-1091.0,1158.0,1089.0
2878.0,2836.0,2902.0,3153.0,3047.0,0.735779,0.59137,-0.323486,0.065186,-39.0,42.0,51.0,4317.0,3823.0,325.0,-214.0,-2960.0,-422.0,1417.0,-418.0,-2607.0,0.553126,0.828061,0.091258,8682.0,6822.0,916.0,-889.0,976.0,1177.0
2874.0,2839.0,2907.0,3151.0,3055.0,0.739258,0.585693,-0.324219,0.072083,-31.0,41.0,51.0,4343.0,3708.0,370.0,-275.0,-3003.0,-478.0,1435.0,-399.0,-2664.0,0.563799,0.819216,0.103543,8846.0,6786.0,960.0,-709.0,947.0,1176.0
2871.0,2839.0,2907.0,3141.0,3055.0,0.744568,0.576538,-0.325256,0.086182,-18.0,41.0,48.0,4376.0,3627.0,474.0,-405.0,-2946.0,-538.0,1376.0,-351.0,-2667.0,0.583725,0.802481,0.123621,8686.0,7178.0,1332.0,-390.0,950.0,1100.0
2867.0,2832.0,2896.0,3152.0,3043.0,0.746521,0.572815,-0.325256,0.093201,-12.0,41.0,45.0,4339.0,3631.0,551.0,-513.0,-2878.0,-530.0,1278.0,-333.0,-2660.0,0.592395,0.794609,0.132071,8450.0,7316.0,1608.0,-269.0,949.0,1045.0
2870.0,2833.0,2898.0,3155.0,3057.0,0.749695,0.566833,-0.32428,0.10675,-5.0,40.0,39.0,4168.0,3744.0,724.0,-806.0,-2651.0,-480.0,956.0,-278.0,-2629.0,0.607241,0.78067,0.14698,7414.0,7938.0,1816.0,-94.0,939.0,915.0
2867.0,2834.0,2901.0,3147.0,3054.0,0.750916,0.564514,-0.323547,0.112915,-2.0,36.0,37.0,4003.0,3814.0,800.0,-1021.0,-2532.0,-455.0,736.0,-234.0,-2657.0,0.613398,0.774738,0.153265,7018.0,8052.0,2078.0,-41.0,842.0,856.0
2867.0,2833.0,2896.0,3143.0,3055.0,0.752319,0.561157,-0.322205,0.12323,3.0,27.0,28.0,3662.0,3940.0,920.0,-1442.0,-2326.0,-410.0,315.0,-157.0,-2744.0,0.623104,0.764928,0.162457,6378.0,8196.0,2072.0,89.0,624.0,649.0
2877.0,2833.0,2903.0,3159.0,3053.0,0.752502,0.560364,-0.321594,0.12738,7.0,22.0,23.0,3545.0,3970.0,967.0,-1589.0,-2267.0,-385.0,174.0,-145.0,-2785.0,0.62676,0.761421,0.165055,6468.0,8096.0,2232.0,162.0,517.0,546.0
2867.0,2832.0,2895.0,3159.0,3051.0,0.751953,0.560364,-0.320129,0.134094,13.0,15.0,15.0,3304.0,4069.0,1001.0,-1871.0,-2131.0,-366.0,-104.0,-82.0,-2855.0,0.631728,0.75688,0.166924,5834.0,8540.0,2010.0,320.0,364.0,353.0
2875.0,2837.0,2906.0,3150.0,3057.0,0.751282,0.561157,-0.319275,0.136597,16.0,12.0,11.0,3194.0,4143.0,1008.0,-1991.0,-2049.0,-353.0,-240.0,-48.0,-2868.0,0.633035,0.755951,0.166249,5746.0,8736.0,2042.0,374.0,297.0,260.0
2871.0,2832.0,2902.0,3147.0,3055.0,0.749084,0.564697,-0.316833,0.139771,23.0,7.0,-1.0,2855.0,4281.0,763.0,-2326.0,-1923.0,-559.0,-500.0,246.0,-3018.0,0.632526,0.757444,0.161397,4976.0,8922.0,604.0,539.0,167.0,-15.0
2867.0,2830.0,2899.0,3155.0,3055.0,0.747437,0.567505,-0.315369,0.140503,27.0,5.0,-6.0,2760.0,4383.0,641.0,-2408.0,-1840.0,-644.0,-587.0,377.0,-3018.0,0.630908,0.759727,0.156883,4982.0,9518.0,710.0,631.0,128.0,-120.0
2871.0,2833.0,2896.0,3163.0,3055.0,0.74353,0.574646,-0.311584,0.140747,30.0,1.0,-10.0,2417.0,4939.0,354.0,-2703.0,-1342.0,-836.0,-1057.0,787.0,-2840.0,0.625104,0.766824,0.145344,4150.0,11886.0,130.0,702.0,32.0,-211.0
2871.0,2835.0,2907.0,3150.0,3055.0,0.741516,0.578247,-0.309875,0.140381,28.0,0.0,-9.0,2374.0,5267.0,319.0,-2720.0,-1045.0,-821.0,-1254.0,879.0,-2611.0,0.621905,0.770558,0.13916,4576.0,12466.0,522.0,659.0,13.0,-195.0
2874.0,2838.0,2899.0,3147.0,3056.0,0.737732,0.585266,-0.305969,0.139709,30.0,2.0,-11.0,2298.0,5697.0,243.0,-2739.0,-676.0,-802.0,-1506.0,991.0,-2312.0,0.614981,0.778045,0.127614,4496.0,12276.0,414.0,692.0,60.0,-240.0
2871.0,2831.0,2903.0,3163.0,3055.0,0.735596,0.589172,-0.303833,0.139465,34.0,2.0,-12.0,2255.0,5835.0,222.0,-2753.0,-571.0,-770.0,-1598.0,1001.0,-2222.0,0.611335,0.782037,0.121113,4256.0,12508.0,372.0,780.0,63.0,-257.0
2869.0,2832.0,2902.0,3158.0,3056.0,0.730469,0.597839,-0.299316,0.138977,40.0,0.0,-12.0,2196.0,6216.0,264.0,-2747.0,-257.0,-603.0,-1840.0,938.0,-1924.0,0.603454,0.79021,0.105897,4058.0,13806.0,632.0,920.0,8.0,-266.0
2866.0,2837.0,2928.0,3141.0,3057.0,0.727661,0.602478,-0.297241,0.138306,40.0,-5.0,-13.0,2151.0,6497.0,274.0,-2757.0,-12.0,-522.0,-2018.0,930.0,-1712.0,0.599234,0.794579,0.097287,4232.0,14754.0,716.0,922.0,-94.0,-282.0
2871.0,2839.0,2899.0,3147.0,3057.0,0.722107,0.611206,-0.294128,0.135498,33.0,-13.0,-15.0,2392.0,7153.0,320.0,-2444.0,574.0,-333.0,-2163.0,844.0,-1008.0,0.590419,0.803005,0.079714,5944.0,16330.0,674.0,773.0,-275.0,-324.0
2871.0,2835.0,2901.0,3155.0,3055.0,0.719604,0.615112,-0.29303,0.133545,29.0,-14.0,-16.0,2671.0,7447.0,332.0,-2129.0,835.0,-253.0,-2083.0,775.0,-591.0,0.586021,0.80701,0.071435,7104.0,16602.0,726.0,680.0,-315.0,-345.0
2869.0,2833.0,2903.0,3163.0,3055.0,0.715271,0.621826,-0.29126,0.129578,23.0,-14.0,-15.0,3284.0,7910.0,308.0,-1449.0,1241.0,-158.0,-1793.0,648.0,164.0,0.577809,0.814067,0.056903,8400.0,17016.0,396.0,547.0,-307.0,-323.0
2883.0,2835.0,2896.0,3143.0,3055.0,0.713257,0.624817,-0.290649,0.127747,22.0,-13.0,-14.0,3565.0,8067.0,248.0,-1139.0,1373.0,-163.0,-1616.0,619.0,459.0,0.574252,0.817051,0.050181,8744.0,17006.0,96.0,516.0,-292.0,-303.0
2843.0,2838.0,2902.0,3143.0,3059.0,0.709106,0.630493,-0.289856,0.124695,21.0,-13.0,-9.0,4028.0,8364.0,57.0,-627.0,1631.0,-244.0,-1324.0,637.0,975.0,0.568316,0.821886,0.036843,9454.0,17584.0,-474.0,500.0,-296.0,-199.0
2869.0,2832.0,2907.0,3159.0,3055.0,0.70697,0.633118,-0.289856,0.123535,21.0,-13.0,-6.0,4281.0,8501.0,-6.0,-357.0,1754.0,-253.0,-1172.0,607.0,1234.0,0.566264,0.823576,0.030213,10100.0,17794.0,-390.0,490.0,-279.0,-136.0
2877.0,2838.0,2911.0,3157.0,3047.0,0.703064,0.637329,-0.290649,0.122131,16.0,-13.0,0.0,4739.0,8687.0,-31.0,115.0,1927.0,-182.0,-906.0,457.0,1651.0,0.564366,0.825171,0.01855,10818.0,17696.0,208.0,383.0,-279.0,5.0
2871.0,2832.0,2903.0,3147.0,3057.0,0.701477,0.638794,-0.291443,0.121643,13.0,-13.0,2.0,4932.0,8691.0,4.0,309.0,1930.0,-109.0,-773.0,340.0,1765.0,0.564291,0.825295,0.01387,10948.0,17316.0,196.0,320.0,-278.0,46.0
2874.0,2835.0,2899.0,3143.0,3059.0,0.698853,0.640869,-0.293579,0.121033,9.0,-12.0,4.0,5242.0,8564.0,86.0,609.0,1808.0,35.0,-508.0,109.0,1835.0,0.565469,0.824681,0.006142,11258.0,16630.0,428.0,211.0,-263.0,96.0
2875.0,2839.0,2905.0,3163.0,3054.0,0.697937,0.641418,-0.294678,0.12085,6.0,-11.0,4.0,5324.0,8462.0,127.0,684.0,1710.0,98.0,-414.0,15.0,1796.0,0.566363,0.824116,0.003468,11034.0,16290.0,478.0,146.0,-241.0,105.0
2870.0,2837.0,2907.0,3155.0,3051.0,0.696899,0.641602,-0.296875,0.1203,-1.0,-9.0,4.0,5403.0,8197.0,192.0,748.0,1456.0,189.0,-253.0,-127.0,1623.0,0.568154,0.822835,0.000354,10988.0,15492.0,566.0,-3.0,-190.0,104.0
2871.0,2834.0,2899.0,3152.0,3055.0,0.696838,0.641235,-0.297852,0.120117,-4.0,-7.0,4.0,5396.0,8041.0,202.0,733.0,1306.0,201.0,-188.0,-157.0,1490.0,0.569156,0.822121,0.000114,10698.0,15116.0,446.0,-81.0,-147.0,108.0
2867.0,2835.0,2905.0,3143.0,3057.0,0.697632,0.639648,-0.299561,0.119629,-10.0,-5.0,4.0,5323.0,7711.0,213.0,645.0,986.0,195.0,-83.0,-176.0,1178.0,0.571007,0.820806,0.002115,10438.0,14434.0,484.0,-216.0,-99.0,92.0
2870.0,2837.0,2907.0,3159.0,3055.0,0.698425,0.63855,-0.300354,0.119324,-12.0,-4.0,3.0,5272.0,7526.0,209.0,586.0,806.0,175.0,-26.0,-169.0,997.0,0.571938,0.82028,0.004078,10216.0,13910.0,348.0,-268.0,-71.0,75.0
2871.0,2833.0,2911.0,3155.0,3054.0,0.700195,0.636169,-0.301392,0.118713,-13.0,-1.0,1.0,5112.0,7096.0,172.0,417.0,384.0,99.0,91.0,-123.0,554.0,0.57311,0.819327,0.008818,9684.0,12938.0,258.0,-278.0,-20.0,27.0
2875.0,2832.0,2902.0,3147.0,3051.0,0.70105,0.635132,-0.301697,0.118347,-12.0,-1.0,0.0,5008.0,6904.0,163.0,311.0,193.0,72.0,120.0,-104.0,337.0,0.573341,0.819108,0.011063,9372.0,12702.0,298.0,-256.0,-5.0,6.0
2867.0,2835.0,2903.0,3143.0,3053.0,0.702698,0.633301,-0.301941,0.117676,-10.0,0.0,-2.0,4829.0,6617.0,175.0,131.0,-92.0,48.0,140.0,-90.0,0.0,0.573395,0.818976,0.015394,9084.0,12496.0,388.0,-224.0,22.0,-28.0
2870.0,2833.0,2909.0,3167.0,3056.0,0.703552,0.632507,-0.30188,0.117371,-10.0,1.0,-2.0,4740.0,6503.0,170.0,43.0,-207.0,26.0,140.0,-69.0,-144.0,0.573252,0.81914,0.017565,8992.0,12330.0,310.0,-219.0,25.0,-33.0
2875.0,2839.0,2899.0,3159.0,3055.0,0.705017,0.630981,-0.30188,0.116821,-8.0,1.0,-2.0,4638.0,6242.0,181.0,-56.0,-468.0,5.0,209.0,-75.0,-415.0,0.573085,0.819173,0.021427,9000.0,11644.0,400.0,-179.0,28.0,-28.0
2869.0,2833.0,2899.0,3147.0,3055.0,0.705505,0.630371,-0.30188,0.116699,-6.0,1.0,-2.0,4607.0,6112.0,194.0,-87.0,-597.0,6.0,255.0,-93.0,-538.0,0.573083,0.819002,0.022857,9030.0,11464.0,498.0,-128.0,30.0,-26.0
2864.0,2837.0,2899.0,3143.0,3054.0,0.706116,0.629822,-0.301636,0.11676,-2.0,2.0,-3.0,4579.0,5991.0,232.0,-115.0,-718.0,30.0,291.0,-132.0,-653.0,0.573056,0.819016,0.024573,9088.0,11926.0,578.0,-31.0,55.0,-53.0
2877.0,2839.0,2903.0,3167.0,3055.0,0.70636,0.629761,-0.301208,0.11676,-1.0,2.0,-4.0,4551.0,6024.0,247.0,-139.0,-688.0,40.0,253.0,-132.0,-642.0,0.572585,0.819337,0.025252,8910.0,12310.0,616.0,-22.0,65.0,-77.0
2871.0,2835.0,2907.0,3159.0,3055.0,0.707031,0.629578,-0.300232,0.116272,-3.0,1.0,-6.0,4485.0,6110.0,265.0,-192.0,-611.0,44.0,167.0,-111.0,-609.0,0.570951,0.820445,0.026905,8794.0,12424.0,468.0,-60.0,44.0,-120.0
2870.0,2838.0,2899.0,3146.0,3053.0,0.707397,0.629517,-0.299683,0.115784,-4.0,1.0,-7.0,4478.0,6132.0,253.0,-189.0,-595.0,25.0,165.0,-91.0,-595.0,0.569765,0.82124,0.027716,8978.0,12376.0,432.0,-71.0,31.0,-143.0
2869.0,2837.0,2899.0,3143.0,3055.0,0.70813,0.629456,-0.298462,0.114685,-3.0,1.0,-8.0,4469.0,6181.0,222.0,-176.0,-561.0,-18.0,166.0,-46.0,-562.0,0.567078,0.823014,0.029307,8826.0,12542.0,316.0,-55.0,44.0,-175.0
2875.0,2837.0,2911.0,3165.0,3057.0,0.708435,0.629578,-0.297791,0.114075,-2.0,1.0,-8.0,4459.0,6224.0,202.0,-174.0,-526.0,-42.0,155.0,-17.0,-533.0,0.565568,0.824089,0.029846,8900.0,12736.0,300.0,-42.0,30.0,-172.0
2867.0,2839.0,2903.0,3157.0,3059.0,0.708862,0.629761,-0.296753,0.113098,-2.0,1.0,-6.0,4489.0,6349.0,197.0,-124.0,-415.0,-53.0,137.0,2.0,-414.0,0.563163,0.825703,0.030616,9038.0,13062.0,394.0,-31.0,27.0,-124.0
2874.0,2833.0,2899.0,3147.0,3051.0,0.709045,0.629822,-0.296387,0.112793,-1.0,0.0,-4.0,4496.0,6406.0,190.0,-111.0,-362.0,-63.0,121.0,18.0,-363.0,0.562382,0.826284,0.030947,9048.0,13154.0,366.0,-20.0,15.0,-90.0
2869.0,2835.0,2899.0,3149.0,3057.0,0.709106,0.629944,-0.295898,0.112488,0.0,1.0,-3.0,4524.0,6523.0,200.0,-74.0,-250.0,-54.0,88.0,22.0,-249.0,0.561369,0.826825,0.0311,9072.0,13446.0,390.0,4.0,23.0,-47.0
2869.0,2835.0,2898.0,3155.0,3056.0,0.709167,0.630005,-0.295654,0.112366,-1.0,1.0,-2.0,4509.0,6600.0,191.0,-86.0,-175.0,-64.0,42.0,48.0,-194.0,0.560919,0.827115,0.031227,8902.0,13672.0,344.0,-6.0,23.0,-33.0
2869.0,2835.0,2903.0,3155.0,3055.0,0.709534,0.629883,-0.295349,0.112061,-3.0,0.0,-1.0,4468.0,6683.0,204.0,-121.0,-97.0,-58.0,-29.0,63.0,-149.0,0.56029,0.827652,0.032012,8818.0,13394.0,406.0,-56.0,7.0,-19.0
2867.0,2837.0,2903.0,3149.0,3054.0,0.709717,0.6297,-0.295349,0.111938,-3.0,0.0,-1.0,4475.0,6670.0,203.0,-114.0,-110.0,-63.0,-15.0,64.0,-156.0,0.560204,0.827695,0.032475,9022.0,13228.0,386.0,-56.0,3.0,-8.0
2869.0,2832.0,2897.0,3147.0,3055.0,0.709961,0.629395,-0.295349,0.112,-2.0,1.0,1.0,4483.0,6616.0,198.0,-107.0,-163.0,-74.0,21.0,64.0,-197.0,0.560356,0.827533,0.03322,8942.0,13044.0,350.0,-28.0,25.0,23.0
2869.0,2835.0,2905.0,3157.0,3055.0,0.710022,0.629272,-0.295349,0.112244,-1.0,1.0,1.0,4473.0,6591.0,201.0,-120.0,-186.0,-73.0,23.0,61.0,-223.0,0.560672,0.827292,0.033515,8876.0,13052.0,436.0,-11.0,29.0,32.0
2871.0,2835.0,2903.0,3167.0,3056.0,0.710022,0.629089,-0.295532,0.112671,-1.0,0.0,2.0,4423.0,6583.0,227.0,-176.0,-189.0,-49.0,-26.0,49.0,-256.0,0.561429,0.826739,0.033733,8688.0,13160.0,576.0,-14.0,9.0,60.0
2870.0,2834.0,2901.0,3151.0,3054.0,0.710083,0.628906,-0.295715,0.112793,-2.0,-1.0,2.0,4394.0,6566.0,243.0,-208.0,-204.0,-35.0,-48.0,40.0,-286.0,0.561837,0.826442,0.033969,8644.0,13006.0,608.0,-23.0,-10.0,65.0
2871.0,2837.0,2902.0,3139.0,3055.0,0.710144,0.62854,-0.296265,0.113037,-1.0,-1.0,1.0,4390.0,6497.0,278.0,-221.0,-267.0,-2.0,-33.0,0.0,-344.0,0.562878,0.82573,0.034247,8792.0,12790.0,554.0,-18.0,-10.0,45.0
2871.0,2832.0,2903.0,3163.0,3058.0,0.710205,0.628418,-0.296387,0.113159,-1.0,0.0,1.0,4411.0,6459.0,283.0,-202.0,-303.0,0.0,0.0,-13.0,-363.0,0.563213,0.825534,0.034442,8978.0,12710.0,644.0,-10.0,3.0,29.0
2873.0,2839.0,2902.0,3159.0,3059.0,0.710327,0.628235,-0.296204,0.113586,-1.0,2.0,-1.0,4431.0,6432.0,314.0,-185.0,-328.0,26.0,20.0,-46.0,-374.0,0.563521,0.825215,0.035051,8786.0,12850.0,702.0,-6.0,55.0,-6.0
2868.0,2834.0,2897.0,3143.0,3055.0,0.71051,0.628174,-0.295898,0.113586,-1.0,2.0,-2.0,4403.0,6429.0,317.0,-210.0,-332.0,25.0,2.0,-41.0,-391.0,0.563182,0.825428,0.035568,8640.0,12820.0,688.0,-18.0,53.0,-34.0
2867.0,2835.0,2896.0,3143.0,3055.0,0.71106,0.628052,-0.295105,0.113342,-2.0,2.0,-4.0,4362.0,6434.0,337.0,-242.0,-334.0,34.0,-25.0,-43.0,-410.0,0.562044,0.826269,0.036916,8552.0,12902.0,618.0,-40.0,50.0,-84.0
2873.0,2837.0,2907.0,3166.0,3057.0,0.711304,0.627991,-0.294556,0.113037,-2.0,2.0,-5.0,4352.0,6434.0,326.0,-243.0,-339.0,18.0,-19.0,-29.0,-415.0,0.56101,0.826793,0.037595,8678.0,12864.0,568.0,-39.0,46.0,-99.0
2871.0,2839.0,2902.0,3159.0,3055.0,0.711548,0.628296,-0.29364,0.112549,1.0,1.0,-5.0,4374.0,6401.0,288.0,-207.0,-382.0,-23.0,42.0,-5.0,-432.0,0.559306,0.828027,0.037987,8862.0,12796.0,496.0,36.0,32.0,-94.0
2870.0,2835.0,2906.0,3146.0,3055.0,0.711365,0.628662,-0.293274,0.112488,3.0,1.0,-4.0,4396.0,6429.0,281.0,-180.0,-357.0,-25.0,51.0,-4.0,-397.0,0.558683,0.828437,0.037468,8894.0,13080.0,520.0,87.0,35.0,-79.0
2871.0,2834.0,2903.0,3143.0,3055.0,0.710754,0.629761,-0.29248,0.112488,5.0,0.0,-3.0,4403.0,6564.0,267.0,-163.0,-230.0,-25.0,-2.0,16.0,-282.0,0.557444,0.829409,0.035682,8838.0,13586.0,492.0,115.0,19.0,-50.0
2871.0,2837.0,2903.0,3159.0,3055.0,0.710449,0.630188,-0.292175,0.11261,4.0,1.0,-2.0,4411.0,6619.0,270.0,-152.0,-177.0,-16.0,-24.0,15.0,-232.0,0.557082,0.829629,0.034916,8822.0,13536.0,518.0,105.0,27.0,-32.0
2871.0,2839.0,2907.0,3159.0,3057.0,0.709839,0.631042,-0.291687,0.112854,4.0,0.0,-1.0,4360.0,6700.0,244.0,-199.0,-99.0,-28.0,-100.0,50.0,-193.0,0.556533,0.830041,0.033311,8634.0,13642.0,466.0,94.0,18.0,-8.0
2869.0,2832.0,2901.0,3143.0,3053.0,0.709595,0.631409,-0.291443,0.112915,3.0,0.0,-1.0,4352.0,6744.0,263.0,-204.0,-57.0,-4.0,-132.0,36.0,-160.0,0.556204,0.830272,0.032659,8686.0,13748.0,680.0,76.0,22.0,-7.0
2866.0,2835.0,2899.0,3143.0,3055.0,0.709473,0.631775,-0.290955,0.112976,0.0,0.0,-1.0,4306.0,6812.0,295.0,-245.0,6.0,30.0,-208.0,22.0,-130.0,0.5556,0.830712,0.032321,8490.0,13754.0,730.0,19.0,17.0,-16.0
2874.0,2837.0,2909.0,3163.0,3055.0,0.709534,0.631836,-0.290771,0.112854,-1.0,0.0,-1.0,4305.0,6817.0,314.0,-243.0,9.0,48.0,-213.0,5.0,-125.0,0.555235,0.830988,0.032409,8626.0,13648.0,710.0,0.0,5.0,-21.0
2871.0,2839.0,2910.0,3159.0,3057.0,0.709717,0.631836,-0.290527,0.11261,-1.0,0.0,-1.0,4350.0,6818.0,319.0,-193.0,7.0,50.0,-172.0,-6.0,-99.0,0.554686,0.831417,0.032756,8906.0,13616.0,696.0,-7.0,7.0,-10.0
2870.0,2833.0,2855.0,3143.0,3047.0,0.709778,0.631775,-0.290405,0.11261,-1.0,1.0,-1.0,4367.0,6818.0,332.0,-175.0,6.0,61.0,-160.0,-21.0,-90.0,0.554535,0.831435,0.032991,8782.0,13650.0,780.0,-9.0,23.0,-3.0
2867.0,2832.0,2899.0,3141.0,3046.0,0.710083,0.631592,-0.290039,0.112549,-2.0,0.0,-1.0,4343.0,6802.0,338.0,-195.0,-11.0,60.0,-167.0,-19.0,-115.0,0.554073,0.831678,0.033854,8594.0,13482.0,666.0,-34.0,21.0,-10.0
2892.0,2839.0,2909.0,3159.0,3059.0,0.710266,0.631409,-0.289978,0.112427,-2.0,0.0,-1.0,4332.0,6755.0,349.0,-205.0,-58.0,67.0,-152.0,-32.0,-159.0,0.553898,0.831734,0.034354,8598.0,13184.0,806.0,-43.0,10.0,-1.0
2871.0,2839.0,2913.0,3166.0,3057.0,0.710693,0.630981,-0.290039,0.112305,-2.0,-1.0,0.0,4307.0,6640.0,406.0,-231.0,-173.0,115.0,-126.0,-93.0,-267.0,0.553982,0.831723,0.035437,8530.0,12930.0,982.0,-42.0,-8.0,9.0
2870.0,2832.0,2901.0,3151.0,3055.0,0.710815,0.630798,-0.290039,0.112244,-2.0,-1.0,-1.0,4264.0,6584.0,394.0,-273.0,-228.0,100.0,-127.0,-80.0,-337.0,0.553935,0.831652,0.035828,8284.0,12828.0,678.0,-31.0,-17.0,-1.0
2871.0,2833.0,2903.0,3139.0,3055.0,0.710876,0.630676,-0.290405,0.111816,-1.0,-3.0,0.0,4280.0,6505.0,383.0,-257.0,-308.0,90.0,-69.0,-88.0,-395.0,0.553924,0.831722,0.03576,8698.0,12802.0,694.0,-10.0,-59.0,6.0
2871.0,2839.0,2909.0,3163.0,3057.0,0.710815,0.630615,-0.29071,0.111694,-1.0,-3.0,0.0,4312.0,6475.0,388.0,-227.0,-337.0,96.0,-32.0,-105.0,-402.0,0.554155,0.831561,0.035546,8838.0,12764.0,850.0,-5.0,-59.0,2.0
2873.0,2839.0,2910.0,3159.0,3061.0,0.710815,0.630615,-0.290771,0.111267,-1.0,-2.0,-2.0,4299.0,6471.0,331.0,-236.0,-343.0,40.0,-21.0,-50.0,-414.0,0.553703,0.831795,0.035415,8358.0,13024.0,284.0,-12.0,-36.0,-39.0
2871.0,2833.0,2901.0,3143.0,3055.0,0.710815,0.630676,-0.290955,0.110901,-2.0,-3.0,-2.0,4307.0,6474.0,288.0,-227.0,-342.0,0.0,-3.0,-13.0,-410.0,0.553515,0.832055,0.03515,8742.0,12914.0,334.0,-26.0,-67.0,-27.0
2869.0,2835.0,2899.0,3143.0,3055.0,0.710571,0.630798,-0.291382,0.110474,0.0,-2.0,-1.0,4402.0,6432.0,238.0,-132.0,-384.0,-43.0,106.0,0.0,-394.0,0.553468,0.832074,0.034306,9140.0,12756.0,380.0,13.0,-41.0,-12.0
2878.0,2864.0,2908.0,3159.0,3061.0,0.710388,0.630981,-0.291443,0.110474,1.0,-1.0,-2.0,4425.0,6449.0,207.0,-109.0,-367.0,-69.0,123.0,23.0,-368.0,0.553489,0.83209,0.033779,8936.0,13100.0,212.0,42.0,-9.0,-26.0
2877.0,2840.0,2897.0,3159.0,3055.0,0.710083,0.631348,-0.291382,0.110352,0.0,-1.0,-2.0,4459.0,6549.0,175.0,-72.0,-269.0,-94.0,108.0,57.0,-266.0,0.553151,0.83231,0.032892,9054.0,13340.0,346.0,20.0,-5.0,-26.0
2869.0,2833.0,2899.0,3138.0,3057.0,0.710083,0.63147,-0.291321,0.110291,0.0,0.0,-2.0,4474.0,6566.0,177.0,-56.0,-254.0,-91.0,113.0,54.0,-245.0,0.553014,0.832532,0.03276,9002.0,13168.0,360.0,5.0,3.0,-29.0
2871.0,2843.0,2907.0,3159.0,3055.0,0.710083,0.631531,-0.291199,0.110229,0.0,0.0,-2.0,4448.0,6571.0,177.0,-80.0,-250.0,-91.0,91.0,59.0,-255.0,0.552777,0.832681,0.032741,8630.0,13188.0,294.0,3.0,4.0,-37.0
2871.0,2839.0,2909.0,3165.0,3057.0,0.709839,0.631775,-0.29126,0.109802,0.0,-3.0,-1.0,4422.0,6582.0,172.0,-101.0,-241.0,-89.0,69.0,64.0,-259.0,0.552236,0.832955,0.031956,8958.0,13166.0,420.0,16.0,-48.0,-9.0
2867.0,2831.0,2896.0,3139.0,3055.0,0.709717,0.631897,-0.291443,0.109741,1.0,-2.0,-1.0,4450.0,6585.0,198.0,-75.0,-238.0,-60.0,80.0,31.0,-241.0,0.552374,0.832969,0.031508,9042.0,13194.0,542.0,31.0,-29.0,-2.0
2871.0,2834.0,2899.0,3139.0,3053.0,0.709412,0.632263,-0.291382,0.109863,2.0,-1.0,-1.0,4424.0,6622.0,225.0,-100.0,-202.0,-26.0,32.0,10.0,-224.0,0.552344,0.833045,0.030675,8712.0,13428.0,530.0,49.0,-1.0,-6.0
8640.0,12986.0,736.0,12.0,58.0,13.0,,,,,,,,,,,,,,,,,,,,,,,,
2845.0,2831.0,2899.0,3143.0,3047.0,0.711731,0.631653,-0.285889,0.112427,0.0,1.0,0.0,4310.0,6549.0,324.0,-187.0,-290.0,8.0,-2.0,-21.0,-344.0,0.548981,0.834851,0.038483,8404.0,13058.0,794.0,19.0,40.0,11.0
2871.0,2837.0,2903.0,3151.0,3051.0,0.711731,0.631653,-0.285767,0.112549,0.0,1.0,-1.0,4289.0,6547.0,358.0,-208.0,-291.0,41.0,-27.0,-49.0,-355.0,0.548961,0.834808,0.03858,8466.0,13082.0,920.0,11.0,24.0,-3.0
2870.0,2838.0,2910.0,3157.0,3055.0,0.711914,0.631592,-0.285522,0.112488,-1.0,0.0,-1.0,4264.0,6521.0,388.0,-230.0,-319.0,68.0,-38.0,-75.0,-389.0,0.548628,0.835043,0.039044,8464.0,12942.0,770.0,-6.0,6.0,-22.0
2866.0,2830.0,2897.0,3142.0,3053.0,0.711975,0.631653,-0.2854,0.112366,0.0,-1.0,-2.0,4261.0,6514.0,369.0,-231.0,-328.0,48.0,-29.0,-57.0,-398.0,0.548348,0.835304,0.039096,8522.0,13012.0,564.0,4.0,-1.0,-28.0
2869.0,2829.0,2897.0,3143.0,3051.0,0.711853,0.631836,-0.285217,0.112244,0.0,0.0,-1.0,4287.0,6562.0,322.0,-201.0,-282.0,4.0,-17.0,-13.0,-345.0,0.547905,0.835521,0.038768,8602.0,13294.0,488.0,18.0,2.0,-15.0
2871.0,2838.0,2909.0,3153.0,3058.0,0.711792,0.631958,-0.285156,0.112183,0.0,0.0,-1.0,4281.0,6605.0,299.0,-206.0,-240.0,-16.0,-38.0,14.0,-314.0,0.547733,0.835666,0.038548,8534.0,13492.0,444.0,21.0,4.0,-13.0
2871.0,2838.0,2907.0,3199.0,3055.0,0.711731,0.632141,-0.285034,0.112122,0.0,0.0,-1.0,4295.0,6673.0,275.0,-190.0,-174.0,-38.0,-53.0,44.0,-250.0,0.547489,0.835912,0.038285,8610.0,13492.0,484.0,7.0,2.0,-9.0
2869.0,2826.0,2899.0,3135.0,3047.0,0.71167,0.632202,-0.284973,0.112061,0.0,0.0,-1.0,4301.0,6695.0,279.0,-182.0,-153.0,-33.0,-59.0,41.0,-228.0,0.547303,0.83597,0.038142,8622.0,13520.0,600.0,4.0,3.0,-4.0
2869.0,2829.0,2897.0,3143.0,3045.0,0.711731,0.632202,-0.284973,0.112,-1.0,-1.0,0.0,4305.0,6719.0,306.0,-178.0,-130.0,-7.0,-75.0,19.0,-206.0,0.547261,0.836082,0.038216,8640.0,13520.0,668.0,-6.0,-7.0,4.0
2871.0,2839.0,2909.0,3152.0,3055.0,0.711731,0.632141,-0.284973,0.111938,-1.0,-1.0,0.0,4315.0,6720.0,323.0,-167.0,-128.0,9.0,-71.0,2.0,-198.0,0.54717,0.83603,0.038279,8706.0,13438.0,764.0,-9.0,-10.0,9.0
2875.0,2839.0,2905.0,3155.0,3059.0,0.711792,0.631958,-0.285217,0.111938,-1.0,-1.0,1.0,4349.0,6727.0,341.0,-136.0,-119.0,25.0,-55.0,-17.0,-172.0,0.547512,0.835792,0.038458,8872.0,13510.0,734.0,-13.0,-18.0,29.0
2870.0,2827.0,2893.0,3143.0,3039.0,0.711792,0.631897,-0.2854,0.112,-1.0,-1.0,1.0,4373.0,6732.0,327.0,-114.0,-113.0,12.0,-36.0,-8.0,-156.0,0.547836,0.835629,0.038445,8890.0,13480.0,572.0,-12.0,-15.0,31.0
2865.0,2823.0,2893.0,3143.0,3051.0,0.711792,0.631714,-0.285706,0.112183,-1.0,-1.0,1.0,4420.0,6758.0,303.0,-72.0,-83.0,-12.0,-12.0,11.0,-109.0,0.54846,0.835195,0.038543,8954.0,13652.0,512.0,-18.0,-1.0,39.0
2874.0,2837.0,2903.0,3153.0,3055.0,0.711853,0.631531,-0.285889,0.112366,-2.0,0.0,2.0,4441.0,6773.0,295.0,-55.0,-66.0,-22.0,-4.0,20.0,-86.0,0.548946,0.834866,0.038797,8972.0,13618.0,536.0,-29.0,8.0,48.0
2867.0,2823.0,2896.0,3143.0,3047.0,0.711975,0.631348,-0.286011,0.112549,-2.0,0.0,2.0,4437.0,6789.0,269.0,-63.0,-48.0,-51.0,-12.0,53.0,-76.0,0.54938,0.834627,0.039174,8830.0,13696.0,372.0,-40.0,14.0,52.0
2867.0,2828.0,2896.0,3135.0,3091.0,0.71228,0.630798,-0.286377,0.112854,-3.0,1.0,2.0,4474.0,6779.0,258.0,-34.0,-52.0,-70.0,18.0,64.0,-64.0,0.550338,0.833973,0.040161,9070.0,13458.0,502.0,-66.0,29.0,57.0
2871.0,2839.0,2907.0,3155.0,3057.0,0.712463,0.630432,-0.286438,0.113159,-3.0,2.0,2.0,4485.0,6753.0,258.0,-27.0,-74.0,-77.0,37.0,66.0,-79.0,0.550831,0.833493,0.040918,9002.0,13360.0,478.0,-64.0,46.0,54.0
2869.0,2895.0,2907.0,3154.0,3055.0,0.712891,0.629761,-0.286621,0.113831,-3.0,2.0,2.0,4496.0,6715.0,261.0,-26.0,-106.0,-86.0,57.0,68.0,-106.0,0.552031,0.832649,0.04242,9032.0,13342.0,586.0,-50.0,48.0,66.0
2867.0,2830.0,2896.0,3143.0,3047.0,0.713013,0.629456,-0.286743,0.114197,-2.0,2.0,3.0,4493.0,6713.0,270.0,-34.0,-103.0,-82.0,48.0,67.0,-108.0,0.552667,0.832129,0.042992,8970.0,13440.0,586.0,-42.0,51.0,73.0
2867.0,2827.0,2891.0,3143.0,3047.0,0.713379,0.628845,-0.286926,0.115051,-3.0,3.0,3.0,4509.0,6731.0,326.0,-29.0,-78.0,-37.0,27.0,27.0,-82.0,0.554073,0.831187,0.044373,9038.0,13552.0,828.0,-47.0,69.0,75.0
2874.0,2839.0,2903.0,3154.0,3059.0,0.713684,0.628418,-0.286865,0.115479,-3.0,3.0,2.0,4499.0,6753.0,349.0,-44.0,-52.0,-23.0,-2.0,21.0,-68.0,0.5546,0.83073,0.045479,8934.0,13620.0,808.0,-64.0,80.0,68.0
2871.0,2839.0,2909.0,3154.0,3059.0,0.714539,0.627441,-0.28656,0.11615,-5.0,3.0,2.0,4450.0,6762.0,376.0,-98.0,-38.0,-19.0,-54.0,30.0,-86.0,0.555271,0.830094,0.048257,8664.0,13506.0,734.0,-109.0,90.0,46.0
2865.0,2829.0,2899.0,3143.0,3047.0,0.715088,0.626892,-0.286438,0.116333,-6.0,3.0,1.0,4421.0,6733.0,385.0,-129.0,-65.0,-23.0,-64.0,34.0,-126.0,0.555513,0.829921,0.049844,8672.0,13250.0,800.0,-121.0,78.0,38.0
