flex_1,flex_2,flex_3,flex_4,flex_5,Qw,Qx,Qy,Qz,GYRx,GYRy,GYRz,ACCx,ACCy,ACCz,ACCx_real,ACCy_real,ACCz_real,ACCx_world,ACCy_world,ACCz_world,GRAx,GRAy,GRAz,ACCx_raw,ACCy_raw,ACCz_raw,GYRx_raw,GYRy_raw,GYRz_raw
2851.0,2787.0,2851.0,3071.0,3003.0,1.0,0.0,0.0,0.0,0.0,0.0,0.0,0.0,0.0,0.0,0.0,0.0,0.0,0.0,0.0,0.0,0.0,0.0,0.0,0.0,0.0,0.0,0.0,0.0,0.0
2851.0,2777.0,2846.0,3093.0,3007.0,0.870728,0.184265,-0.455688,0.014221,0.0,-1.0,0.0,7315.0,2839.0,1199.0,771.0,316.0,-3034.0,2781.0,1196.0,-854.0,0.798802,0.307929,0.516763,14656.0,5702.0,2400.0,4.0,-8.0,4.0
2855.0,2773.0,2823.0,3091.0,3003.0,0.869263,0.18512,-0.458069,0.014221,-1.0,-1.0,0.0,7308.0,2820.0,1202.0,741.0,290.0,-2990.0,2738.0,1163.0,-846.0,0.80163,0.308807,0.511724,14606.0,5554.0,2416.0,-8.0,-12.0,5.0
2853.0,2779.0,2854.0,3099.0,3003.0,0.86853,0.185486,-0.45929,0.01416,-1.0,-1.0,0.0,7302.0,2801.0,1196.0,723.0,268.0,-2975.0,2723.0,1141.0,-851.0,0.803067,0.309193,0.509193,14552.0,5502.0,2378.0,-14.0,-12.0,7.0
2861.0,2783.0,2854.0,3095.0,3005.0,0.867126,0.186279,-0.46167,0.014099,-1.0,-1.0,-1.0,7297.0,2782.0,1200.0,695.0,242.0,-2930.0,2681.0,1107.0,-842.0,0.805905,0.310037,0.504268,14590.0,5516.0,2382.0,-10.0,-6.0,-4.0
2863.0,2779.0,2847.0,3095.0,2999.0,0.866455,0.186707,-0.462769,0.014038,-1.0,-1.0,-1.0,7294.0,2781.0,1198.0,681.0,236.0,-2913.0,2663.0,1098.0,-839.0,0.807178,0.310553,0.501927,14580.0,5544.0,2366.0,-6.0,0.0,-5.0
2859.0,2779.0,2850.0,3095.0,2999.0,0.865112,0.187622,-0.464905,0.014038,0.0,0.0,-1.0,7284.0,2786.0,1180.0,651.0,233.0,-2893.0,2634.0,1095.0,-838.0,0.809657,0.311576,0.497278,14508.0,5592.0,2304.0,5.0,9.0,-6.0
2861.0,2783.0,2858.0,3091.0,3007.0,0.864441,0.18811,-0.465942,0.014038,0.0,0.0,0.0,7280.0,2793.0,1183.0,637.0,235.0,-2871.0,2610.0,1093.0,-831.0,0.810841,0.312139,0.494967,14554.0,5628.0,2386.0,5.0,10.0,1.0
2861.0,2783.0,2854.0,3099.0,3007.0,0.863159,0.188965,-0.468018,0.014038,-1.0,0.0,0.0,7278.0,2816.0,1185.0,615.0,251.0,-2833.0,2568.0,1100.0,-810.0,0.813253,0.313073,0.490493,14540.0,5698.0,2452.0,-5.0,11.0,5.0
2858.0,2778.0,2859.0,3099.0,3010.0,0.862549,0.189331,-0.468994,0.014038,-1.0,0.0,0.0,7276.0,2823.0,1200.0,604.0,255.0,-2800.0,2537.0,1095.0,-795.0,0.814376,0.313447,0.488386,14522.0,5668.0,2484.0,-15.0,11.0,0.0
2859.0,2779.0,2837.0,3091.0,3001.0,0.861328,0.190002,-0.470947,0.013794,-2.0,0.0,-1.0,7262.0,2819.0,1210.0,573.0,244.0,-2756.0,2490.0,1075.0,-789.0,0.816522,0.314316,0.484184,14506.0,5600.0,2422.0,-28.0,3.0,-8.0
2853.0,2786.0,2853.0,3099.0,3007.0,0.860657,0.190308,-0.471985,0.013672,-2.0,-1.0,-1.0,7262.0,2809.0,1208.0,563.0,231.0,-2739.0,2475.0,1058.0,-786.0,0.817638,0.314673,0.48193,14534.0,5552.0,2376.0,-30.0,-1.0,-7.0
2855.0,2781.0,2847.0,3099.0,3007.0,0.859436,0.190857,-0.47406,0.01355,-1.0,0.0,0.0,7267.0,2780.0,1183.0,549.0,197.0,-2729.0,2471.0,1026.0,-791.0,0.820021,0.315212,0.477655,14540.0,5484.0,2278.0,-22.0,3.0,3.0
2851.0,2785.0,2837.0,3089.0,3002.0,0.858765,0.191162,-0.475098,0.01355,-1.0,0.0,0.0,7266.0,2772.0,1162.0,538.0,187.0,-2732.0,2471.0,1020.0,-798.0,0.821175,0.315452,0.4754,14510.0,5486.0,2176.0,-10.0,7.0,9.0
2855.0,2780.0,2852.0,3091.0,3003.0,0.857544,0.191895,-0.477112,0.013672,0.0,0.0,0.0,7263.0,2777.0,1146.0,516.0,187.0,-2713.0,2448.0,1019.0,-794.0,0.823536,0.31607,0.471109,14478.0,5550.0,2274.0,1.0,12.0,14.0
2861.0,2786.0,2859.0,3099.0,3011.0,0.856873,0.192261,-0.478027,0.013733,-1.0,0.0,0.0,7257.0,2773.0,1155.0,502.0,181.0,-2686.0,2421.0,1007.0,-788.0,0.824498,0.316356,0.468945,14464.0,5506.0,2374.0,0.0,12.0,9.0
2861.0,2787.0,2851.0,3095.0,2999.0,0.855713,0.192993,-0.479919,0.013733,-1.0,0.0,0.0,7255.0,2758.0,1166.0,483.0,160.0,-2642.0,2382.0,977.0,-778.0,0.826647,0.317112,0.464864,14550.0,5444.0,2368.0,-8.0,8.0,3.0
2859.0,2781.0,2853.0,3094.0,3013.0,0.855103,0.193298,-0.480896,0.013733,-1.0,0.0,-1.0,7253.0,2735.0,1173.0,472.0,135.0,-2617.0,2363.0,947.0,-777.0,0.82774,0.317372,0.462764,14500.0,5344.0,2406.0,-7.0,5.0,-1.0
2859.0,2781.0,2847.0,3093.0,2999.0,0.853882,0.193909,-0.482788,0.013733,-1.0,-1.0,-1.0,7258.0,2732.0,1189.0,460.0,127.0,-2567.0,2321.0,926.0,-755.0,0.829814,0.31789,0.458618,14516.0,5570.0,2398.0,-12.0,-3.0,-2.0
2862.0,2787.0,2854.0,3101.0,3007.0,0.853271,0.194214,-0.483765,0.013611,-1.0,-1.0,-1.0,7263.0,2746.0,1194.0,456.0,138.0,-2545.0,2300.0,929.0,-739.0,0.830852,0.318265,0.45651,14584.0,5544.0,2396.0,-21.0,-8.0,-3.0
2859.0,2774.0,2855.0,3091.0,3011.0,0.852051,0.194763,-0.485718,0.013611,-1.0,0.0,0.0,7293.0,2738.0,1173.0,468.0,127.0,-2532.0,2302.0,913.0,-714.0,0.833014,0.318674,0.452321,14678.0,5424.0,2210.0,-7.0,8.0,15.0
2859.0,2779.0,2851.0,3095.0,3007.0,0.85144,0.195068,-0.486633,0.013733,0.0,0.0,0.0,7300.0,2743.0,1157.0,467.0,131.0,-2531.0,2301.0,917.0,-708.0,0.834036,0.318812,0.450276,14632.0,5526.0,2194.0,15.0,14.0,18.0
2855.0,2783.0,2843.0,3094.0,3003.0,0.85022,0.195984,-0.488342,0.014038,0.0,1.0,0.0,7311.0,2788.0,1161.0,463.0,170.0,-2494.0,2262.0,944.0,-671.0,0.835899,0.319548,0.446183,14646.0,5696.0,2424.0,21.0,23.0,21.0
2855.0,2783.0,2859.0,3103.0,3011.0,0.84967,0.19635,-0.489136,0.01416,0.0,1.0,0.0,7308.0,2799.0,1178.0,453.0,179.0,-2461.0,2229.0,944.0,-657.0,0.836769,0.319813,0.444333,14592.0,5636.0,2426.0,14.0,30.0,22.0
2859.0,2783.0,2853.0,3103.0,3007.0,0.848633,0.197021,-0.490723,0.014465,0.0,1.0,1.0,7287.0,2801.0,1209.0,417.0,177.0,-2401.0,2163.0,929.0,-651.0,0.838587,0.320201,0.440761,14500.0,5604.0,2568.0,4.0,28.0,25.0
2858.0,2783.0,2847.0,3095.0,3007.0,0.848083,0.197327,-0.491455,0.014587,-1.0,1.0,1.0,7277.0,2798.0,1220.0,401.0,173.0,-2376.0,2136.0,920.0,-651.0,0.839347,0.320361,0.438993,14512.0,5600.0,2474.0,-1.0,26.0,23.0
2855.0,2779.0,2843.0,3091.0,3005.0,0.847107,0.197815,-0.492981,0.014832,-1.0,1.0,1.0,7273.0,2779.0,1255.0,382.0,153.0,-2313.0,2080.0,885.0,-637.0,0.841083,0.320517,0.435649,14530.0,5486.0,2644.0,-3.0,28.0,26.0
2859.0,2783.0,2862.0,3103.0,3007.0,0.846619,0.19812,-0.493713,0.014954,0.0,1.0,1.0,7268.0,2766.0,1268.0,371.0,138.0,-2287.0,2057.0,864.0,-635.0,0.841899,0.320699,0.433982,14518.0,5450.0,2564.0,4.0,28.0,24.0
2863.0,2789.0,2855.0,3088.0,3006.0,0.845581,0.19873,-0.495239,0.01532,0.0,0.0,1.0,7256.0,2756.0,1273.0,345.0,127.0,-2253.0,2020.0,849.0,-638.0,0.843619,0.320911,0.430486,14456.0,5542.0,2548.0,20.0,14.0,32.0
2859.0,2783.0,2849.0,3101.0,3007.0,0.845032,0.199036,-0.496033,0.015564,0.0,0.0,1.0,7247.0,2762.0,1271.0,328.0,132.0,-2240.0,2000.0,853.0,-640.0,0.844522,0.320942,0.428657,14434.0,5552.0,2518.0,20.0,6.0,36.0
2851.0,2781.0,2847.0,3095.0,2995.0,0.843872,0.199707,-0.497681,0.01593,0.0,0.0,1.0,7228.0,2765.0,1261.0,294.0,133.0,-2219.0,1967.0,854.0,-651.0,0.84632,0.321198,0.424805,14394.0,5538.0,2478.0,15.0,5.0,34.0
2843.0,2787.0,2859.0,3095.0,2999.0,0.843323,0.200012,-0.498474,0.016113,0.0,0.0,1.0,7217.0,2762.0,1255.0,276.0,130.0,-2209.0,1952.0,852.0,-658.0,0.847195,0.321286,0.422972,14394.0,5510.0,2460.0,14.0,1.0,34.0
2863.0,2783.0,2855.0,3095.0,3013.0,0.842224,0.200562,-0.500122,0.016479,0.0,0.0,1.0,7202.0,2746.0,1255.0,246.0,113.0,-2179.0,1918.0,833.0,-668.0,0.84904,0.321352,0.419266,14356.0,5422.0,2486.0,8.0,1.0,36.0
2858.0,2779.0,2864.0,3089.0,3013.0,0.841675,0.200806,-0.500916,0.016663,0.0,-1.0,1.0,7198.0,2732.0,1256.0,235.0,99.0,-2163.0,1903.0,817.0,-671.0,0.849908,0.321333,0.417455,14340.0,5372.0,2508.0,9.0,0.0,37.0
2854.0,2783.0,2843.0,3099.0,3006.0,0.840637,0.201294,-0.502502,0.016968,0.0,-1.0,1.0,7174.0,2718.0,1274.0,197.0,85.0,-2116.0,1851.0,796.0,-680.0,0.851676,0.321378,0.413931,14278.0,5394.0,2650.0,6.0,-1.0,34.0
2863.0,2781.0,2864.0,3099.0,3007.0,0.840088,0.201477,-0.503296,0.01709,-1.0,-1.0,1.0,7158.0,2721.0,1282.0,174.0,88.0,-2094.0,1821.0,795.0,-686.0,0.852512,0.321314,0.41214,14208.0,5484.0,2600.0,-1.0,-5.0,32.0
2850.0,2786.0,2847.0,3101.0,2999.0,0.83905,0.201782,-0.504883,0.017151,-2.0,-1.0,0.0,7112.0,2710.0,1295.0,114.0,77.0,-2052.0,1762.0,781.0,-716.0,0.854166,0.321293,0.408677,14070.0,5346.0,2606.0,-28.0,-17.0,19.0
2859.0,2783.0,2837.0,3091.0,3011.0,0.838562,0.201904,-0.505676,0.01709,-2.0,-1.0,0.0,7097.0,2685.0,1296.0,92.0,52.0,-2038.0,1747.0,756.0,-734.0,0.854983,0.321335,0.407005,14132.0,5194.0,2608.0,-33.0,-22.0,12.0
2859.0,2794.0,2839.0,3099.0,3003.0,0.837463,0.202148,-0.507385,0.017029,-1.0,-2.0,0.0,7064.0,2625.0,1264.0,45.0,-7.0,-2040.0,1743.0,711.0,-786.0,0.856718,0.321303,0.403331,14086.0,5062.0,2384.0,-13.0,-32.0,9.0
2863.0,2794.0,2867.0,3103.0,3015.0,0.836853,0.202393,-0.508301,0.017029,0.0,-2.0,0.0,7055.0,2606.0,1238.0,29.0,-27.0,-2049.0,1749.0,699.0,-806.0,0.857639,0.321434,0.401281,14060.0,5120.0,2292.0,7.0,-40.0,7.0
2863.0,2795.0,2863.0,3099.0,3007.0,0.835571,0.203186,-0.510132,0.017029,1.0,-3.0,-1.0,7037.0,2616.0,1205.0,-3.0,-23.0,-2046.0,1734.0,709.0,-822.0,0.859423,0.322179,0.39695,14014.0,5312.0,2396.0,24.0,-57.0,-5.0
2851.0,2775.0,2858.0,3111.0,3011.0,0.834839,0.203552,-0.511108,0.016968,0.0,-3.0,-1.0,7016.0,2631.0,1207.0,-31.0,-11.0,-2025.0,1701.0,718.0,-829.0,0.860294,0.322522,0.394579,13892.0,5346.0,2442.0,17.0,-67.0,-13.0
2861.0,2789.0,2853.0,3095.0,3014.0,0.833496,0.204285,-0.513062,0.016357,-2.0,-4.0,-2.0,6945.0,2618.0,1223.0,-116.0,-34.0,-1972.0,1626.0,694.0,-880.0,0.861953,0.323756,0.390019,13680.0,5032.0,2486.0,-24.0,-90.0,-43.0
2853.0,2769.0,2838.0,3103.0,3011.0,0.832825,0.204529,-0.514099,0.015991,-1.0,-5.0,-3.0,6897.0,2561.0,1216.0,-171.0,-95.0,-1960.0,1607.0,644.0,-938.0,0.86285,0.324231,0.387723,13480.0,4746.0,2374.0,-18.0,-105.0,-54.0
2859.0,2775.0,2843.0,3071.0,2987.0,0.831177,0.205505,-0.516357,0.015259,2.0,-7.0,-5.0,6805.0,2425.0,1187.0,-278.0,-244.0,-1944.0,1584.0,523.0,-1062.0,0.86464,0.325865,0.38223,13288.0,4468.0,2298.0,53.0,-143.0,-93.0
2853.0,2773.0,2867.0,3103.0,3007.0,0.830261,0.20636,-0.517578,0.014893,4.0,-8.0,-6.0,6747.0,2390.0,1170.0,-343.0,-290.0,-1935.0,1561.0,492.0,-1125.0,0.865597,0.327249,0.379084,13156.0,4632.0,2246.0,98.0,-168.0,-116.0
2859.0,2771.0,2851.0,3095.0,3015.0,0.828003,0.208801,-0.520142,0.014099,7.0,-9.0,-7.0,6657.0,2392.0,1146.0,-447.0,-320.0,-1898.0,1495.0,478.0,-1198.0,0.867245,0.331109,0.371642,13060.0,4772.0,2194.0,173.0,-205.0,-146.0
2846.0,2771.0,2847.0,3095.0,3010.0,0.826782,0.210388,-0.521484,0.013794,9.0,-10.0,-7.0,6623.0,2390.0,1129.0,-488.0,-342.0,-1881.0,1471.0,465.0,-1229.0,0.868112,0.333504,0.36755,13044.0,4782.0,2182.0,223.0,-222.0,-159.0
2851.0,2786.0,2832.0,3099.0,3004.0,0.823975,0.214294,-0.524292,0.013245,13.0,-12.0,-9.0,6522.0,2425.0,1123.0,-602.0,-354.0,-1812.0,1371.0,465.0,-1292.0,0.869683,0.339258,0.358305,12690.0,5032.0,2264.0,315.0,-259.0,-188.0
2864.0,2791.0,2828.0,3095.0,3003.0,0.822449,0.216553,-0.525757,0.013,14.0,-13.0,-9.0,6458.0,2450.0,1135.0,-672.0,-356.0,-1759.0,1299.0,466.0,-1328.0,0.870447,0.342537,0.353276,12496.0,5014.0,2378.0,339.0,-285.0,-205.0
2847.0,2791.0,2847.0,3101.0,3011.0,0.819275,0.221497,-0.528748,0.012146,16.0,-16.0,-12.0,6247.0,2450.0,1225.0,-894.0,-417.0,-1582.0,1074.0,410.0,-1467.0,0.87176,0.350089,0.342724,11794.0,4694.0,2836.0,369.0,-345.0,-262.0
2859.0,2775.0,2847.0,3071.0,2993.0,0.817566,0.224121,-0.530273,0.011597,18.0,-17.0,-13.0,6108.0,2358.0,1324.0,-1037.0,-543.0,-1437.0,924.0,282.0,-1581.0,0.872265,0.354169,0.337128,11348.0,4136.0,3222.0,414.0,-377.0,-297.0
2857.0,2787.0,2854.0,3071.0,2999.0,0.813965,0.230164,-0.533264,0.01062,24.0,-21.0,-17.0,5666.0,1942.0,1765.0,-1485.0,-1034.0,-899.0,407.0,-238.0,-1964.0,0.873005,0.363363,0.325306,9666.0,2200.0,5384.0,565.0,-463.0,-384.0
2853.0,2795.0,2835.0,3071.0,2987.0,0.810486,0.237305,-0.5354,0.00885,25.0,-25.0,-27.0,5008.0,1513.0,2891.0,-2135.0,-1560.0,318.0,-766.0,-997.0,-2347.0,0.872069,0.375187,0.313999,7954.0,2054.0,10080.0,593.0,-550.0,-611.0
2841.0,2775.0,2847.0,3109.0,3015.0,0.809448,0.240662,-0.535522,0.006348,17.0,-24.0,-35.0,4632.0,1471.0,3764.0,-2495.0,-1664.0,1220.0,-1671.0,-1337.0,-2428.0,0.870011,0.382808,0.310544,6928.0,2944.0,12990.0,394.0,-546.0,-800.0
2854.0,2773.0,2869.0,3111.0,3005.0,0.809875,0.244385,-0.533203,-0.006287,-26.0,-29.0,-62.0,3595.0,1831.0,5760.0,-3454.0,-1466.0,3204.0,-3899.0,-1602.0,-2563.0,0.860584,0.402547,0.311908,3730.0,4860.0,17492.0,-580.0,-655.0,-1407.0
2871.0,2785.0,2863.0,3088.0,2999.0,0.811035,0.244019,-0.531372,-0.018127,-52.0,-36.0,-80.0,2939.0,1858.0,6583.0,-4049.0,-1542.0,3992.0,-4881.0,-1691.0,-2831.0,0.853076,0.41508,0.316205,1712.0,3422.0,17662.0,-1189.0,-824.0,-1830.0
2864.0,2781.0,2835.0,3071.0,3003.0,0.81189,0.23999,-0.529663,-0.051819,-83.0,-68.0,-116.0,1522.0,976.0,7267.0,-5319.0,-2666.0,4615.0,-5936.0,-2089.0,-4133.0,0.835184,0.444584,0.323712,-942.0,-2178.0,15268.0,-1879.0,-1552.0,-2655.0
2846.0,2775.0,2861.0,3110.0,2999.0,0.804932,0.23877,-0.535461,-0.091187,-47.0,-115.0,-137.0,506.0,-952.0,6880.0,-6198.0,-4900.0,4319.0,-5918.0,-3003.0,-6085.0,0.818475,0.48204,0.3125,-1354.0,-7680.0,11844.0,-1072.0,-2621.0,-3137.0
2864.0,2787.0,2863.0,3116.0,2995.0,0.796936,0.242432,-0.542419,-0.109253,-9.0,-140.0,-139.0,206.0,-1604.0,6548.0,-6442.0,-5740.0,4139.0,-5785.0,-3221.0,-6909.0,0.811574,0.504927,0.294051,-1242.0,-6328.0,11010.0,-201.0,-3195.0,-3167.0
2861.0,2787.0,2858.0,3114.0,3015.0,0.770569,0.259033,-0.565369,-0.139709,57.0,-193.0,-124.0,-54.0,-1084.0,5606.0,-6598.0,-5648.0,3750.0,-5223.0,-2221.0,-7568.0,0.798932,0.557181,0.226555,-466.0,2122.0,7778.0,1324.0,-4401.0,-2819.0
2850.0,2778.0,2853.0,3097.0,2998.0,0.730957,0.281311,-0.599426,-0.165222,81.0,-240.0,-100.0,-32.0,1705.0,3905.0,-6449.0,-3286.0,2896.0,-3955.0,528.0,-6697.0,0.783352,0.60933,0.123149,666.0,14204.0,1912.0,1869.0,-5475.0,-2285.0
2853.0,2777.0,2843.0,3093.0,2997.0,0.707397,0.29126,-0.618774,-0.178589,68.0,-254.0,-93.0,175.0,3799.0,2730.0,-6144.0,-1387.0,2200.0,-3052.0,2283.0,-5475.0,0.771407,0.633085,0.064591,1718.0,20814.0,-2188.0,1564.0,-5800.0,-2109.0
2865.0,2773.0,2850.0,3103.0,3007.0,0.657471,0.304932,-0.655334,-0.212769,0.0,-249.0,-95.0,1400.0,8530.0,-518.0,-4596.0,2960.0,-150.0,-438.0,5282.0,-1345.0,0.731967,0.679836,-0.044908,8746.0,30548.0,-10546.0,12.0,-5703.0,-2172.0
2859.0,2775.0,2837.0,3103.0,2999.0,0.615601,0.307373,-0.679016,-0.255859,-76.0,-185.0,-102.0,3115.0,11908.0,-4141.0,-2445.0,5961.0,-3230.0,2727.0,5944.0,3026.0,0.678717,0.725903,-0.111113,9970.0,31032.0,-20776.0,-1729.0,-4232.0,-2318.0
2851.0,2779.0,2841.0,3111.0,3023.0,-0.950195,1.935974,1.260864,1.097107,-23509.0,-18525.0,1909.0,-20062.0,32387.0,-24119.0,-8954.0,-25674.0,2351.0,5461.0,-12295.0,21876.0,6.644076,-0.912501,-3.23126,7750.0,19042.0,-29568.0,-1795.0,-2966.0,-2158.0
2852.0,2781.0,2861.0,3090.0,2991.0,0.566101,0.308105,-0.699036,-0.309753,-43.0,-121.0,-76.0,3587.0,10810.0,-10417.0,-1332.0,4404.0,-9047.0,8759.0,3001.0,4155.0,0.600576,0.781895,-0.167162,6048.0,15686.0,-32522.0,-972.0,-2749.0,-1739.0
2851.0,2783.0,2847.0,3119.0,3011.0,0.530701,0.313721,-0.71991,-0.318848,47.0,-121.0,-30.0,3206.0,9821.0,-12982.0,-1414.0,3332.0,-11070.0,10635.0,1719.0,4425.0,0.564055,0.792067,-0.233384,5330.0,19292.0,-31932.0,1089.0,-2749.0,-668.0
2863.0,2790.0,2847.0,3095.0,3007.0,0.494629,0.318542,-0.745117,-0.314209,71.0,-118.0,5.0,3466.0,10856.0,-13258.0,-932.0,4438.0,-10691.0,9580.0,1756.0,6325.0,0.536935,0.783366,-0.313284,8474.0,26580.0,-24474.0,1634.0,-2688.0,128.0
2843.0,2795.0,2859.0,3071.0,3007.0,0.479675,0.318542,-0.755493,-0.312561,49.0,-107.0,11.0,3689.0,11615.0,-12734.0,-617.0,5242.0,-9912.0,8414.0,1983.0,7167.0,0.525655,0.777869,-0.344456,8656.0,27342.0,-22076.0,1138.0,-2437.0,272.0
2853.0,2783.0,2854.0,3094.0,3007.0,0.459351,0.313599,-0.76886,-0.315552,-8.0,-69.0,10.0,4246.0,11590.0,-11205.0,80.0,5254.0,-8100.0,6283.0,1516.0,7172.0,0.508439,0.773334,-0.378914,10302.0,20372.0,-17402.0,-181.0,-1579.0,249.0
2862.0,2781.0,2835.0,3071.0,2999.0,0.45105,0.308777,-0.773743,-0.320312,-23.0,-22.0,1.0,4243.0,9853.0,-10031.0,145.0,3510.0,-6852.0,5416.0,521.0,5448.0,0.500183,0.774226,-0.387975,7380.0,13588.0,-17626.0,-509.0,-488.0,36.0
2859.0,2795.0,2862.0,3094.0,3007.0,0.448853,0.307983,-0.77478,-0.321655,-20.0,-10.0,-2.0,3911.0,8865.0,-9646.0,-163.0,2516.0,-6449.0,5355.0,211.0,4385.0,0.497395,0.774903,-0.390208,5652.0,11992.0,-16940.0,-440.0,-207.0,-23.0
2859.0,2787.0,2869.0,3091.0,3007.0,0.445007,0.30719,-0.776611,-0.323181,-12.0,-7.0,2.0,3110.0,7299.0,-8817.0,-925.0,947.0,-5581.0,5170.0,2.0,2483.0,0.492639,0.775376,-0.395013,4060.0,10506.0,-14906.0,-266.0,-160.0,53.0
2864.0,2781.0,2839.0,3071.0,2999.0,0.443054,0.306885,-0.777832,-0.323303,-7.0,-8.0,3.0,2856.0,6777.0,-8283.0,-1164.0,429.0,-5019.0,4861.0,-11.0,1760.0,0.49081,0.774884,-0.398379,4390.0,10762.0,-13176.0,-140.0,-173.0,72.0
2857.0,2785.0,2827.0,3071.0,3011.0,0.439636,0.307251,-0.779785,-0.322937,0.0,-4.0,-1.0,2571.0,6223.0,-7087.0,-1420.0,-115.0,-3770.0,3958.0,134.0,745.0,0.487198,0.7738,-0.4049,4420.0,11508.0,-10644.0,19.0,-82.0,-5.0
2861.0,2799.0,2850.0,3103.0,3015.0,0.438354,0.307739,-0.780334,-0.322815,0.0,-3.0,-2.0,2483.0,6054.0,-6530.0,-1493.0,-283.0,-3193.0,3511.0,221.0,356.0,0.485441,0.773605,-0.407261,4396.0,11300.0,-9914.0,18.0,-57.0,-24.0
2869.0,2781.0,2863.0,3101.0,3003.0,0.436096,0.308594,-0.781128,-0.323181,-3.0,-3.0,-2.0,2374.0,5913.0,-5610.0,-1573.0,-427.0,-2245.0,2737.0,416.0,-166.0,0.48183,0.774045,-0.410765,4606.0,11496.0,-8604.0,-55.0,-60.0,-35.0
2855.0,2791.0,2843.0,3091.0,3007.0,0.434448,0.309265,-0.781372,-0.32428,-4.0,-2.0,-3.0,2391.0,5800.0,-4946.0,-1527.0,-552.0,-1568.0,2148.0,464.0,-512.0,0.478355,0.775486,-0.412285,4958.0,11406.0,-8214.0,-80.0,-39.0,-65.0
2861.0,2785.0,2843.0,3099.0,3007.0,0.433655,0.30957,-0.781433,-0.324829,-4.0,-3.0,-3.0,2424.0,5787.0,-4719.0,-1480.0,-571.0,-1336.0,1929.0,472.0,-596.0,0.47663,0.776158,-0.412901,5088.0,11490.0,-8138.0,-86.0,-52.0,-65.0
2858.0,2783.0,2847.0,3071.0,3022.0,0.431885,0.310303,-0.781799,-0.325623,0.0,-4.0,-3.0,2541.0,5760.0,-4437.0,-1335.0,-606.0,-1037.0,1613.0,412.0,-672.0,0.473211,0.777173,-0.414943,5396.0,11560.0,-8298.0,12.0,-79.0,-66.0
2858.0,2786.0,2847.0,3099.0,2997.0,0.430786,0.310852,-0.782166,-0.325623,3.0,-4.0,-3.0,2599.0,5827.0,-4372.0,-1263.0,-539.0,-957.0,1499.0,416.0,-615.0,0.471451,0.777203,-0.416805,5574.0,12162.0,-8342.0,76.0,-89.0,-66.0
2855.0,2786.0,2850.0,3094.0,3007.0,0.42865,0.312134,-0.782959,-0.325317,5.0,-3.0,-3.0,2712.0,6096.0,-4279.0,-1123.0,-269.0,-831.0,1274.0,501.0,-384.0,0.468145,0.777013,-0.42088,5662.0,13130.0,-8396.0,119.0,-53.0,-50.0
2847.0,2767.0,2849.0,3093.0,2999.0,0.427734,0.312805,-0.783264,-0.325134,4.0,-2.0,-2.0,2716.0,6247.0,-4259.0,-1106.0,-117.0,-796.0,1204.0,587.0,-270.0,0.466651,0.776927,-0.422681,5398.0,13330.0,-8388.0,105.0,-35.0,-41.0
2906.0,2771.0,2851.0,3091.0,3007.0,0.426086,0.313782,-0.783813,-0.325073,2.0,-2.0,0.0,2670.0,6452.0,-4231.0,-1130.0,86.0,-744.0,1127.0,739.0,-140.0,0.46394,0.77699,-0.4256,5174.0,13392.0,-8372.0,46.0,-42.0,10.0
2863.0,2787.0,2853.0,3092.0,3003.0,0.425293,0.313965,-0.784058,-0.325256,0.0,-3.0,0.0,2650.0,6511.0,-4232.0,-1140.0,145.0,-736.0,1112.0,783.0,-100.0,0.46267,0.777094,-0.426654,5204.0,13304.0,-8444.0,11.0,-62.0,19.0
2855.0,2783.0,2846.0,3103.0,3011.0,0.423828,0.314209,-0.784485,-0.325989,-3.0,-3.0,0.0,2687.0,6582.0,-4213.0,-1082.0,210.0,-704.0,1046.0,783.0,-33.0,0.460116,0.777808,-0.428245,5584.0,13356.0,-8352.0,-49.0,-61.0,3.0
2855.0,2786.0,2847.0,3094.0,2999.0,0.423279,0.31427,-0.784546,-0.326538,-4.0,-2.0,-1.0,2706.0,6608.0,-4224.0,-1053.0,231.0,-713.0,1037.0,770.0,2.0,0.458921,0.778416,-0.428486,5480.0,13368.0,-8550.0,-79.0,-40.0,-7.0
2851.0,2785.0,2847.0,3095.0,3007.0,0.422241,0.314514,-0.784485,-0.327637,-5.0,-2.0,-1.0,2708.0,6599.0,-4299.0,-1030.0,212.0,-787.0,1096.0,722.0,32.0,0.456391,0.779654,-0.428702,5434.0,13136.0,-8884.0,-93.0,-29.0,-12.0
2854.0,2783.0,2859.0,3095.0,3003.0,0.421631,0.314697,-0.784607,-0.328064,-3.0,-2.0,-1.0,2725.0,6568.0,-4337.0,-1003.0,176.0,-820.0,1121.0,671.0,32.0,0.455147,0.780175,-0.429244,5594.0,12920.0,-8864.0,-64.0,-26.0,-9.0
2862.0,2783.0,2855.0,3095.0,3007.0,0.420654,0.315308,-0.784851,-0.328247,0.0,0.0,-1.0,2772.0,6521.0,-4384.0,-941.0,126.0,-855.0,1134.0,585.0,40.0,0.453304,0.780521,-0.430714,5596.0,12936.0,-8910.0,18.0,21.0,-12.0
2847.0,2783.0,2839.0,3091.0,3005.0,0.420105,0.315735,-0.784973,-0.328125,1.0,1.0,-1.0,2770.0,6523.0,-4408.0,-935.0,129.0,-871.0,1145.0,579.0,53.0,0.452341,0.780422,-0.431717,5524.0,13122.0,-8942.0,32.0,27.0,-16.0
2859.0,2786.0,2851.0,3095.0,3007.0,0.419189,0.31665,-0.785034,-0.328247,-2.0,0.0,-2.0,2795.0,6572.0,-4388.0,-893.0,175.0,-840.0,1088.0,581.0,98.0,0.450277,0.780843,-0.43308,5734.0,13268.0,-8592.0,-29.0,21.0,-29.0
2861.0,2783.0,2847.0,3103.0,3007.0,0.418945,0.316956,-0.784912,-0.328613,-4.0,1.0,-2.0,2818.0,6580.0,-4357.0,-863.0,178.0,-809.0,1047.0,568.0,101.0,0.449359,0.781439,-0.433046,5806.0,13206.0,-8546.0,-78.0,33.0,-37.0
2857.0,2786.0,2851.0,3102.0,3007.0,0.418701,0.317383,-0.784302,-0.329956,-8.0,1.0,-3.0,2837.0,6568.0,-4315.0,-827.0,150.0,-778.0,1011.0,531.0,83.0,0.447331,0.783347,-0.431679,5740.0,13130.0,-8466.0,-169.0,44.0,-50.0
2861.0,2781.0,2857.0,3095.0,3003.0,0.418762,0.317505,-0.783813,-0.330872,-10.0,2.0,-3.0,2850.0,6552.0,-4285.0,-806.0,124.0,-759.0,991.0,504.0,64.0,0.446356,0.784601,-0.430335,5768.0,12980.0,-8388.0,-220.0,51.0,-52.0
2851.0,2786.0,2835.0,3090.0,2999.0,0.419006,0.317505,-0.782837,-0.332886,-11.0,2.0,-3.0,2842.0,6401.0,-4297.0,-800.0,-48.0,-796.0,1058.0,390.0,-53.0,0.444642,0.787264,-0.427264,5652.0,12166.0,-8768.0,-230.0,63.0,-49.0
2859.0,2783.0,2855.0,3102.0,3007.0,0.419006,0.317627,-0.782532,-0.333496,-7.0,2.0,-2.0,2826.0,6283.0,-4333.0,-810.0,-173.0,-839.0,1127.0,314.0,-138.0,0.443917,0.788118,-0.426457,5534.0,11850.0,-8904.0,-152.0,65.0,-39.0
2861.0,2787.0,2853.0,3095.0,3007.0,0.418396,0.318298,-0.782715,-0.33313,3.0,1.0,0.0,2753.0,6137.0,-4384.0,-875.0,-316.0,-878.0,1221.0,274.0,-260.0,0.4429,0.787841,-0.427926,5240.0,12094.0,-8834.0,70.0,38.0,21.0
2853.0,2783.0,2849.0,3087.0,3007.0,0.417786,0.318726,-0.783203,-0.332397,6.0,0.0,2.0,2716.0,6138.0,-4376.0,-909.0,-309.0,-853.0,1214.0,311.0,-278.0,0.442535,0.786987,-0.42996,5254.0,12344.0,-8672.0,153.0,11.0,51.0
2858.0,2784.0,2851.0,3095.0,3005.0,0.416321,0.319519,-0.784485,-0.330444,9.0,-1.0,3.0,2687.0,6258.0,-4317.0,-934.0,-168.0,-753.0,1108.0,438.0,-217.0,0.442028,0.784502,-0.434992,5302.0,12986.0,-8402.0,212.0,-15.0,88.0
2861.0,2787.0,2859.0,3103.0,3007.0,0.415649,0.319824,-0.785095,-0.329529,7.0,-1.0,3.0,2677.0,6336.0,-4275.0,-942.0,-80.0,-692.0,1039.0,510.0,-176.0,0.441866,0.783292,-0.437308,5296.0,13136.0,-8286.0,183.0,-18.0,89.0
2853.0,2787.0,2859.0,3093.0,3007.0,0.414551,0.320068,-0.786011,-0.328613,2.0,-1.0,3.0,2662.0,6417.0,-4193.0,-953.0,11.0,-585.0,932.0,598.0,-154.0,0.441325,0.781956,-0.440418,5334.0,12906.0,-8164.0,61.0,-16.0,82.0
2859.0,2783.0,2851.0,3099.0,3007.0,0.414185,0.320007,-0.786255,-0.32843,0.0,-1.0,3.0,2649.0,6395.0,-4195.0,-964.0,-7.0,-580.0,937.0,597.0,-174.0,0.441109,0.781544,-0.441186,5184.0,12558.0,-8498.0,20.0,-8.0,76.0
2855.0,2778.0,2846.0,3093.0,3007.0,0.413269,0.320007,-0.786926,-0.328003,1.0,-1.0,3.0,2618.0,6259.0,-4248.0,-990.0,-136.0,-616.0,1010.0,533.0,-269.0,0.440498,0.780726,-0.44328,5108.0,12146.0,-8650.0,33.0,-16.0,72.0
2859.0,2783.0,2854.0,3099.0,2999.0,0.41272,0.320068,-0.787292,-0.327698,2.0,-2.0,3.0,2593.0,6217.0,-4289.0,-1012.0,-174.0,-647.0,1056.0,519.0,-293.0,0.440091,0.780185,-0.44455,5052.0,12196.0,-8834.0,55.0,-24.0,69.0
2857.0,2783.0,2855.0,3094.0,3007.0,0.411438,0.320251,-0.788269,-0.326904,3.0,-2.0,2.0,2606.0,6175.0,-4342.0,-992.0,-205.0,-673.0,1078.0,479.0,-294.0,0.439265,0.778904,-0.447781,5308.0,12282.0,-8838.0,76.0,-31.0,58.0
2855.0,2782.0,2845.0,3090.0,3003.0,0.410767,0.320435,-0.788696,-0.326477,3.0,-1.0,2.0,2633.0,6185.0,-4349.0,-960.0,-190.0,-667.0,1055.0,464.0,-269.0,0.438711,0.77823,-0.449404,5420.0,12480.0,-8710.0,85.0,-20.0,49.0
2855.0,2783.0,2847.0,3094.0,2998.0,0.409729,0.320984,-0.789307,-0.325745,2.0,0.0,1.0,2676.0,6284.0,-4328.0,-909.0,-83.0,-624.0,970.0,498.0,-180.0,0.437686,0.777258,-0.452048,5478.0,12902.0,-8530.0,65.0,6.0,29.0
2861.0,2789.0,2858.0,3103.0,3007.0,0.409363,0.321228,-0.78949,-0.325623,1.0,0.0,0.0,2686.0,6336.0,-4309.0,-895.0,-30.0,-599.0,930.0,524.0,-143.0,0.437177,0.777149,-0.452874,5432.0,12940.0,-8494.0,25.0,12.0,21.0
2859.0,2787.0,2859.0,3099.0,3007.0,0.408813,0.321472,-0.789551,-0.325928,-3.0,0.0,0.0,2683.0,6375.0,-4281.0,-888.0,5.0,-566.0,890.0,547.0,-126.0,0.436005,0.777517,-0.453377,5352.0,12736.0,-8540.0,-56.0,4.0,19.0
2851.0,2783.0,2861.0,3099.0,2999.0,0.408508,0.321472,-0.789551,-0.326233,-4.0,0.0,0.0,2688.0,6362.0,-4284.0,-878.0,-9.0,-569.0,892.0,530.0,-131.0,0.435326,0.777803,-0.453428,5438.0,12592.0,-8616.0,-71.0,1.0,20.0
2859.0,2782.0,2842.0,3095.0,3007.0,0.407959,0.321533,-0.789612,-0.32666,-2.0,0.0,0.0,2703.0,6290.0,-4317.0,-853.0,-85.0,-600.0,925.0,459.0,-164.0,0.434194,0.778214,-0.453733,5478.0,12300.0,-8730.0,-44.0,1.0,15.0
2861.0,2791.0,2859.0,3101.0,3007.0,0.407593,0.321655,-0.789734,-0.326721,-1.0,0.0,0.0,2714.0,6230.0,-4328.0,-838.0,-145.0,-606.0,938.0,411.0,-200.0,0.433596,0.778254,-0.454263,5472.0,12102.0,-8750.0,-10.0,1.0,20.0
2858.0,2790.0,2863.0,3103.0,3011.0,0.406677,0.32196,-0.790344,-0.32605,3.0,-1.0,1.0,2727.0,6165.0,-4352.0,-819.0,-202.0,-611.0,948.0,361.0,-232.0,0.43288,0.777251,-0.456608,5542.0,12354.0,-8658.0,80.0,-5.0,35.0
2855.0,2782.0,2849.0,3091.0,2999.0,0.406128,0.322205,-0.79071,-0.325623,4.0,-1.0,1.0,2733.0,6208.0,-4343.0,-809.0,-154.0,-590.0,914.0,387.0,-199.0,0.432425,0.776659,-0.458069,5514.0,12712.0,-8632.0,97.0,-7.0,36.0
2855.0,2787.0,2855.0,3099.0,3007.0,0.405029,0.322632,-0.791382,-0.324951,2.0,-2.0,1.0,2724.0,6281.0,-4348.0,-809.0,-73.0,-573.0,880.0,438.0,-141.0,0.431386,0.775672,-0.460735,5462.0,12662.0,-8670.0,68.0,-33.0,43.0
2859.0,2789.0,2853.0,3103.0,3005.0,0.404419,0.322693,-0.791748,-0.324707,2.0,-2.0,2.0,2728.0,6299.0,-4344.0,-801.0,-51.0,-559.0,859.0,448.0,-126.0,0.430835,0.775179,-0.462006,5490.0,12692.0,-8652.0,56.0,-40.0,49.0
2858.0,2789.0,2859.0,3099.0,2999.0,0.40332,0.322754,-0.79248,-0.324219,1.0,-2.0,2.0,2750.0,6282.0,-4377.0,-772.0,-60.0,-572.0,860.0,416.0,-112.0,0.429961,0.77422,-0.46441,5576.0,12462.0,-8872.0,45.0,-37.0,59.0
2851.0,2781.0,2854.0,3071.0,3006.0,0.402832,0.322754,-0.792847,-0.323975,2.0,-2.0,2.0,2755.0,6273.0,-4403.0,-764.0,-65.0,-589.0,872.0,403.0,-104.0,0.42964,0.773756,-0.465543,5522.0,12518.0,-8986.0,51.0,-30.0,60.0
2863.0,2787.0,2851.0,3071.0,3007.0,0.401794,0.322876,-0.793579,-0.323303,2.0,-1.0,2.0,2754.0,6267.0,-4457.0,-759.0,-62.0,-622.0,897.0,392.0,-82.0,0.428938,0.772593,-0.468053,5520.0,12500.0,-9034.0,55.0,-18.0,48.0
2859.0,2791.0,2854.0,3095.0,3006.0,0.401306,0.322998,-0.793884,-0.322998,2.0,-1.0,2.0,2762.0,6262.0,-4467.0,-748.0,-62.0,-623.0,893.0,383.0,-76.0,0.428526,0.772088,-0.469206,5580.0,12520.0,-8974.0,52.0,-6.0,46.0
2851.0,2786.0,2855.0,3099.0,2995.0,0.400635,0.323364,-0.794373,-0.322449,1.0,0.0,1.0,2766.0,6273.0,-4477.0,-739.0,-46.0,-617.0,880.0,387.0,-61.0,0.42797,0.771391,-0.471111,5550.0,12578.0,-8978.0,35.0,21.0,30.0
2861.0,2783.0,2854.0,3071.0,3003.0,0.40033,0.323547,-0.794495,-0.322266,0.0,1.0,0.0,2776.0,6276.0,-4470.0,-726.0,-41.0,-605.0,862.0,383.0,-56.0,0.427583,0.771128,-0.471786,5614.0,12570.0,-8878.0,19.0,26.0,20.0
2859.0,2783.0,2851.0,3115.0,3010.0,0.399963,0.323975,-0.794556,-0.322144,-1.0,1.0,0.0,2787.0,6277.0,-4447.0,-709.0,-39.0,-576.0,829.0,379.0,-60.0,0.426854,0.771078,-0.472531,5568.0,12496.0,-8808.0,-15.0,41.0,5.0
2863.0,2787.0,2859.0,3103.0,3014.0,0.399841,0.324219,-0.794556,-0.322144,-2.0,2.0,0.0,2787.0,6267.0,-4431.0,-706.0,-50.0,-557.0,815.0,375.0,-76.0,0.426502,0.771194,-0.472787,5584.0,12468.0,-8712.0,-27.0,46.0,3.0
2855.0,2787.0,2862.0,3093.0,3014.0,0.399719,0.324585,-0.794312,-0.322327,-2.0,2.0,0.0,2788.0,6289.0,-4381.0,-699.0,-31.0,-509.0,766.0,393.0,-80.0,0.425758,0.771541,-0.472616,5554.0,12636.0,-8606.0,-40.0,59.0,0.0
2854.0,2783.0,2854.0,3071.0,3005.0,0.399719,0.324768,-0.794189,-0.32251,-2.0,2.0,0.0,2785.0,6293.0,-4361.0,-700.0,-30.0,-490.0,750.0,400.0,-89.0,0.425424,0.7719,-0.472423,5540.0,12620.0,-8650.0,-45.0,59.0,1.0
2859.0,2783.0,2853.0,3103.0,3006.0,0.399719,0.325073,-0.794006,-0.322754,-2.0,2.0,0.0,2796.0,6290.0,-4313.0,-684.0,-37.0,-444.0,705.0,395.0,-109.0,0.424922,0.772413,-0.472173,5662.0,12544.0,-8542.0,-39.0,49.0,8.0
2891.0,2786.0,2841.0,3099.0,2999.0,0.399658,0.325256,-0.793884,-0.322815,-2.0,2.0,0.0,2806.0,6275.0,-4289.0,-672.0,-53.0,-421.0,684.0,383.0,-127.0,0.42457,0.772538,-0.472108,5690.0,12448.0,-8372.0,-34.0,51.0,3.0
2861.0,2805.0,2847.0,3101.0,2999.0,0.399658,0.325623,-0.793701,-0.322937,-2.0,2.0,0.0,2805.0,6214.0,-4249.0,-669.0,-117.0,-382.0,666.0,354.0,-193.0,0.424107,0.772906,-0.471977,5534.0,12252.0,-8382.0,-23.0,51.0,0.0
2855.0,2793.0,2845.0,3091.0,3009.0,0.399536,0.325806,-0.79364,-0.322998,-1.0,1.0,-1.0,2789.0,6189.0,-4237.0,-682.0,-143.0,-369.0,668.0,352.0,-225.0,0.423707,0.773031,-0.472057,5472.0,12208.0,-8408.0,-22.0,40.0,-6.0
2853.0,2787.0,2859.0,3091.0,3015.0,0.399109,0.326233,-0.793579,-0.323303,-2.0,-1.0,-1.0,2773.0,6154.0,-4216.0,-688.0,-182.0,-346.0,661.0,341.0,-268.0,0.422505,0.773538,-0.472383,5518.0,12226.0,-8374.0,-32.0,0.0,-19.0
2855.0,2773.0,2855.0,3143.0,3011.0,0.398804,0.326416,-0.793579,-0.323547,-2.0,-1.0,-2.0,2772.0,6149.0,-4212.0,-682.0,-190.0,-340.0,656.0,333.0,-273.0,0.421742,0.773873,-0.472588,5550.0,12280.0,-8378.0,-34.0,-11.0,-25.0
2855.0,2787.0,2863.0,3099.0,2986.0,0.398132,0.326782,-0.793518,-0.324097,-2.0,-1.0,-2.0,2787.0,6174.0,-4192.0,-653.0,-171.0,-317.0,618.0,328.0,-256.0,0.420032,0.774558,-0.47291,5596.0,12468.0,-8344.0,-37.0,-11.0,-36.0
2839.0,2787.0,2851.0,3099.0,3007.0,0.397827,0.326965,-0.793518,-0.324341,-2.0,-1.0,-2.0,2783.0,6187.0,-4212.0,-651.0,-160.0,-336.0,630.0,328.0,-237.0,0.41927,0.774892,-0.473114,5510.0,12446.0,-8564.0,-35.0,-15.0,-32.0
2865.0,2786.0,2847.0,3107.0,2995.0,0.396851,0.327332,-0.793701,-0.324646,0.0,-2.0,-1.0,2764.0,6186.0,-4287.0,-655.0,-164.0,-402.0,689.0,312.0,-209.0,0.417428,0.775147,-0.474222,5526.0,12378.0,-8840.0,9.0,-41.0,-9.0
2863.0,2791.0,2859.0,3111.0,2991.0,0.39624,0.327515,-0.794006,-0.324524,2.0,-2.0,0.0,2768.0,6200.0,-4328.0,-645.0,-147.0,-433.0,707.0,306.0,-176.0,0.416662,0.774897,-0.47539,5580.0,12530.0,-8868.0,49.0,-44.0,3.0
2859.0,2797.0,2849.0,3071.0,2990.0,0.395081,0.327942,-0.794617,-0.323975,3.0,-2.0,0.0,2801.0,6283.0,-4368.0,-601.0,-57.0,-452.0,679.0,318.0,-77.0,0.415386,0.773998,-0.477913,5706.0,12916.0,-8846.0,89.0,-32.0,17.0
2851.0,2775.0,2835.0,3071.0,3011.0,0.394531,0.328186,-0.794922,-0.323669,3.0,-2.0,0.0,2816.0,6336.0,-4371.0,-582.0,0.0,-445.0,649.0,338.0,-28.0,0.414795,0.773543,-0.47919,5702.0,13008.0,-8730.0,80.0,-23.0,18.0
2863.0,2794.0,2841.0,3071.0,3015.0,0.393799,0.32843,-0.795288,-0.323425,0.0,-1.0,0.0,2828.0,6425.0,-4360.0,-562.0,91.0,-422.0,596.0,381.0,40.0,0.413922,0.773103,-0.480668,5648.0,13012.0,-8720.0,8.0,-13.0,22.0
2857.0,2786.0,2864.0,3099.0,3025.0,0.393494,0.328491,-0.795349,-0.323547,-2.0,-1.0,0.0,2827.0,6416.0,-4367.0,-559.0,82.0,-426.0,600.0,372.0,37.0,0.413365,0.773185,-0.480967,5652.0,12708.0,-8776.0,-23.0,-6.0,17.0
2845.0,2773.0,2849.0,3093.0,3019.0,0.393127,0.328552,-0.795471,-0.323669,-1.0,0.0,0.0,2820.0,6303.0,-4396.0,-561.0,-31.0,-452.0,653.0,302.0,-37.0,0.412758,0.773265,-0.48141,5580.0,12240.0,-8856.0,-15.0,7.0,19.0
2853.0,2783.0,2847.0,3088.0,3011.0,0.392822,0.328613,-0.795593,-0.323608,0.0,0.0,0.0,2803.0,6247.0,-4417.0,-575.0,-86.0,-469.0,689.0,277.0,-77.0,0.412369,0.773095,-0.481924,5496.0,12184.0,-8950.0,2.0,5.0,19.0
2864.0,2783.0,2837.0,3131.0,3017.0,0.392212,0.328918,-0.795959,-0.323242,1.0,0.0,0.0,2800.0,6201.0,-4422.0,-572.0,-128.0,-461.0,692.0,252.0,-111.0,0.411729,0.772587,-0.483423,5556.0,12432.0,-8826.0,29.0,2.0,14.0
2870.0,2798.0,2847.0,3071.0,2994.0,0.391907,0.329102,-0.796082,-0.32312,0.0,0.0,0.0,2796.0,6227.0,-4417.0,-573.0,-100.0,-451.0,677.0,272.0,-94.0,0.411301,0.772414,-0.484056,5550.0,12624.0,-8784.0,21.0,4.0,10.0
2871.0,2795.0,2853.0,3071.0,2987.0,0.391479,0.329407,-0.796082,-0.323242,-2.0,0.0,-1.0,2791.0,6276.0,-4384.0,-570.0,-52.0,-414.0,631.0,307.0,-73.0,0.410343,0.772566,-0.484513,5550.0,12660.0,-8660.0,-25.0,21.0,-9.0
2855.0,2786.0,2867.0,3111.0,3015.0,0.391357,0.329651,-0.796021,-0.323425,-2.0,1.0,-1.0,2785.0,6274.0,-4371.0,-572.0,-57.0,-401.0,623.0,309.0,-84.0,0.409822,0.772929,-0.484554,5536.0,12480.0,-8676.0,-41.0,29.0,-19.0
2853.0,2773.0,2851.0,3103.0,3019.0,0.391113,0.330017,-0.795776,-0.323853,-3.0,1.0,-1.0,2754.0,6255.0,-4360.0,-594.0,-82.0,-392.0,632.0,314.0,-116.0,0.408724,0.773577,-0.484321,5414.0,12470.0,-8722.0,-47.0,27.0,-19.0
2855.0,2790.0,2854.0,3111.0,3011.0,0.39093,0.3302,-0.795715,-0.324097,-3.0,0.0,-1.0,2742.0,6255.0,-4360.0,-601.0,-85.0,-392.0,637.0,318.0,-121.0,0.408105,0.773948,-0.48433,5444.0,12490.0,-8694.0,-52.0,21.0,-16.0
2841.0,2782.0,2854.0,3071.0,2993.0,0.390686,0.330505,-0.795532,-0.324524,-2.0,1.0,-1.0,2752.0,6240.0,-4339.0,-582.0,-105.0,-372.0,616.0,297.0,-138.0,0.407093,0.774586,-0.484154,5540.0,12396.0,-8634.0,-39.0,26.0,-14.0
2857.0,2793.0,2855.0,3099.0,3005.0,0.390564,0.330688,-0.795471,-0.324646,-2.0,1.0,-1.0,2749.0,6231.0,-4332.0,-582.0,-116.0,-365.0,613.0,293.0,-149.0,0.406651,0.774803,-0.484194,5474.0,12404.0,-8610.0,-29.0,32.0,-18.0
2858.0,2791.0,2863.0,3071.0,2993.0,0.390259,0.331177,-0.795349,-0.324768,-1.0,0.0,-1.0,2733.0,6212.0,-4333.0,-590.0,-137.0,-364.0,622.0,288.0,-169.0,0.405673,0.775097,-0.484482,5396.0,12386.0,-8688.0,-13.0,20.0,-13.0
2846.0,2774.0,2859.0,3107.0,3007.0,0.390015,0.33136,-0.795349,-0.324829,-1.0,0.0,-1.0,2736.0,6207.0,-4338.0,-582.0,-143.0,-366.0,622.0,278.0,-169.0,0.405125,0.775176,-0.484754,5522.0,12386.0,-8734.0,0.0,8.0,-11.0
2863.0,2783.0,2847.0,3107.0,3009.0,0.389404,0.331787,-0.795532,-0.324646,1.0,0.0,-1.0,2756.0,6220.0,-4328.0,-554.0,-128.0,-347.0,588.0,270.0,-154.0,0.404141,0.774931,-0.485923,5588.0,12532.0,-8622.0,31.0,6.0,-3.0
2865.0,2783.0,2874.0,3119.0,2991.0,0.389099,0.332031,-0.795654,-0.324524,1.0,0.0,-1.0,2759.0,6243.0,-4330.0,-547.0,-104.0,-343.0,575.0,279.0,-134.0,0.403673,0.774804,-0.486597,5530.0,12642.0,-8652.0,35.0,13.0,-4.0
2859.0,2783.0,2863.0,3099.0,3015.0,0.388672,0.33252,-0.795715,-0.324341,0.0,0.0,-1.0,2781.0,6302.0,-4311.0,-519.0,-43.0,-317.0,523.0,299.0,-87.0,0.402845,0.774648,-0.487469,5636.0,12786.0,-8552.0,10.0,11.0,-3.0
2864.0,2777.0,2859.0,3103.0,2993.0,0.388489,0.332642,-0.795776,-0.324402,-1.0,0.0,-1.0,2786.0,6319.0,-4306.0,-511.0,-27.0,-310.0,509.0,304.0,-75.0,0.402481,0.774758,-0.48775,5578.0,12726.0,-8584.0,-7.0,10.0,-1.0
2850.0,2774.0,2847.0,3095.0,2991.0,0.388123,0.332886,-0.795715,-0.324585,-1.0,0.0,-1.0,2791.0,6306.0,-4301.0,-498.0,-42.0,-303.0,501.0,287.0,-84.0,0.401571,0.774955,-0.487981,5584.0,12514.0,-8674.0,-14.0,13.0,-4.0
2863.0,2791.0,2850.0,3103.0,2991.0,0.387939,0.333069,-0.795715,-0.324585,-1.0,0.0,-1.0,2785.0,6298.0,-4312.0,-501.0,-50.0,-312.0,513.0,282.0,-87.0,0.40116,0.774976,-0.488245,5526.0,12568.0,-8688.0,-3.0,13.0,-5.0
2861.0,2789.0,2863.0,3071.0,3007.0,0.387573,0.333435,-0.795776,-0.324646,-1.0,0.0,-1.0,2778.0,6292.0,-4305.0,-501.0,-58.0,-300.0,505.0,281.0,-98.0,0.400347,0.775152,-0.488831,5512.0,12494.0,-8602.0,-2.0,15.0,-2.0
2863.0,2790.0,2855.0,3095.0,2993.0,0.38739,0.333557,-0.795837,-0.324585,0.0,0.0,0.0,2766.0,6275.0,-4321.0,-511.0,-74.0,-313.0,525.0,277.0,-108.0,0.400064,0.775067,-0.489191,5446.0,12436.0,-8740.0,6.0,10.0,8.0
2863.0,2779.0,2846.0,3103.0,3003.0,0.38678,0.333801,-0.796143,-0.324219,2.0,-1.0,0.0,2775.0,6260.0,-4356.0,-497.0,-84.0,-337.0,541.0,254.0,-98.0,0.399414,0.774464,-0.49055,5616.0,12578.0,-8806.0,50.0,-4.0,22.0
2839.0,2781.0,2851.0,3103.0,3023.0,0.386475,0.333923,-0.796326,-0.323975,2.0,0.0,0.0,2788.0,6295.0,-4359.0,-481.0,-46.0,-334.0,520.0,264.0,-63.0,0.399154,0.774084,-0.491317,5642.0,12848.0,-8736.0,58.0,1.0,22.0
2845.0,2779.0,2861.0,3091.0,3007.0,0.386047,0.334229,-0.79657,-0.323669,0.0,0.0,0.0,2800.0,6380.0,-4338.0,-465.0,41.0,-303.0,462.0,309.0,-4.0,0.398668,0.773707,-0.492438,5596.0,12910.0,-8598.0,15.0,11.0,13.0
2863.0,2786.0,2854.0,3098.0,3013.0,0.385925,0.33429,-0.79657,-0.32373,-1.0,0.0,0.0,2798.0,6373.0,-4334.0,-465.0,34.0,-299.0,461.0,306.0,-11.0,0.398393,0.773769,-0.492533,5612.0,12636.0,-8664.0,-14.0,14.0,16.0
2855.0,2795.0,2845.0,3071.0,3011.0,0.385742,0.334473,-0.796631,-0.32373,0.0,0.0,0.0,2790.0,6305.0,-4332.0,-470.0,-34.0,-294.0,478.0,272.0,-68.0,0.39803,0.773828,-0.492894,5494.0,12408.0,-8692.0,3.0,22.0,15.0
2850.0,2781.0,2861.0,3103.0,3011.0,0.385559,0.334595,-0.796692,-0.323608,0.0,0.0,0.0,2770.0,6289.0,-4326.0,-488.0,-48.0,-284.0,483.0,281.0,-91.0,0.397788,0.773644,-0.493293,5464.0,12520.0,-8586.0,16.0,19.0,13.0
2859.0,2780.0,2858.0,3091.0,3011.0,0.385254,0.334778,-0.796753,-0.323547,-1.0,0.0,0.0,2762.0,6285.0,-4308.0,-492.0,-51.0,-262.0,467.0,288.0,-105.0,0.397271,0.773524,-0.493788,5534.0,12490.0,-8600.0,-6.0,10.0,13.0
2847.0,2785.0,2851.0,3099.0,2992.0,0.385071,0.334839,-0.796814,-0.323547,-1.0,0.0,0.0,2761.0,6254.0,-4316.0,-491.0,-82.0,-268.0,481.0,268.0,-125.0,0.396987,0.773487,-0.494067,5530.0,12282.0,-8692.0,-9.0,7.0,17.0
2849.0,2783.0,2849.0,3103.0,2991.0,0.384644,0.334961,-0.797058,-0.323364,1.0,-1.0,0.0,2771.0,6203.0,-4328.0,-477.0,-130.0,-273.0,492.0,229.0,-154.0,0.396538,0.773161,-0.494985,5560.0,12344.0,-8690.0,23.0,-4.0,16.0
2862.0,2795.0,2845.0,3103.0,3011.0,0.384399,0.335083,-0.79718,-0.323242,1.0,-1.0,0.0,2777.0,6205.0,-4326.0,-469.0,-127.0,-266.0,482.0,226.0,-152.0,0.396245,0.772976,-0.495528,5576.0,12438.0,-8630.0,32.0,-10.0,13.0
2854.0,2783.0,2855.0,3089.0,3007.0,0.383911,0.335266,-0.797363,-0.323181,-1.0,-1.0,0.0,2785.0,6264.0,-4286.0,-455.0,-66.0,-219.0,419.0,262.0,-122.0,0.39553,0.77281,-0.496358,5616.0,12698.0,-8504.0,-3.0,-4.0,1.0
2851.0,2769.0,2853.0,3093.0,3003.0,0.383728,0.335327,-0.797363,-0.323364,-2.0,0.0,-1.0,2791.0,6267.0,-4279.0,-445.0,-65.0,-212.0,408.0,256.0,-120.0,0.395076,0.773026,-0.496421,5598.0,12512.0,-8558.0,-28.0,3.0,-2.0
2851.0,2805.0,2834.0,3091.0,3007.0,0.383484,0.33551,-0.797302,-0.323608,-1.0,0.0,-1.0,2780.0,6222.0,-4299.0,-450.0,-113.0,-231.0,440.0,228.0,-150.0,0.394357,0.773353,-0.496476,5522.0,12294.0,-8656.0,-17.0,6.0,-4.0
2863.0,2781.0,2853.0,3099.0,3025.0,0.38324,0.335632,-0.797363,-0.323608,-1.0,0.0,0.0,2776.0,6209.0,-4301.0,-451.0,-126.0,-230.0,443.0,222.0,-160.0,0.393936,0.773322,-0.496842,5556.0,12392.0,-8582.0,-2.0,1.0,0.0
2863.0,2783.0,2871.0,3103.0,3003.0,0.382812,0.335876,-0.797485,-0.323608,0.0,-1.0,0.0,2772.0,6238.0,-4296.0,-449.0,-96.0,-220.0,425.0,240.0,-141.0,0.39319,0.773301,-0.497528,5598.0,12596.0,-8566.0,2.0,-7.0,1.0
2850.0,2783.0,2831.0,3094.0,3007.0,0.382629,0.335938,-0.797485,-0.323669,-1.0,-1.0,0.0,2778.0,6252.0,-4292.0,-439.0,-83.0,-215.0,413.0,241.0,-129.0,0.392817,0.773322,-0.49767,5596.0,12592.0,-8558.0,-7.0,-8.0,6.0
2864.0,2769.0,2847.0,3095.0,2999.0,0.382263,0.33606,-0.797607,-0.323792,0.0,0.0,0.0,2782.0,6243.0,-4299.0,-430.0,-93.0,-218.0,414.0,227.0,-131.0,0.392165,0.773443,-0.498148,5538.0,12420.0,-8640.0,2.0,1.0,7.0
2859.0,2790.0,2851.0,3091.0,3007.0,0.38208,0.336121,-0.797668,-0.32373,0.0,-1.0,0.0,2789.0,6243.0,-4302.0,-421.0,-91.0,-218.0,409.0,221.0,-126.0,0.391921,0.773309,-0.498465,5634.0,12514.0,-8610.0,12.0,-1.0,8.0
2.0,2787.0,2869.0,3103.0,3005.0,0.767395,0.221619,-0.60083,-0.029846,0.0,1.0,-1.0,7205.0,2865.0,1430.0,-240.0,-215.0,-41.0,19.0,-106.0,-306.0,0.908919,0.376003,0.179674,14636.0,5866.0,2822.0,22.0,30.0,-16.0
2860.0,2777.0,2845.0,3089.0,3007.0,0.767517,0.221741,-0.600708,-0.029785,0.0,1.0,-1.0,7235.0,2894.0,1415.0,-210.0,-187.0,-59.0,38.0,-84.0,-271.0,0.908898,0.376164,0.179951,14624.0,5968.0,2696.0,7.0,45.0,-20.0
2863.0,2781.0,2851.0,3103.0,3002.0,0.767883,0.221741,-0.60022,-0.029846,-1.0,2.0,-1.0,7281.0,2916.0,1381.0,-161.0,-167.0,-102.0,87.0,-68.0,-227.0,0.908561,0.376371,0.181103,14646.0,5848.0,2692.0,-15.0,67.0,-15.0
2859.0,2793.0,2851.0,3089.0,3007.0,0.768066,0.221741,-0.599976,-0.029785,-1.0,3.0,-1.0,7289.0,2918.0,1372.0,-152.0,-165.0,-116.0,102.0,-65.0,-221.0,0.908433,0.376364,0.181674,14648.0,5860.0,2702.0,-3.0,70.0,-13.0
2866.0,2791.0,2855.0,3091.0,3007.0,0.768494,0.221924,-0.599426,-0.029602,0.0,3.0,-1.0,7305.0,2962.0,1410.0,-134.0,-122.0,-88.0,71.0,-41.0,-183.0,0.908172,0.376583,0.182897,14664.0,6062.0,3010.0,14.0,77.0,-5.0
2839.0,2785.0,2847.0,3089.0,3007.0,0.768738,0.221985,-0.59906,-0.02948,0.0,3.0,0.0,7308.0,2974.0,1451.0,-129.0,-111.0,-53.0,37.0,-43.0,-168.0,0.907952,0.376617,0.183677,14624.0,5990.0,3140.0,14.0,80.0,3.0
2853.0,2771.0,2863.0,3101.0,2993.0,0.769226,0.222107,-0.598389,-0.028992,1.0,3.0,0.0,7279.0,2950.0,1529.0,-156.0,-133.0,12.0,-25.0,-74.0,-189.0,0.907714,0.376397,0.185149,14482.0,5792.0,3272.0,38.0,72.0,15.0
2863.0,2789.0,2851.0,3095.0,3007.0,0.76947,0.222168,-0.598145,-0.028625,2.0,3.0,1.0,7259.0,2938.0,1565.0,-177.0,-143.0,43.0,-58.0,-87.0,-206.0,0.907789,0.376148,0.185768,14380.0,5844.0,3356.0,59.0,71.0,36.0
2859.0,2783.0,2851.0,3071.0,3007.0,0.769836,0.222473,-0.597595,-0.027466,3.0,2.0,2.0,7163.0,2992.0,1629.0,-274.0,-82.0,98.0,-150.0,-19.0,-261.0,0.90788,0.375363,0.186788,13988.0,6246.0,3404.0,91.0,59.0,67.0
2855.0,2769.0,2851.0,3090.0,2998.0,0.769958,0.222656,-0.597351,-0.026855,4.0,2.0,3.0,7109.0,3030.0,1659.0,-328.0,-41.0,125.0,-200.0,25.0,-289.0,0.907912,0.374956,0.187153,13906.0,6244.0,3500.0,98.0,52.0,84.0
2850.0,2778.0,2846.0,3093.0,2999.0,0.770264,0.222839,-0.596985,-0.02533,4.0,2.0,5.0,7065.0,3043.0,1741.0,-376.0,-16.0,201.0,-291.0,37.0,-309.0,0.908383,0.373533,0.187899,14074.0,6092.0,3756.0,109.0,50.0,125.0
2855.0,2783.0,2859.0,3117.0,3003.0,0.770447,0.2229,-0.596741,-0.024414,4.0,2.0,5.0,7057.0,3044.0,1794.0,-386.0,-8.0,250.0,-341.0,31.0,-306.0,0.90863,0.372604,0.1884,14078.0,6082.0,3936.0,110.0,54.0,129.0
2851.0,2791.0,2862.0,3093.0,2998.0,0.770874,0.222839,-0.596252,-0.022888,2.0,2.0,4.0,6999.0,3060.0,1865.0,-448.0,21.0,311.0,-422.0,55.0,-340.0,0.90907,0.370856,0.189596,13756.0,6202.0,3922.0,62.0,52.0,111.0
2853.0,2783.0,2850.0,3071.0,2995.0,0.771179,0.222717,-0.595947,-0.0224,0.0,1.0,4.0,6956.0,3068.0,1876.0,-492.0,35.0,315.0,-442.0,79.0,-374.0,0.909187,0.370208,0.190463,13658.0,6140.0,3782.0,20.0,45.0,102.0
2851.0,2779.0,2845.0,3095.0,3013.0,0.77179,0.221985,-0.595459,-0.021667,-2.0,2.0,4.0,6888.0,3027.0,1867.0,-562.0,8.0,291.0,-435.0,82.0,-452.0,0.909518,0.368455,0.19228,13574.0,5860.0,3656.0,-28.0,56.0,102.0
2863.0,2789.0,2853.0,3103.0,2997.0,0.772156,0.221558,-0.595154,-0.021362,-2.0,2.0,4.0,6865.0,2991.0,1859.0,-586.0,-20.0,274.0,-420.0,69.0,-487.0,0.909637,0.367582,0.193385,13594.0,5752.0,3684.0,-36.0,61.0,95.0
2859.0,2789.0,2863.0,3107.0,3003.0,0.772827,0.220581,-0.594666,-0.020691,-1.0,2.0,3.0,6856.0,2828.0,1827.0,-598.0,-166.0,226.0,-346.0,-45.0,-560.0,0.910019,0.36555,0.195407,13684.0,5058.0,3450.0,-11.0,68.0,87.0
2847.0,2775.0,2850.0,3103.0,2993.0,0.773132,0.220215,-0.594421,-0.020203,0.0,2.0,3.0,6848.0,2724.0,1788.0,-608.0,-262.0,179.0,-283.0,-114.0,-613.0,0.910235,0.364528,0.19631,13630.0,4796.0,3344.0,15.0,58.0,74.0
2859.0,2777.0,2855.0,3095.0,3005.0,0.773376,0.220215,-0.594116,-0.019043,3.0,1.0,2.0,6817.0,2611.0,1666.0,-642.0,-364.0,52.0,-151.0,-158.0,-706.0,0.910564,0.363245,0.197005,13516.0,5124.0,2884.0,90.0,42.0,49.0
2865.0,2793.0,2853.0,3103.0,3007.0,0.773376,0.220459,-0.594055,-0.018494,4.0,1.0,1.0,6819.0,2620.0,1617.0,-641.0,-353.0,3.0,-108.0,-133.0,-711.0,0.910702,0.362968,0.196949,13670.0,5376.0,2998.0,92.0,27.0,30.0
2863.0,2791.0,2858.0,3095.0,3014.0,0.773315,0.221069,-0.593933,-0.018066,2.0,0.0,-2.0,6872.0,2700.0,1561.0,-587.0,-276.0,-50.0,-61.0,-62.0,-644.0,0.910607,0.363373,0.196715,13992.0,5574.0,3014.0,53.0,7.0,-24.0
2855.0,2775.0,2850.0,3103.0,3007.0,0.773254,0.221375,-0.593933,-0.018066,1.0,-1.0,-2.0,6916.0,2708.0,1533.0,-543.0,-272.0,-76.0,-25.0,-62.0,-608.0,0.910524,0.363818,0.196486,14068.0,5416.0,2842.0,38.0,-2.0,-40.0
2855.0,2783.0,2845.0,3093.0,2993.0,0.772827,0.222046,-0.594238,-0.017883,4.0,-2.0,-2.0,7004.0,2661.0,1420.0,-455.0,-324.0,-178.0,108.0,-101.0,-567.0,0.910545,0.36446,0.195158,14364.0,5184.0,2558.0,102.0,-37.0,-29.0
2855.0,2789.0,2859.0,3095.0,3005.0,0.772461,0.222656,-0.594482,-0.017517,6.0,-2.0,-2.0,7058.0,2656.0,1372.0,-401.0,-332.0,-217.0,162.0,-111.0,-528.0,0.910628,0.364814,0.194018,14430.0,5296.0,2450.0,160.0,-40.0,-24.0
2859.0,2789.0,2865.0,3099.0,3007.0,0.771423,0.224548,-0.595093,-0.016418,9.0,-3.0,-2.0,7175.0,2749.0,1279.0,-285.0,-249.0,-284.0,240.0,-47.0,-404.0,0.910763,0.365985,0.190806,14774.0,5956.0,2374.0,228.0,-46.0,-30.0
2853.0,2783.0,2846.0,3098.0,3003.0,0.770935,0.225647,-0.595398,-0.01593,9.0,-2.0,-2.0,7237.0,2821.0,1251.0,-224.0,-184.0,-298.0,255.0,-1.0,-327.0,0.910837,0.366888,0.189179,14820.0,6042.0,2356.0,221.0,-41.0,-35.0
2854.0,2783.0,2850.0,3095.0,3005.0,0.770081,0.2276,-0.595764,-0.015198,7.0,-2.0,-3.0,7289.0,2940.0,1239.0,-171.0,-79.0,-288.0,236.0,75.0,-238.0,0.910655,0.368649,0.186518,14660.0,6296.0,2508.0,163.0,-24.0,-57.0
2855.0,2790.0,2859.0,3095.0,3007.0,0.769775,0.228455,-0.595825,-0.015137,5.0,-1.0,-4.0,7293.0,2999.0,1265.0,-164.0,-30.0,-255.0,195.0,106.0,-207.0,0.910387,0.369755,0.185584,14598.0,6316.0,2726.0,116.0,-20.0,-73.0
2863.0,2783.0,2859.0,3095.0,3006.0,0.76947,0.229614,-0.595764,-0.015625,1.0,-1.0,-5.0,7306.0,3034.0,1330.0,-146.0,-13.0,-182.0,129.0,92.0,-171.0,0.90967,0.37198,0.184671,14688.0,6024.0,2798.0,33.0,-7.0,-92.0
2855.0,2783.0,2850.0,3099.0,3003.0,0.769409,0.22998,-0.595642,-0.015869,0.0,0.0,-4.0,7325.0,3011.0,1374.0,-123.0,-43.0,-137.0,101.0,44.0,-153.0,0.909286,0.372803,0.184562,14758.0,5870.0,3024.0,20.0,5.0,-79.0
2859.0,2783.0,2851.0,3095.0,3003.0,0.76947,0.230591,-0.595398,-0.016052,2.0,0.0,-3.0,7317.0,2982.0,1426.0,-128.0,-81.0,-86.0,62.0,-5.0,-162.0,0.908879,0.37398,0.184671,14564.0,5958.0,2940.0,52.0,16.0,-53.0
2863.0,2789.0,2863.0,3103.0,3007.0,0.769409,0.231018,-0.595276,-0.015991,2.0,0.0,-2.0,7303.0,2998.0,1443.0,-140.0,-70.0,-68.0,39.0,2.0,-165.0,0.908633,0.374533,0.184523,14534.0,6146.0,3000.0,64.0,7.0,-44.0
2855.0,2783.0,2863.0,3102.0,3019.0,0.769287,0.231689,-0.595154,-0.016052,1.0,0.0,-2.0,7282.0,3075.0,1453.0,-158.0,-1.0,-55.0,5.0,65.0,-154.0,0.90825,0.375579,0.184172,14518.0,6448.0,2882.0,28.0,2.0,-30.0
2855.0,2786.0,2854.0,3099.0,3003.0,0.769287,0.231873,-0.595093,-0.016235,-1.0,0.0,-2.0,7271.0,3109.0,1451.0,-167.0,28.0,-57.0,-3.0,94.0,-151.0,0.908065,0.376076,0.184166,14480.0,6386.0,2906.0,-3.0,3.0,-31.0
2850.0,2785.0,2855.0,3099.0,2999.0,0.769348,0.231934,-0.594971,-0.016785,-2.0,0.0,-2.0,7247.0,3084.0,1442.0,-188.0,-3.0,-68.0,8.0,76.0,-184.0,0.907693,0.376848,0.184395,14390.0,5986.0,2852.0,-44.0,2.0,-43.0
2855.0,2788.0,2857.0,3099.0,3005.0,0.769409,0.231873,-0.594971,-0.017151,-3.0,-1.0,-3.0,7232.0,3040.0,1441.0,-203.0,-50.0,-70.0,17.0,40.0,-216.0,0.907598,0.377218,0.18453,14378.0,5798.0,2880.0,-50.0,-3.0,-53.0
2859.0,2789.0,2855.0,3088.0,3003.0,0.769409,0.23175,-0.59491,-0.017822,-2.0,-1.0,-3.0,7220.0,2963.0,1444.0,-211.0,-132.0,-68.0,34.0,-30.0,-253.0,0.907197,0.377827,0.184682,14458.0,5766.0,2886.0,-44.0,-16.0,-53.0
2855.0,2783.0,2851.0,3093.0,3007.0,0.769409,0.231689,-0.594971,-0.018188,-3.0,-1.0,-3.0,7225.0,2950.0,1448.0,-206.0,-147.0,-64.0,35.0,-47.0,-254.0,0.907124,0.378171,0.184651,14496.0,5834.0,2926.0,-48.0,-21.0,-53.0
2855.0,2785.0,2855.0,3099.0,3007.0,0.769409,0.231506,-0.595032,-0.018921,-3.0,-1.0,-3.0,7271.0,2942.0,1439.0,-158.0,-160.0,-73.0,60.0,-70.0,-217.0,0.906885,0.378763,0.184691,14690.0,5872.0,2774.0,-54.0,-14.0,-50.0
2858.0,2786.0,2862.0,3103.0,3011.0,0.769409,0.231445,-0.595032,-0.019287,-2.0,-1.0,-3.0,7293.0,2939.0,1422.0,-134.0,-166.0,-91.0,85.0,-76.0,-201.0,0.906718,0.379105,0.184733,14716.0,5866.0,2744.0,-45.0,-5.0,-49.0
2859.0,2791.0,2859.0,3103.0,3007.0,0.769409,0.231384,-0.595032,-0.019836,-2.0,0.0,-3.0,7302.0,2950.0,1399.0,-123.0,-160.0,-114.0,108.0,-67.0,-193.0,0.906466,0.379665,0.184783,14608.0,5970.0,2802.0,-42.0,2.0,-50.0
2859.0,2783.0,2743.0,3099.0,2995.0,0.76947,0.231323,-0.594971,-0.020203,-3.0,0.0,-3.0,7316.0,2968.0,1398.0,-108.0,-145.0,-117.0,112.0,-57.0,-174.0,0.906278,0.380033,0.184992,14746.0,6082.0,2786.0,-53.0,7.0,-53.0
2857.0,2783.0,2861.0,3103.0,2999.0,0.769714,0.231079,-0.594666,-0.020935,-4.0,2.0,-3.0,7341.0,2988.0,1394.0,-79.0,-130.0,-128.0,126.0,-49.0,-144.0,0.90577,0.380629,0.185874,14752.0,6008.0,2790.0,-76.0,47.0,-50.0
2858.0,2790.0,2864.0,3107.0,3007.0,0.77002,0.230896,-0.594421,-0.021301,-4.0,2.0,-2.0,7333.0,2998.0,1399.0,-85.0,-122.0,-130.0,124.0,-39.0,-147.0,0.905595,0.380913,0.186734,14578.0,6060.0,2838.0,-78.0,66.0,-41.0
2859.0,2783.0,2852.0,3103.0,3007.0,0.77063,0.23053,-0.593689,-0.021912,-4.0,3.0,-2.0,7283.0,3045.0,1448.0,-130.0,-78.0,-98.0,71.0,2.0,-165.0,0.904926,0.381324,0.18874,14420.0,6292.0,3120.0,-83.0,79.0,-29.0
2861.0,2787.0,2850.0,3095.0,2995.0,0.771057,0.230225,-0.593262,-0.022156,-4.0,3.0,-1.0,7258.0,3074.0,1493.0,-153.0,-49.0,-63.0,24.0,23.0,-169.0,0.904676,0.381321,0.190057,14376.0,6268.0,3236.0,-90.0,82.0,-12.0
2859.0,2786.0,2859.0,3099.0,3005.0,0.771851,0.229431,-0.592529,-0.022339,-4.0,3.0,2.0,7223.0,3089.0,1582.0,-186.0,-29.0,4.0,-52.0,29.0,-178.0,0.904438,0.380646,0.192523,14380.0,6160.0,3470.0,-78.0,81.0,52.0
2858.0,2795.0,2859.0,3103.0,3011.0,0.772217,0.228943,-0.592224,-0.022156,-3.0,3.0,3.0,7212.0,3090.0,1639.0,-197.0,-21.0,52.0,-101.0,24.0,-176.0,0.904506,0.379829,0.193665,14336.0,6200.0,3620.0,-58.0,73.0,80.0
2859.0,2794.0,2864.0,3103.0,3011.0,0.772888,0.228027,-0.591736,-0.021606,-2.0,2.0,4.0,7183.0,3141.0,1725.0,-229.0,44.0,122.0,-191.0,68.0,-166.0,0.904838,0.37805,0.195675,14274.0,6516.0,3750.0,-42.0,55.0,102.0
2862.0,2786.0,2858.0,3103.0,3007.0,0.773254,0.227478,-0.591492,-0.021362,-3.0,2.0,4.0,7156.0,3184.0,1762.0,-257.0,95.0,150.0,-238.0,113.0,-167.0,0.905028,0.377068,0.19677,14122.0,6616.0,3736.0,-64.0,53.0,108.0
2851.0,2791.0,2855.0,3091.0,3007.0,0.77417,0.226013,-0.590881,-0.021301,-7.0,2.0,4.0,7049.0,3261.0,1837.0,-366.0,188.0,202.0,-340.0,212.0,-220.0,0.905256,0.375118,0.19957,13640.0,6636.0,3848.0,-156.0,67.0,114.0
2857.0,2781.0,2849.0,3095.0,2999.0,0.774719,0.225037,-0.590515,-0.021423,-9.0,3.0,4.0,6973.0,3257.0,1861.0,-443.0,193.0,211.0,-373.0,237.0,-286.0,0.905325,0.373982,0.201299,13502.0,6476.0,3876.0,-188.0,72.0,110.0
2859.0,2791.0,2863.0,3099.0,3010.0,0.776001,0.222778,-0.589661,-0.021973,-10.0,3.0,3.0,6844.0,3159.0,1935.0,-572.0,114.0,252.0,-432.0,191.0,-423.0,0.905364,0.371665,0.20533,13294.0,5930.0,4188.0,-221.0,84.0,88.0
2861.0,2782.0,2865.0,3099.0,3007.0,0.776672,0.221558,-0.589172,-0.022339,-11.0,3.0,3.0,6774.0,3085.0,1968.0,-642.0,50.0,268.0,-454.0,149.0,-507.0,0.905289,0.370478,0.207507,13080.0,5782.0,3986.0,-247.0,75.0,73.0
2885.0,2789.0,2855.0,3089.0,3007.0,0.777954,0.219177,-0.588379,-0.023315,-9.0,2.0,1.0,6728.0,2869.0,2042.0,-687.0,-149.0,309.0,-463.0,-29.0,-611.0,0.905243,0.368456,0.211528,13368.0,5054.0,4104.0,-204.0,49.0,32.0
2859.0,2787.0,2866.0,3099.0,3007.0,0.778381,0.218323,-0.588074,-0.023682,-7.0,1.0,0.0,6723.0,2754.0,2015.0,-691.0,-258.0,270.0,-405.0,-114.0,-662.0,0.905151,0.36773,0.212943,13422.0,4800.0,3816.0,-149.0,36.0,9.0
2855.0,2787.0,2867.0,3103.0,3007.0,0.77887,0.21759,-0.587708,-0.023743,-1.0,1.0,-1.0,6737.0,2622.0,1925.0,-678.0,-383.0,168.0,-280.0,-200.0,-718.0,0.905163,0.366857,0.214456,13486.0,5084.0,3628.0,-7.0,26.0,-1.0
2859.0,2795.0,2851.0,3119.0,3014.0,0.778992,0.217651,-0.587585,-0.023682,1.0,0.0,-1.0,6718.0,2624.0,1889.0,-696.0,-381.0,129.0,-250.0,-180.0,-742.0,0.90514,0.366927,0.21476,13282.0,5292.0,3560.0,36.0,13.0,-15.0
2861.0,2791.0,2847.0,3088.0,3003.0,0.778931,0.218201,-0.587463,-0.023621,2.0,-2.0,-2.0,6657.0,2652.0,1880.0,-755.0,-360.0,122.0,-266.0,-142.0,-789.0,0.904878,0.367679,0.214566,13084.0,5394.0,3798.0,56.0,-27.0,-34.0
2863.0,2786.0,2865.0,3099.0,3013.0,0.778809,0.218506,-0.587463,-0.023621,2.0,-3.0,-2.0,6612.0,2666.0,1898.0,-799.0,-349.0,142.0,-301.0,-125.0,-820.0,0.904721,0.368101,0.214243,12942.0,5394.0,3946.0,55.0,-49.0,-40.0
2850.0,2779.0,2865.0,3095.0,3003.0,0.778442,0.219116,-0.587708,-0.023987,2.0,-5.0,-3.0,6495.0,2633.0,1944.0,-914.0,-392.0,197.0,-377.0,-146.0,-929.0,0.904481,0.369333,0.213136,12598.0,5032.0,4038.0,53.0,-105.0,-58.0
2851.0,2783.0,2839.0,3095.0,3007.0,0.778076,0.219482,-0.588013,-0.02417,3.0,-7.0,-3.0,6437.0,2572.0,1956.0,-972.0,-458.0,218.0,-399.0,-194.0,-1002.0,0.904428,0.369973,0.212055,12526.0,4750.0,3950.0,79.0,-139.0,-64.0
2866.0,2781.0,2851.0,3109.0,2993.0,0.777039,0.220642,-0.58905,-0.024231,6.0,-9.0,-4.0,6334.0,2440.0,1974.0,-1077.0,-602.0,264.0,-439.0,-305.0,-1142.0,0.904737,0.371441,0.208713,12338.0,4468.0,3978.0,154.0,-192.0,-71.0
2851.0,2795.0,2877.0,3091.0,3003.0,0.776306,0.221436,-0.589661,-0.024109,8.0,-10.0,-4.0,6281.0,2380.0,1969.0,-1131.0,-669.0,277.0,-450.0,-352.0,-1215.0,0.904837,0.372236,0.206499,12252.0,4430.0,3880.0,188.0,-211.0,-71.0
2854.0,2786.0,2863.0,3099.0,3011.0,0.774658,0.22345,-0.591125,-0.023865,10.0,-11.0,-5.0,6088.0,2324.0,1944.0,-1327.0,-743.0,294.0,-501.0,-361.0,-1420.0,0.905175,0.374408,0.201306,11450.0,4724.0,3870.0,238.0,-246.0,-105.0
2839.0,2785.0,2847.0,3091.0,3023.0,0.773743,0.224731,-0.591797,-0.023987,10.0,-12.0,-7.0,5942.0,2348.0,1939.0,-1471.0,-733.0,312.0,-560.0,-311.0,-1545.0,0.905016,0.376159,0.198525,10968.0,4796.0,3860.0,233.0,-264.0,-145.0
2855.0,2770.0,2855.0,3089.0,3005.0,0.77179,0.2276,-0.593201,-0.025085,8.0,-14.0,-11.0,5582.0,2360.0,1975.0,-1825.0,-761.0,397.0,-730.0,-245.0,-1863.0,0.904233,0.38108,0.1926,9896.0,4658.0,4132.0,203.0,-311.0,-241.0
2846.0,2786.0,2815.0,3090.0,2999.0,0.770752,0.229187,-0.593872,-0.026184,7.0,-15.0,-14.0,5342.0,2296.0,2008.0,-2059.0,-852.0,455.0,-828.0,-264.0,-2101.0,0.903454,0.384393,0.189533,9198.0,4128.0,4250.0,178.0,-335.0,-309.0
2864.0,2800.0,2846.0,3089.0,3011.0,0.768433,0.232849,-0.595276,-0.029236,9.0,-20.0,-21.0,4790.0,1985.0,2158.0,-2592.0,-1231.0,660.0,-1077.0,-473.0,-2698.0,0.901244,0.392664,0.182771,7744.0,2968.0,4900.0,226.0,-444.0,-464.0
2855.0,2773.0,2869.0,3111.0,3003.0,0.765442,0.237366,-0.597168,-0.03363,9.0,-28.0,-28.0,4133.0,1538.0,2614.0,-3225.0,-1767.0,1187.0,-1611.0,-867.0,-3403.0,0.898229,0.403545,0.17408,6262.0,1372.0,7172.0,229.0,-625.0,-620.0
2865.0,2783.0,2857.0,3099.0,3011.0,0.763855,0.239624,-0.598145,-0.036316,10.0,-31.0,-31.0,3802.0,1110.0,3092.0,-3541.0,-2244.0,1702.0,-2063.0,-1317.0,-3804.0,0.896387,0.40952,0.169597,5652.0,-698.0,9424.0,234.0,-702.0,-692.0
2865.0,2787.0,2864.0,3107.0,2991.0,0.761536,0.243835,-0.598999,-0.04187,12.0,-32.0,-40.0,3041.0,-46.0,4683.0,-4265.0,-3499.0,3344.0,-3509.0,-2626.0,-4732.0,0.891899,0.421539,0.163434,3416.0,-3206.0,14894.0,296.0,-725.0,-910.0
2862.0,2783.0,2867.0,3091.0,3007.0,0.152893,-0.027893,0.344727,-1.21228,-21038.0,3240.0,-2381.0,-25372.0,-26994.0,23002.0,-25062.0,-20077.0,11751.0,-31355.0,26717.0,-31499.0,-0.037784,-0.84434,1.373385,-808.0,-2320.0,17566.0,128.0,-954.0,-1823.0
2859.0,2798.0,2855.0,3111.0,2991.0,0.758179,0.256226,-0.59613,-0.064331,-2.0,-58.0,-109.0,1014.0,-800.0,7013.0,-6121.0,-4611.0,5719.0,-6119.0,-3283.0,-6573.0,0.87098,0.465229,0.15795,-2744.0,-2390.0,16744.0,-43.0,-1307.0,-2490.0
2864.0,2799.0,2862.0,3095.0,2999.0,0.74823,0.270142,-0.598022,-0.097229,-15.0,-112.0,-150.0,-311.0,-817.0,7108.0,-7211.0,-5081.0,5971.0,-6671.0,-2583.0,-7891.0,0.842385,0.520546,0.138694,-3854.0,-1252.0,13032.0,-336.0,-2546.0,-3421.0
2847.0,2778.0,2849.0,3099.0,3013.0,0.725525,0.28479,-0.611206,-0.137512,-6.0,-178.0,-150.0,-698.0,-521.0,5928.0,-7321.0,-5283.0,5185.0,-5793.0,-1487.0,-8520.0,0.808566,0.581341,0.090618,-1244.0,138.0,7134.0,-122.0,-4055.0,-3416.0
2859.0,2795.0,2855.0,3090.0,3003.0,0.708801,0.292603,-0.622498,-0.156616,15.0,-203.0,-142.0,-491.0,-124.0,4959.0,-6969.0,-5119.0,4518.0,-4899.0,-898.0,-8389.0,0.790802,0.609781,0.053808,574.0,2644.0,3674.0,365.0,-4644.0,-3233.0
2864.0,2794.0,2845.0,3071.0,3005.0,0.666321,0.312012,-0.650513,-0.188416,62.0,-220.0,-126.0,722.0,1923.0,2758.0,-5416.0,-3491.0,3094.0,-2953.0,466.0,-6492.0,0.749325,0.660933,-0.041034,6206.0,12958.0,-678.0,1426.0,-5037.0,-2880.0
2847.0,2787.0,2854.0,3103.0,3023.0,0.621033,0.334412,-0.674866,-0.21698,52.0,-192.0,-127.0,2266.0,6568.0,618.0,-3411.0,766.0,1719.0,-1812.0,2770.0,-2052.0,0.693106,0.708226,-0.134513,8586.0,30224.0,-5864.0,1198.0,-4394.0,-2902.0
2863.0,2797.0,2831.0,3071.0,3023.0,0.60022,0.344543,-0.682617,-0.23468,10.0,-174.0,-134.0,2800.0,9171.0,-925.0,-2588.0,3158.0,462.0,-940.0,3963.0,537.0,0.657726,0.733997,-0.169338,8818.0,32767.0,-11456.0,232.0,-3964.0,-3050.0
2869.0,2785.0,2879.0,3103.0,3021.0,0.566895,0.353271,-0.68927,-0.280579,-103.0,-144.0,-129.0,3789.0,12489.0,-4360.0,-988.0,6039.0,-2723.0,1754.0,4413.0,4722.0,0.583246,0.787324,-0.1998,9164.0,32767.0,-21240.0,-2347.0,-3286.0,-2936.0
2859.0,2795.0,2875.0,3119.0,2999.0,0.538574,0.347046,-0.693115,-0.330383,-135.0,-146.0,-93.0,4328.0,12813.0,-8460.0,90.0,5998.0,-6808.0,5876.0,2595.0,6408.0,0.517272,0.831807,-0.201634,10964.0,20142.0,-27184.0,-3081.0,-3331.0,-2118.0
2861.0,2781.0,2855.0,3115.0,3011.0,0.509338,0.341797,-0.705688,-0.354675,-2.0,-119.0,-49.0,5149.0,10456.0,-10304.0,1246.0,3502.0,-8423.0,7364.0,-532.0,5499.0,0.476415,0.848761,-0.229601,12580.0,16668.0,-22622.0,-39.0,-2708.0,-1121.0
2864.0,2783.0,2863.0,3107.0,2999.0,0.494446,0.34436,-0.714844,-0.354919,62.0,-98.0,-33.0,5260.0,10568.0,-10630.0,1471.0,3621.0,-8507.0,7178.0,-810.0,5955.0,0.462463,0.847959,-0.259141,10632.0,23168.0,-23352.0,1425.0,-2236.0,-745.0
2864.0,2790.0,2852.0,3071.0,3007.0,0.466431,0.350708,-0.733887,-0.347717,76.0,-82.0,-2.0,5261.0,12212.0,-10394.0,1650.0,5350.0,-7746.0,5647.0,-63.0,7710.0,0.44072,0.837532,-0.323121,10784.0,29710.0,-17886.0,1748.0,-1865.0,-43.0
2864.0,2799.0,2851.0,3095.0,3015.0,0.44873,0.352112,-0.746155,-0.343445,33.0,-50.0,4.0,5152.0,12966.0,-9044.0,1647.0,6178.0,-6083.0,3627.0,620.0,8021.0,0.427783,0.828533,-0.361416,9432.0,26062.0,-13814.0,760.0,-1144.0,114.0
2865.0,2790.0,2867.0,3088.0,2995.0,0.443604,0.351379,-0.749329,-0.343933,8.0,-39.0,3.0,4866.0,12626.0,-8260.0,1399.0,5849.0,-5229.0,2941.0,792.0,7364.0,0.423108,0.827184,-0.369887,7736.0,22770.0,-11656.0,198.0,-891.0,70.0
2849.0,2791.0,2851.0,3119.0,3003.0,0.436523,0.347656,-0.752441,-0.349854,-24.0,-38.0,1.0,3853.0,10685.0,-7212.0,464.0,3885.0,-4147.0,2712.0,685.0,4967.0,0.413659,0.830009,-0.374083,4476.0,14200.0,-12414.0,-536.0,-860.0,28.0
2864.0,2779.0,2859.0,3103.0,3007.0,0.432495,0.344727,-0.754578,-0.353333,-24.0,-47.0,3.0,3464.0,9311.0,-6886.0,112.0,2500.0,-3803.0,2828.0,295.0,3555.0,0.409096,0.831419,-0.376328,4908.0,10152.0,-11698.0,-542.0,-1061.0,86.0
2864.0,2790.0,2863.0,3107.0,2999.0,0.422363,0.339172,-0.761719,-0.355469,11.0,-49.0,9.0,3064.0,6978.0,-6229.0,-231.0,194.0,-3029.0,2732.0,-483.0,1250.0,0.402314,0.828042,-0.390505,5246.0,8888.0,-10626.0,269.0,-1118.0,219.0
2861.0,2789.0,2864.0,3071.0,3013.0,0.412415,0.336792,-0.769958,-0.351685,30.0,-34.0,8.0,2963.0,6612.0,-5385.0,-299.0,-100.0,-2005.0,1900.0,-339.0,626.0,0.398195,0.819361,-0.412497,5588.0,14000.0,-8080.0,693.0,-771.0,206.0
2855.0,2793.0,2859.0,3099.0,2991.0,0.408691,0.33667,-0.772705,-0.350098,24.0,-25.0,4.0,2824.0,6878.0,-5056.0,-418.0,191.0,-1608.0,1533.0,10.0,667.0,0.395861,0.816233,-0.420823,4690.0,15470.0,-8352.0,568.0,-564.0,103.0
2847.0,2795.0,2867.0,3071.0,3014.0,0.402893,0.336731,-0.775696,-0.35022,2.0,-19.0,-2.0,2533.0,7095.0,-4830.0,-655.0,421.0,-1306.0,1317.0,394.0,649.0,0.389185,0.814661,-0.430115,4626.0,13774.0,-9156.0,65.0,-433.0,-44.0
2843.0,2771.0,2864.0,3099.0,3021.0,0.400574,0.336609,-0.77655,-0.351013,-1.0,-17.0,-4.0,2513.0,6938.0,-4753.0,-647.0,262.0,-1208.0,1266.0,325.0,486.0,0.385823,0.814832,-0.432666,4950.0,12836.0,-9054.0,0.0,-375.0,-70.0
2859.0,2791.0,2847.0,3101.0,3011.0,0.396912,0.336609,-0.777954,-0.352112,0.0,-12.0,-4.0,2509.0,6684.0,-4562.0,-608.0,7.0,-982.0,1116.0,216.0,203.0,0.38051,0.815062,-0.436997,4924.0,12840.0,-8586.0,10.0,-266.0,-89.0
2863.0,2791.0,2847.0,3087.0,3003.0,0.395325,0.33667,-0.778503,-0.352722,-1.0,-11.0,-4.0,2491.0,6638.0,-4470.0,-605.0,-41.0,-876.0,1036.0,216.0,122.0,0.378021,0.815379,-0.43872,4892.0,13084.0,-8326.0,-13.0,-249.0,-84.0
2853.0,2767.0,2845.0,3099.0,3007.0,0.392761,0.336487,-0.779053,-0.35437,-5.0,-9.0,-3.0,2516.0,6661.0,-4260.0,-543.0,-27.0,-653.0,814.0,233.0,62.0,0.373482,0.816464,-0.440307,5256.0,13328.0,-8006.0,-99.0,-203.0,-63.0
2853.0,2791.0,2859.0,3103.0,2985.0,0.391968,0.336304,-0.779175,-0.355225,-5.0,-7.0,-2.0,2568.0,6642.0,-4167.0,-478.0,-52.0,-559.0,710.0,194.0,25.0,0.371896,0.817205,-0.44039,5506.0,13152.0,-7698.0,-104.0,-153.0,-45.0
2867.0,2787.0,2859.0,3103.0,2997.0,0.391174,0.336304,-0.779297,-0.355835,0.0,-1.0,-2.0,2646.0,6529.0,-4019.0,-387.0,-169.0,-408.0,568.0,103.0,-101.0,0.370345,0.817709,-0.440768,5326.0,12600.0,-7780.0,21.0,-15.0,-31.0
2855.0,2783.0,2863.0,3102.0,2999.0,0.390808,0.33667,-0.779541,-0.355347,5.0,0.0,-1.0,2637.0,6449.0,-3985.0,-394.0,-245.0,-363.0,552.0,83.0,-185.0,0.370033,0.817161,-0.442029,5214.0,12416.0,-7750.0,119.0,5.0,-12.0
2863.0,2772.0,2863.0,3099.0,3015.0,0.389587,0.337646,-0.78064,-0.353333,12.0,-2.0,1.0,2628.0,6404.0,-3863.0,-400.0,-270.0,-202.0,426.0,121.0,-277.0,0.369652,0.814736,-0.446781,5206.0,13066.0,-7262.0,279.0,-28.0,30.0
2864.0,2791.0,2847.0,3103.0,2999.0,0.388794,0.338074,-0.781311,-0.352295,11.0,-3.0,1.0,2632.0,6502.0,-3785.0,-393.0,-161.0,-102.0,311.0,201.0,-230.0,0.369335,0.813386,-0.449468,5300.0,13672.0,-7104.0,268.0,-68.0,36.0
2859.0,2783.0,2875.0,3103.0,3010.0,0.387268,0.33844,-0.782288,-0.35144,5.0,-6.0,0.0,2700.0,6702.0,-3619.0,-314.0,50.0,92.0,57.0,304.0,-116.0,0.368027,0.811989,-0.453029,5718.0,13856.0,-6778.0,117.0,-115.0,0.0
2855.0,2781.0,2850.0,3090.0,2995.0,0.386719,0.338379,-0.782471,-0.351685,1.0,-6.0,-1.0,2739.0,6734.0,-3566.0,-268.0,81.0,149.0,-20.0,300.0,-100.0,0.367187,0.812081,-0.453527,5710.0,13546.0,-6830.0,25.0,-115.0,-16.0
2843.0,2778.0,2847.0,3095.0,3003.0,0.385803,0.338135,-0.782654,-0.3526,-2.0,-5.0,-2.0,2764.0,6638.0,-3645.0,-229.0,-20.0,71.0,53.0,193.0,-132.0,0.365448,0.812835,-0.453711,5538.0,12900.0,-7698.0,-44.0,-112.0,-40.0
2863.0,2783.0,2835.0,3069.0,3007.0,0.385132,0.338135,-0.782776,-0.353027,-2.0,-6.0,-3.0,2781.0,6591.0,-3703.0,-202.0,-70.0,17.0,99.0,130.0,-138.0,0.364202,0.813136,-0.454118,5720.0,12940.0,-7698.0,-30.0,-116.0,-55.0
2943.0,2787.0,2859.0,3088.0,3015.0,0.383972,0.33844,-0.78302,-0.353455,0.0,-4.0,-4.0,2856.0,6549.0,-3811.0,-110.0,-114.0,-81.0,149.0,4.0,-95.0,0.362069,0.813427,-0.455297,5884.0,13138.0,-8052.0,22.0,-80.0,-78.0
2865.0,2787.0,2863.0,3101.0,3007.0,0.383423,0.338684,-0.783142,-0.353577,1.0,-3.0,-4.0,2892.0,6602.0,-3838.0,-65.0,-62.0,-102.0,132.0,-10.0,-27.0,0.361048,0.81352,-0.455989,5980.0,13600.0,-7774.0,29.0,-66.0,-79.0
2854.0,2786.0,2827.0,3093.0,3007.0,0.382629,0.339233,-0.782959,-0.354248,-2.0,-2.0,-5.0,2913.0,6792.0,-3861.0,-26.0,121.0,-123.0,84.0,47.0,145.0,0.358821,0.814325,-0.456207,5848.0,14080.0,-7738.0,-42.0,-44.0,-94.0
2855.0,2791.0,2853.0,3089.0,3007.0,0.382385,0.339478,-0.782715,-0.354858,-4.0,-2.0,-5.0,2926.0,6822.0,-3875.0,-3.0,144.0,-141.0,82.0,35.0,180.0,0.357664,0.815128,-0.455745,5936.0,13712.0,-7824.0,-84.0,-41.0,-92.0
2903.0,2791.0,2847.0,3095.0,2999.0,0.38208,0.339783,-0.782227,-0.355957,-4.0,-1.0,-5.0,2939.0,6819.0,-3905.0,23.0,130.0,-180.0,106.0,-4.0,196.0,0.35585,0.816527,-0.45464,5906.0,13698.0,-7884.0,-83.0,-6.0,-94.0
2855.0,2769.0,2839.0,3093.0,3003.0,0.38208,0.340088,-0.781921,-0.356384,-3.0,0.0,-4.0,2947.0,6823.0,-3913.0,37.0,128.0,-193.0,111.0,-21.0,205.0,0.355109,0.817211,-0.454066,5932.0,13704.0,-7940.0,-63.0,21.0,-89.0
2859.0,2782.0,2847.0,3101.0,2994.0,0.382507,0.340637,-0.781311,-0.356689,-2.0,4.0,-2.0,3006.0,6873.0,-3919.0,100.0,172.0,-208.0,82.0,-53.0,270.0,0.354711,0.817963,-0.452941,6328.0,14142.0,-7940.0,-27.0,100.0,-37.0
2863.0,2794.0,2851.0,3103.0,3011.0,0.382996,0.340881,-0.781006,-0.356567,-1.0,5.0,-1.0,2985.0,6886.0,-3950.0,75.0,184.0,-244.0,122.0,-38.0,287.0,0.355149,0.818075,-0.452344,5866.0,13842.0,-7910.0,-17.0,122.0,-21.0
2854.0,2789.0,2847.0,3111.0,3003.0,0.383728,0.341431,-0.78064,-0.35614,0.0,4.0,0.0,2896.0,6873.0,-3943.0,-19.0,171.0,-241.0,167.0,32.0,242.0,0.355912,0.818067,-0.45189,5556.0,13530.0,-7750.0,18.0,97.0,14.0
2859.0,2789.0,2854.0,3111.0,3005.0,0.383972,0.341553,-0.780518,-0.355896,0.0,3.0,1.0,2879.0,6887.0,-3899.0,-39.0,187.0,-198.0,136.0,69.0,228.0,0.35628,0.81786,-0.451769,5634.0,13788.0,-7412.0,17.0,74.0,26.0
2859.0,2770.0,2847.0,3089.0,3007.0,0.384521,0.341553,-0.780396,-0.355652,-1.0,2.0,1.0,2845.0,6889.0,-3812.0,-81.0,189.0,-114.0,85.0,129.0,177.0,0.35721,0.817767,-0.45133,5684.0,13734.0,-7250.0,-14.0,57.0,45.0
2855.0,2787.0,2851.0,3106.0,2998.0,0.384949,0.341431,-0.780273,-0.355591,-2.0,2.0,2.0,2847.0,6850.0,-3768.0,-85.0,150.0,-75.0,64.0,123.0,126.0,0.357911,0.817783,-0.450771,5756.0,13502.0,-7276.0,-23.0,68.0,59.0
2855.0,2789.0,2861.0,3095.0,3003.0,0.385986,0.341187,-0.78009,-0.355042,0.0,4.0,3.0,2848.0,6777.0,-3729.0,-100.0,81.0,-43.0,62.0,109.0,49.0,0.359938,0.817316,-0.449909,5634.0,13362.0,-7412.0,5.0,109.0,73.0
2855.0,2787.0,2839.0,3071.0,2999.0,0.386536,0.341187,-0.780029,-0.354614,0.0,4.0,3.0,2829.0,6744.0,-3739.0,-128.0,51.0,-55.0,93.0,113.0,20.0,0.361039,0.816981,-0.449693,5528.0,13296.0,-7540.0,20.0,109.0,75.0
2847.0,2787.0,2853.0,3055.0,2999.0,0.387268,0.341125,-0.78009,-0.353638,2.0,3.0,3.0,2789.0,6647.0,-3735.0,-184.0,-37.0,-49.0,136.0,115.0,-74.0,0.362938,0.815953,-0.449871,5484.0,12964.0,-7432.0,49.0,77.0,85.0
2857.0,2790.0,2855.0,3093.0,3005.0,0.387512,0.341064,-0.780273,-0.353149,2.0,2.0,4.0,2775.0,6606.0,-3717.0,-205.0,-74.0,-28.0,138.0,118.0,-122.0,0.363838,0.815439,-0.450271,5450.0,12988.0,-7256.0,60.0,53.0,94.0
2897.0,2786.0,2853.0,3099.0,3011.0,0.387878,0.340637,-0.780762,-0.352112,2.0,1.0,4.0,2794.0,6530.0,-3634.0,-202.0,-138.0,62.0,77.0,108.0,-214.0,0.365796,0.814083,-0.45119,5676.0,12846.0,-7014.0,64.0,28.0,102.0
2852.0,2786.0,2854.0,3093.0,2999.0,0.388062,0.340454,-0.781006,-0.351624,3.0,1.0,4.0,2791.0,6496.0,-3602.0,-213.0,-167.0,97.0,60.0,112.0,-257.0,0.366733,0.813474,-0.451648,5562.0,12814.0,-7030.0,70.0,27.0,94.0
2846.0,2786.0,2854.0,3095.0,2995.0,0.388123,0.34021,-0.781372,-0.350769,2.0,0.0,2.0,2763.0,6450.0,-3576.0,-250.0,-203.0,131.0,58.0,132.0,-316.0,0.367866,0.812249,-0.452607,5474.0,12782.0,-7078.0,54.0,10.0,64.0
2861.0,2790.0,2855.0,3102.0,3007.0,0.388123,0.340149,-0.781555,-0.350525,1.0,0.0,2.0,2755.0,6436.0,-3582.0,-261.0,-215.0,129.0,68.0,133.0,-329.0,0.368217,0.811948,-0.453023,5478.0,12814.0,-7226.0,41.0,2.0,55.0
2855.0,2786.0,2854.0,3101.0,3003.0,0.388062,0.339966,-0.78186,-0.350037,1.0,-1.0,1.0,2764.0,6464.0,-3579.0,-257.0,-181.0,138.0,50.0,150.0,-304.0,0.368819,0.811215,-0.453765,5532.0,13134.0,-7182.0,45.0,-1.0,39.0
2853.0,2783.0,2853.0,3095.0,3007.0,0.388,0.339966,-0.781982,-0.349915,1.0,-1.0,1.0,2761.0,6508.0,-3587.0,-261.0,-136.0,132.0,45.0,175.0,-266.0,0.368901,0.811068,-0.454089,5506.0,13284.0,-7226.0,42.0,-6.0,30.0
2857.0,2783.0,2854.0,3089.0,2999.0,0.387817,0.339905,-0.782166,-0.349792,0.0,-1.0,1.0,2788.0,6596.0,-3602.0,-233.0,-46.0,121.0,18.0,197.0,-178.0,0.368882,0.810833,-0.454561,5676.0,13350.0,-7264.0,16.0,-17.0,26.0
2858.0,2786.0,2846.0,3103.0,3007.0,0.387695,0.339844,-0.782227,-0.349792,0.0,-1.0,0.0,2805.0,6610.0,-3627.0,-216.0,-31.0,97.0,27.0,184.0,-148.0,0.368782,0.810746,-0.45471,5706.0,13296.0,-7396.0,18.0,-16.0,20.0
2861.0,2791.0,2857.0,3095.0,3005.0,0.387451,0.339844,-0.78241,-0.349609,1.0,-1.0,0.0,2838.0,6618.0,-3676.0,-182.0,-20.0,53.0,45.0,150.0,-107.0,0.368666,0.810421,-0.455314,5740.0,13282.0,-7508.0,31.0,-10.0,12.0
2855.0,2783.0,2853.0,3099.0,3003.0,0.38739,0.339905,-0.782471,-0.349487,1.0,-1.0,0.0,2848.0,6632.0,-3690.0,-172.0,-5.0,42.0,46.0,147.0,-86.0,0.368658,0.810279,-0.455583,5750.0,13348.0,-7448.0,28.0,-2.0,8.0
2859.0,2783.0,2851.0,3099.0,3006.0,0.38739,0.339905,-0.782532,-0.349304,0.0,0.0,0.0,2871.0,6620.0,-3712.0,-150.0,-15.0,21.0,56.0,118.0,-77.0,0.36883,0.810035,-0.455807,5768.0,13204.0,-7480.0,19.0,18.0,22.0
2850.0,2789.0,2855.0,3103.0,3007.0,0.38739,0.339966,-0.782593,-0.349121,1.0,0.0,1.0,2863.0,6613.0,-3725.0,-159.0,-21.0,11.0,70.0,119.0,-80.0,0.368959,0.809838,-0.456072,5672.0,13226.0,-7500.0,34.0,22.0,24.0
2863.0,2789.0,2857.0,3103.0,3005.0,0.387329,0.340088,-0.782776,-0.348755,1.0,0.0,1.0,2824.0,6658.0,-3744.0,-200.0,27.0,-2.0,88.0,174.0,-51.0,0.369169,0.809446,-0.456744,5554.0,13512.0,-7486.0,39.0,6.0,24.0
2861.0,2783.0,2857.0,3095.0,3003.0,0.387207,0.340088,-0.782837,-0.348633,1.0,-1.0,1.0,2821.0,6690.0,-3735.0,-202.0,60.0,8.0,72.0,195.0,-29.0,0.369108,0.809214,-0.457019,5656.0,13588.0,-7398.0,25.0,-5.0,24.0
2863.0,2783.0,2853.0,3099.0,2999.0,0.387207,0.340027,-0.782837,-0.348694,-1.0,0.0,0.0,2826.0,6743.0,-3738.0,-197.0,113.0,5.0,58.0,218.0,16.0,0.369109,0.809262,-0.456935,5634.0,13616.0,-7562.0,-10.0,9.0,17.0
2859.0,2789.0,2859.0,3102.0,3007.0,0.387268,0.340027,-0.782776,-0.348816,-2.0,0.0,0.0,2821.0,6746.0,-3757.0,-202.0,114.0,-15.0,77.0,217.0,24.0,0.369075,0.809452,-0.456707,5618.0,13472.0,-7634.0,-31.0,12.0,14.0
2861.0,2791.0,2851.0,3103.0,3007.0,0.387451,0.339844,-0.782715,-0.34906,-2.0,0.0,1.0,2821.0,6682.0,-3783.0,-204.0,48.0,-46.0,121.0,175.0,-15.0,0.369276,0.809775,-0.456175,5622.0,13142.0,-7656.0,-25.0,17.0,31.0
2855.0,2783.0,2847.0,3095.0,3003.0,0.387512,0.339722,-0.782715,-0.348999,-1.0,0.0,1.0,2816.0,6655.0,-3783.0,-210.0,22.0,-46.0,131.0,167.0,-38.0,0.369498,0.809626,-0.456087,5628.0,13184.0,-7524.0,-11.0,17.0,38.0
2854.0,2783.0,2853.0,3095.0,3003.0,0.387695,0.3396,-0.782715,-0.348938,-1.0,0.0,1.0,2822.0,6651.0,-3766.0,-208.0,19.0,-31.0,118.0,168.0,-47.0,0.369911,0.80956,-0.455905,5614.0,13346.0,-7452.0,-10.0,20.0,27.0
2861.0,2790.0,2861.0,3111.0,3007.0,0.387756,0.339539,-0.782654,-0.348999,-2.0,0.0,0.0,2821.0,6644.0,-3744.0,-209.0,11.0,-11.0,104.0,170.0,-63.0,0.369961,0.809607,-0.455678,5662.0,13212.0,-7326.0,-33.0,18.0,16.0
2859.0,2787.0,2859.0,3099.0,3007.0,0.388123,0.339355,-0.78241,-0.349365,-3.0,1.0,0.0,2837.0,6577.0,-3713.0,-195.0,-59.0,11.0,97.0,128.0,-124.0,0.370224,0.810116,-0.454632,5706.0,12912.0,-7398.0,-52.0,24.0,10.0
2855.0,2783.0,2847.0,3099.0,3005.0,0.388245,0.339355,-0.782288,-0.349487,-2.0,1.0,0.0,2837.0,6550.0,-3706.0,-195.0,-88.0,15.0,101.0,114.0,-150.0,0.370237,0.810305,-0.454261,5656.0,12966.0,-7386.0,-37.0,25.0,7.0
2859.0,2783.0,2855.0,3088.0,3003.0,0.388428,0.339417,-0.782166,-0.349609,-1.0,1.0,0.0,2824.0,6546.0,-3711.0,-209.0,-94.0,7.0,116.0,120.0,-156.0,0.370303,0.810582,-0.453884,5612.0,13098.0,-7378.0,-11.0,23.0,5.0
2863.0,2787.0,2858.0,3103.0,3007.0,0.388489,0.339478,-0.782104,-0.349609,-1.0,1.0,0.0,2816.0,6554.0,-3708.0,-217.0,-86.0,9.0,116.0,131.0,-154.0,0.370309,0.810629,-0.453782,5572.0,13186.0,-7400.0,-8.0,25.0,4.0
2855.0,2791.0,2855.0,3103.0,3011.0,0.38855,0.3396,-0.78186,-0.349792,-2.0,0.0,-1.0,2800.0,6593.0,-3700.0,-231.0,-49.0,13.0,109.0,163.0,-131.0,0.370005,0.81088,-0.453308,5530.0,13300.0,-7376.0,-27.0,16.0,-6.0
2861.0,2783.0,2858.0,3098.0,2999.0,0.388611,0.3396,-0.781738,-0.350037,-3.0,0.0,-1.0,2797.0,6601.0,-3688.0,-232.0,-44.0,22.0,101.0,169.0,-131.0,0.369839,0.811218,-0.452899,5622.0,13226.0,-7288.0,-48.0,5.0,-3.0
2855.0,2786.0,2855.0,3103.0,3003.0,0.388733,0.339417,-0.781555,-0.350586,-3.0,-1.0,0.0,2812.0,6575.0,-3674.0,-216.0,-75.0,28.0,96.0,142.0,-153.0,0.369643,0.811889,-0.452008,5688.0,12986.0,-7326.0,-51.0,-1.0,8.0
2858.0,2789.0,2855.0,3095.0,3003.0,0.388733,0.339294,-0.781494,-0.350708,-2.0,-1.0,0.0,2822.0,6549.0,-3664.0,-205.0,-102.0,36.0,91.0,121.0,-174.0,0.369598,0.811942,-0.451744,5686.0,12980.0,-7258.0,-26.0,-1.0,13.0
2864.0,2791.0,2847.0,3095.0,3011.0,0.388733,0.339233,-0.781555,-0.350769,-1.0,-1.0,0.0,2826.0,6566.0,-3651.0,-202.0,-86.0,49.0,75.0,131.0,-166.0,0.369647,0.812033,-0.451756,5684.0,13316.0,-7226.0,-1.0,-5.0,14.0
2861.0,2785.0,2855.0,3071.0,2998.0,0.388672,0.339172,-0.781555,-0.350891,-1.0,-1.0,0.0,2840.0,6596.0,-3625.0,-187.0,-57.0,75.0,38.0,141.0,-149.0,0.369512,0.812135,-0.451676,5784.0,13338.0,-7042.0,-21.0,-9.0,14.0
2863.0,2779.0,2855.0,3101.0,3007.0,0.388855,0.338928,-0.781372,-0.351257,-2.0,0.0,0.0,2867.0,6616.0,-3614.0,-160.0,-40.0,79.0,18.0,130.0,-127.0,0.369579,0.812513,-0.450825,5814.0,13238.0,-7252.0,-42.0,1.0,8.0
2855.0,2783.0,2851.0,3101.0,3007.0,0.388916,0.338867,-0.781311,-0.35144,-2.0,0.0,0.0,2880.0,6615.0,-3612.0,-147.0,-43.0,78.0,13.0,117.0,-124.0,0.369545,0.81275,-0.450512,5834.0,13214.0,-7216.0,-36.0,6.0,7.0
2863.0,2787.0,2861.0,3093.0,3019.0,0.389038,0.338745,-0.781128,-0.351746,-2.0,-1.0,-1.0,2885.0,6607.0,-3616.0,-141.0,-53.0,69.0,21.0,105.0,-126.0,0.369473,0.813086,-0.449833,5782.0,13168.0,-7260.0,-29.0,-2.0,-3.0
2863.0,2788.0,2855.0,3103.0,3007.0,0.388977,0.338745,-0.781128,-0.351929,-2.0,-1.0,-1.0,2887.0,6588.0,-3620.0,-137.0,-74.0,64.0,28.0,89.0,-139.0,0.369253,0.813331,-0.449752,5786.0,13074.0,-7294.0,-30.0,-13.0,-5.0
2863.0,2791.0,2858.0,3071.0,3005.0,0.388855,0.338501,-0.781128,-0.352295,-2.0,-2.0,0.0,2884.0,6567.0,-3629.0,-138.0,-98.0,52.0,45.0,74.0,-154.0,0.368987,0.81363,-0.449424,5754.0,13074.0,-7330.0,-28.0,-34.0,8.0
2861.0,2791.0,2855.0,3087.0,2998.0,0.388733,0.338379,-0.781189,-0.352417,-1.0,-2.0,0.0,2893.0,6555.0,-3639.0,-128.0,-110.0,42.0,52.0,57.0,-155.0,0.368847,0.813687,-0.449445,5864.0,13062.0,-7336.0,-11.0,-31.0,13.0
2859.0,2783.0,2847.0,3091.0,2999.0,0.38855,0.338257,-0.781311,-0.352356,0.0,-1.0,0.0,2905.0,6587.0,-3641.0,-116.0,-76.0,43.0,37.0,65.0,-123.0,0.368783,0.813458,-0.449739,5804.0,13346.0,-7336.0,9.0,-9.0,12.0
2857.0,2787.0,2847.0,3095.0,3013.0,0.388489,0.338196,-0.781372,-0.352417,-1.0,-1.0,0.0,2894.0,6610.0,-3652.0,-126.0,-54.0,32.0,45.0,82.0,-104.0,0.368737,0.813508,-0.449797,5730.0,13312.0,-7372.0,-7.0,-9.0,15.0
2863.0,2783.0,2863.0,3095.0,3015.0,0.388367,0.337952,-0.781433,-0.352539,-1.0,-2.0,1.0,2886.0,6560.0,-3686.0,-134.0,-103.0,-1.0,90.0,53.0,-132.0,0.368683,0.81347,-0.449737,5818.0,12866.0,-7504.0,-16.0,-24.0,24.0
2864.0,2791.0,2862.0,3103.0,3023.0,0.388306,0.33783,-0.781555,-0.352478,0.0,-1.0,1.0,2894.0,6524.0,-3697.0,-127.0,-138.0,-11.0,104.0,26.0,-154.0,0.36881,0.813324,-0.449935,5844.0,12874.0,-7404.0,8.0,-21.0,26.0
2850.0,2781.0,2847.0,3095.0,2998.0,0.388062,0.33783,-0.78186,-0.352112,1.0,-1.0,0.0,2909.0,6540.0,-3706.0,-113.0,-118.0,-12.0,93.0,25.0,-132.0,0.368912,0.812802,-0.45086,5840.0,13196.0,-7438.0,41.0,-8.0,13.0
2851.0,2783.0,2855.0,3103.0,2995.0,0.388,0.33783,-0.781982,-0.35199,1.0,-1.0,0.0,2919.0,6571.0,-3705.0,-103.0,-86.0,-8.0,77.0,35.0,-104.0,0.368994,0.812656,-0.451184,5912.0,13322.0,-7380.0,24.0,-8.0,9.0
2863.0,2781.0,2831.0,3103.0,2999.0,0.387878,0.33783,-0.781982,-0.352051,-1.0,-1.0,-1.0,2935.0,6586.0,-3711.0,-85.0,-71.0,-14.0,69.0,26.0,-82.0,0.368762,0.812669,-0.451236,5904.0,13124.0,-7480.0,-10.0,-7.0,-1.0
2864.0,2778.0,2867.0,3098.0,3011.0,0.387817,0.33783,-0.781982,-0.352051,-1.0,-1.0,-1.0,2948.0,6582.0,-3714.0,-72.0,-75.0,-17.0,67.0,13.0,-79.0,0.368666,0.812627,-0.451283,5976.0,13164.0,-7454.0,-10.0,-2.0,-5.0
2859.0,2781.0,2844.0,3103.0,3004.0,0.387878,0.337891,-0.781921,-0.352173,-1.0,0.0,-1.0,2949.0,6618.0,-3713.0,-70.0,-40.0,-17.0,57.0,30.0,-50.0,0.368589,0.812864,-0.451096,5886.0,13366.0,-7388.0,-20.0,10.0,-8.0
2851.0,2782.0,2867.0,3107.0,3007.0,0.387939,0.337891,-0.781799,-0.352356,-2.0,0.0,-1.0,2945.0,6641.0,-3704.0,-73.0,-19.0,-11.0,48.0,45.0,-37.0,0.368466,0.813106,-0.450729,5836.0,13396.0,-7368.0,-34.0,16.0,-8.0
2857.0,2786.0,2847.0,3095.0,3007.0,0.388184,0.33783,-0.781555,-0.352661,-2.0,0.0,0.0,2924.0,6613.0,-3704.0,-94.0,-51.0,-18.0,72.0,43.0,-68.0,0.368495,0.813528,-0.449901,5804.0,13030.0,-7456.0,-41.0,19.0,6.0
2843.0,2779.0,2835.0,3099.0,3015.0,0.388245,0.337769,-0.781555,-0.352661,-1.0,0.0,1.0,2920.0,6575.0,-3726.0,-99.0,-89.0,-41.0,103.0,20.0,-90.0,0.368634,0.813522,-0.449812,5840.0,12944.0,-7592.0,-6.0,19.0,24.0
2863.0,2767.0,2855.0,3071.0,2988.0,0.388367,0.337769,-0.781799,-0.352051,2.0,1.0,1.0,2918.0,6605.0,-3720.0,-108.0,-53.0,-29.0,88.0,50.0,-69.0,0.369426,0.812822,-0.450529,5820.0,13494.0,-7358.0,58.0,27.0,44.0
2862.0,2797.0,2861.0,3103.0,3019.0,0.388428,0.337769,-0.78186,-0.351746,2.0,1.0,1.0,2917.0,6658.0,-3701.0,-112.0,2.0,-8.0,58.0,88.0,-36.0,0.369775,0.812429,-0.450792,5818.0,13616.0,-7298.0,46.0,32.0,43.0
2863.0,2791.0,2864.0,3071.0,2987.0,0.388794,0.337708,-0.781799,-0.351624,-2.0,1.0,0.0,2902.0,6685.0,-3659.0,-132.0,29.0,31.0,28.0,129.0,-39.0,0.370426,0.812395,-0.450457,5764.0,13280.0,-7200.0,-24.0,30.0,21.0
2861.0,2785.0,2871.0,3109.0,2995.0,0.388977,0.337646,-0.781677,-0.351746,-2.0,1.0,0.0,2899.0,6634.0,-3650.0,-136.0,-22.0,36.0,38.0,107.0,-84.0,0.370578,0.812577,-0.449996,5814.0,12906.0,-7282.0,-41.0,26.0,14.0
2854.0,2785.0,2845.0,3093.0,3005.0,0.389282,0.337524,-0.781494,-0.351807,-1.0,1.0,0.0,2895.0,6526.0,-3633.0,-143.0,-131.0,48.0,59.0,59.0,-181.0,0.370957,0.812654,-0.449347,5806.0,12788.0,-7234.0,-16.0,28.0,14.0
2847.0,2787.0,2853.0,3102.0,3009.0,0.389404,0.337524,-0.781494,-0.351746,-1.0,1.0,0.0,2892.0,6508.0,-3625.0,-148.0,-149.0,55.0,60.0,56.0,-200.0,0.371189,0.812641,-0.449295,5750.0,12950.0,-7212.0,0.0,32.0,16.0
2855.0,2782.0,2832.0,3095.0,2991.0,0.389648,0.337524,-0.781372,-0.351685,-1.0,1.0,0.0,2879.0,6536.0,-3603.0,-164.0,-121.0,74.0,44.0,89.0,-192.0,0.371517,0.812625,-0.448957,5760.0,13190.0,-7070.0,-14.0,24.0,17.0
2859.0,2779.0,2845.0,3071.0,2999.0,0.389832,0.337524,-0.781311,-0.351746,-1.0,1.0,0.0,2881.0,6548.0,-3590.0,-164.0,-110.0,85.0,32.0,98.0,-188.0,0.371714,0.812801,-0.448676,5762.0,13142.0,-7092.0,-22.0,24.0,12.0
2864.0,2774.0,2859.0,3102.0,2993.0,0.390015,0.337524,-0.781128,-0.351929,-1.0,0.0,-1.0,2864.0,6514.0,-3586.0,-181.0,-146.0,84.0,50.0,92.0,-223.0,0.371734,0.813082,-0.448118,5682.0,12890.0,-7184.0,-19.0,13.0,-2.0
2851.0,2787.0,2832.0,3071.0,3015.0,0.390015,0.337585,-0.781067,-0.351929,-1.0,0.0,-1.0,2862.0,6499.0,-3584.0,-182.0,-161.0,86.0,53.0,86.0,-237.0,0.371643,0.813086,-0.448064,5720.0,12936.0,-7168.0,-4.0,7.0,-4.0
7139.0,3051.0,1283.0,-283.0,-154.0,-38.0,-2.0,-32.0,-322.0,0.906098,0.391241,0.161325,14190.0,6216.0,2660.0,-25.0,11.0,-8.0,,,,,,,,,,,,
2855.0,2787.0,2855.0,3099.0,3003.0,0.762024,0.243103,-0.599915,-0.017273,-2.0,0.0,-1.0,7112.0,3018.0,1312.0,-309.0,-186.0,-14.0,-24.0,-60.0,-354.0,0.9059,0.391225,0.161982,14156.0,5810.0,2748.0,-40.0,9.0,-11.0
2855.0,2783.0,2854.0,3099.0,2999.0,0.762146,0.242981,-0.599854,-0.017334,-2.0,0.0,-1.0,7100.0,2980.0,1318.0,-321.0,-224.0,-11.0,-20.0,-91.0,-380.0,0.905928,0.39117,0.162303,14140.0,5758.0,2624.0,-25.0,9.0,-13.0
2855.0,2783.0,2853.0,3095.0,2999.0,0.762207,0.24292,-0.599792,-0.017334,0.0,0.0,-1.0,7113.0,2961.0,1333.0,-308.0,-242.0,1.0,-23.0,-115.0,-373.0,0.905911,0.391104,0.162499,14302.0,5938.0,2818.0,13.0,5.0,-13.0
2859.0,2788.0,2861.0,3102.0,3007.0,0.762207,0.242981,-0.59967,-0.017334,0.0,0.0,-1.0,7118.0,2966.0,1357.0,-301.0,-238.0,24.0,-43.0,-122.0,-361.0,0.905722,0.391193,0.162616,14234.0,5946.0,2808.0,14.0,8.0,-11.0
2859.0,2787.0,2859.0,3103.0,3007.0,0.762329,0.242981,-0.599609,-0.01709,0.0,-1.0,1.0,7095.0,2973.0,1425.0,-326.0,-229.0,90.0,-113.0,-129.0,-370.0,0.905894,0.390957,0.162867,14090.0,5954.0,3144.0,22.0,0.0,23.0
2857.0,2783.0,2855.0,3099.0,3003.0,0.76239,0.24292,-0.599548,-0.016846,0.0,0.0,1.0,7076.0,3034.0,1490.0,-345.0,-165.0,154.0,-194.0,-90.0,-351.0,0.905995,0.390599,0.163054,14060.0,6546.0,3382.0,11.0,1.0,40.0
2855.0,2783.0,2855.0,3103.0,3003.0,0.762756,0.242249,-0.599365,-0.016846,-3.0,-1.0,2.0,7033.0,3144.0,1618.0,-390.0,-48.0,273.0,-348.0,-14.0,-327.0,0.906178,0.389747,0.164158,13970.0,6566.0,3576.0,-58.0,-12.0,62.0
2859.0,2791.0,2861.0,3103.0,3007.0,0.762939,0.241821,-0.599304,-0.016907,-4.0,-1.0,2.0,7028.0,3184.0,1663.0,-396.0,-4.0,313.0,-399.0,12.0,-308.0,0.906289,0.389255,0.164719,14034.0,6496.0,3568.0,-73.0,-20.0,64.0
2859.0,2791.0,2855.0,3089.0,3026.0,0.763184,0.240906,-0.599304,-0.016602,-1.0,-2.0,4.0,7068.0,3117.0,1765.0,-360.0,-58.0,409.0,-463.0,-80.0,-281.0,0.906759,0.387609,0.165524,14316.0,5902.0,3836.0,-3.0,-26.0,94.0
2859.0,2773.0,2853.0,3095.0,3002.0,0.763306,0.240601,-0.599304,-0.016052,2.0,-1.0,4.0,7095.0,3073.0,1820.0,-336.0,-93.0,461.0,-495.0,-137.0,-264.0,0.90718,0.386544,0.165839,14348.0,5926.0,3986.0,56.0,-10.0,107.0
2847.0,2783.0,2859.0,3103.0,3007.0,0.763611,0.240601,-0.598999,-0.014465,5.0,1.0,4.0,7100.0,3085.0,1907.0,-337.0,-67.0,542.0,-576.0,-144.0,-241.0,0.907844,0.38478,0.166622,14134.0,6340.0,4044.0,118.0,32.0,104.0
2855.0,2789.0,2853.0,3107.0,3027.0,0.763794,0.240662,-0.598694,-0.013733,4.0,1.0,4.0,7063.0,3134.0,1939.0,-374.0,-12.0,569.0,-626.0,-94.0,-249.0,0.907947,0.384075,0.167217,13850.0,6594.0,4028.0,99.0,41.0,97.0
2859.0,2790.0,2863.0,3101.0,3007.0,0.764343,0.240601,-0.598083,-0.013,0.0,1.0,3.0,6977.0,3202.0,1945.0,-461.0,61.0,562.0,-664.0,-2.0,-300.0,0.908026,0.383354,0.168797,13808.0,6460.0,3938.0,2.0,31.0,77.0
2859.0,2789.0,2853.0,3098.0,2999.0,0.764709,0.240112,-0.597778,-0.012878,-4.0,1.0,3.0,6970.0,3197.0,1944.0,-468.0,62.0,551.0,-657.0,4.0,-307.0,0.908069,0.382629,0.169954,13962.0,6210.0,3934.0,-88.0,34.0,90.0
2855.0,2783.0,2853.0,3099.0,2999.0,0.765747,0.238953,-0.596924,-0.012634,-3.0,3.0,2.0,6965.0,3018.0,1945.0,-474.0,-103.0,526.0,-592.0,-131.0,-378.0,0.908147,0.381038,0.173112,13864.0,5366.0,3826.0,-53.0,80.0,46.0
2855.0,2787.0,2859.0,3093.0,3007.0,0.766235,0.238586,-0.596497,-0.012451,-2.0,3.0,0.0,6947.0,2923.0,1915.0,-492.0,-193.0,485.0,-536.0,-191.0,-435.0,0.908172,0.380481,0.17454,13822.0,5328.0,3686.0,-28.0,77.0,22.0
2859.0,2782.0,2855.0,3091.0,3015.0,0.76709,0.23822,-0.59552,-0.012146,-1.0,3.0,0.0,6954.0,2869.0,1862.0,-483.0,-243.0,410.0,-452.0,-213.0,-458.0,0.907848,0.379939,0.177181,13882.0,5778.0,3432.0,-7.0,89.0,1.0
2858.0,2783.0,2859.0,3095.0,3013.0,0.767456,0.238098,-0.595093,-0.012146,-2.0,3.0,-1.0,6947.0,2873.0,1803.0,-488.0,-239.0,342.0,-393.0,-184.0,-472.0,0.907631,0.379916,0.17831,13798.0,5746.0,3190.0,-39.0,85.0,-4.0
2855.0,2787.0,2855.0,3103.0,3006.0,0.76825,0.237732,-0.594238,-0.01239,-2.0,3.0,-2.0,6916.0,2817.0,1676.0,-515.0,-295.0,195.0,-252.0,-174.0,-544.0,0.907155,0.38,0.180725,13788.0,5396.0,2996.0,-41.0,80.0,-31.0
2847.0,2787.0,2839.0,3089.0,2999.0,0.768555,0.237671,-0.593872,-0.012451,-1.0,3.0,-2.0,6901.0,2782.0,1606.0,-528.0,-331.0,117.0,-175.0,-175.0,-583.0,0.906928,0.380115,0.18166,13722.0,5372.0,2832.0,-14.0,82.0,-27.0
2858.0,2791.0,2864.0,3101.0,2999.0,0.768982,0.237732,-0.593323,-0.012268,0.0,2.0,-1.0,6923.0,2781.0,1491.0,-504.0,-333.0,-7.0,-54.0,-141.0,-584.0,0.906676,0.380181,0.182935,14042.0,5620.0,2830.0,3.0,59.0,-14.0
2859.0,2798.0,2859.0,3091.0,3023.0,0.769165,0.237732,-0.593079,-0.012268,-1.0,2.0,-2.0,6958.0,2770.0,1467.0,-468.0,-345.0,-36.0,-14.0,-152.0,-562.0,0.906518,0.380262,0.183507,14092.0,5458.0,2722.0,-1.0,53.0,-23.0
2857.0,2789.0,2851.0,3099.0,3007.0,0.769165,0.238037,-0.592896,-0.012207,2.0,0.0,-3.0,7000.0,2640.0,1338.0,-424.0,-478.0,-165.0,151.0,-237.0,-596.0,0.906258,0.380655,0.183577,14156.0,4804.0,2258.0,58.0,14.0,-59.0
2855.0,2791.0,2849.0,3071.0,3007.0,0.768982,0.238586,-0.592957,-0.011963,5.0,0.0,-4.0,7032.0,2598.0,1279.0,-391.0,-524.0,-219.0,223.0,-269.0,-594.0,0.906237,0.381124,0.182955,14258.0,5042.0,2240.0,119.0,6.0,-72.0
2859.0,2794.0,2855.0,3115.0,2992.0,0.768372,0.240173,-0.593079,-0.011536,6.0,-1.0,-4.0,7065.0,2675.0,1191.0,-355.0,-460.0,-292.0,285.0,-195.0,-550.0,0.905868,0.382768,0.181103,14136.0,5650.0,2154.0,146.0,-9.0,-80.0
2854.0,2788.0,2859.0,3089.0,2997.0,0.768066,0.240967,-0.593201,-0.011414,5.0,-1.0,-4.0,7053.0,2735.0,1152.0,-366.0,-408.0,-323.0,297.0,-134.0,-546.0,0.905734,0.383698,0.180104,14036.0,5810.0,2086.0,133.0,-22.0,-80.0
2859.0,2783.0,2855.0,3095.0,3007.0,0.767151,0.242493,-0.59375,-0.011292,5.0,-4.0,-3.0,6973.0,2772.0,1057.0,-444.0,-385.0,-395.0,335.0,-62.0,-620.0,0.905515,0.385466,0.177306,13752.0,5580.0,1924.0,126.0,-73.0,-66.0
2863.0,2795.0,2847.0,3119.0,2997.0,0.766602,0.243225,-0.594177,-0.011169,6.0,-4.0,-3.0,6942.0,2775.0,1034.0,-476.0,-388.0,-404.0,335.0,-50.0,-651.0,0.905561,0.386187,0.175598,13712.0,5536.0,2026.0,141.0,-86.0,-63.0
2855.0,2783.0,2850.0,3103.0,3015.0,0.765442,0.245056,-0.59491,-0.010925,7.0,-5.0,-4.0,6834.0,2724.0,1044.0,-582.0,-455.0,-365.0,289.0,-88.0,-766.0,0.905383,0.388152,0.172051,13256.0,5182.0,2084.0,183.0,-98.0,-89.0
2843.0,2781.0,2853.0,3091.0,2983.0,0.764771,0.246094,-0.595337,-0.010742,8.0,-5.0,-5.0,6769.0,2676.0,1050.0,-647.0,-512.0,-342.0,266.0,-125.0,-843.0,0.905305,0.389201,0.170001,13148.0,5062.0,2152.0,206.0,-113.0,-100.0
2863.0,2785.0,2869.0,3109.0,3005.0,0.763184,0.248718,-0.596313,-0.010254,11.0,-6.0,-6.0,6656.0,2631.0,1050.0,-758.0,-579.0,-302.0,220.0,-159.0,-962.0,0.905093,0.391864,0.165104,12946.0,5286.0,2132.0,274.0,-134.0,-123.0
2855.0,2781.0,2864.0,3120.0,2993.0,0.762329,0.250244,-0.596741,-0.010071,12.0,-7.0,-7.0,6590.0,2644.0,1065.0,-822.0,-580.0,-266.0,171.0,-150.0,-1015.0,0.904785,0.393556,0.162525,12762.0,5368.0,2248.0,282.0,-140.0,-149.0
2859.0,2781.0,2846.0,3095.0,3015.0,0.76062,0.253723,-0.597473,-0.010132,12.0,-8.0,-9.0,6342.0,2622.0,1121.0,-1061.0,-639.0,-167.0,33.0,-156.0,-1239.0,0.903759,0.398081,0.157296,11748.0,4956.0,2498.0,294.0,-168.0,-199.0
2864.0,2783.0,2864.0,3099.0,3015.0,0.759644,0.255554,-0.5979,-0.010132,14.0,-9.0,-9.0,6160.0,2507.0,1176.0,-1239.0,-772.0,-88.0,-48.0,-240.0,-1441.0,0.903204,0.400376,0.154368,11154.0,4204.0,2732.0,334.0,-192.0,-205.0
2862.0,2795.0,2864.0,3103.0,3005.0,0.757629,0.259949,-0.598572,-0.009399,21.0,-9.0,-11.0,5648.0,2165.0,1555.0,-1742.0,-1153.0,340.0,-460.0,-560.0,-1988.0,0.902104,0.405142,0.148229,9458.0,3322.0,4802.0,497.0,-199.0,-241.0
2865.0,2795.0,2862.0,3091.0,2991.0,0.756897,0.262512,-0.598389,-0.008972,22.0,-7.0,-12.0,5320.0,1998.0,1954.0,-2062.0,-1345.0,758.0,-870.0,-776.0,-2296.0,0.901127,0.408127,0.145992,8538.0,2994.0,6600.0,513.0,-159.0,-274.0
2854.0,2782.0,2851.0,3071.0,3015.0,0.757385,0.265808,-0.596313,-0.009399,7.0,-6.0,-15.0,4398.0,1518.0,3181.0,-2960.0,-1872.0,1972.0,-2078.0,-1398.0,-3142.0,0.898281,0.413848,0.147477,5246.0,854.0,10198.0,171.0,-130.0,-333.0
2859.0,2787.0,2864.0,3103.0,3007.0,0.758118,0.265869,-0.595337,-0.011108,-5.0,-14.0,-17.0,3672.0,1115.0,3837.0,-3674.0,-2295.0,2610.0,-2752.0,-1762.0,-3859.0,0.896764,0.416347,0.149753,2740.0,-214.0,11600.0,-92.0,-299.0,-368.0
2863.0,2785.0,2847.0,3093.0,3023.0,0.758057,0.264587,-0.595764,-0.020569,-23.0,-48.0,-40.0,1809.0,343.0,4949.0,-5501.0,-3143.0,3719.0,-4098.0,-2195.0,-5688.0,0.892361,0.425653,0.150132,-2400.0,-1318.0,12704.0,-518.0,-1089.0,-908.0
2835.0,2795.0,2863.0,3101.0,3011.0,0.752075,0.268066,-0.600525,-0.043579,-30.0,-96.0,-97.0,-93.0,60.0,5636.0,-7301.0,-3671.0,4529.0,-5262.0,-1889.0,-7485.0,0.879916,0.455553,0.135026,-5016.0,88.0,13324.0,-685.0,-2189.0,-2207.0
2851.0,2787.0,2836.0,3071.0,2999.0,0.746399,0.272156,-0.604187,-0.060974,-37.0,-117.0,-122.0,-621.0,236.0,6031.0,-7737.0,-3695.0,5033.0,-5857.0,-1545.0,-7882.0,0.86874,0.479953,0.121719,-3742.0,1884.0,14558.0,-846.0,-2678.0,-2790.0
2861.0,2785.0,2833.0,3099.0,2999.0,0.73053,0.280579,-0.613892,-0.103455,-47.0,-153.0,-144.0,-440.0,787.0,6675.0,-7312.0,-3611.0,5947.0,-6625.0,-1023.0,-7544.0,0.838878,0.536962,0.088789,796.0,3200.0,14402.0,-1063.0,-3486.0,-3280.0
2854.0,2783.0,2846.0,3089.0,3007.0,0.706543,0.289062,-0.629028,-0.146851,-27.0,-185.0,-137.0,256.0,1282.0,6146.0,-6330.0,-3577.0,5805.0,-6141.0,-508.0,-6969.0,0.803973,0.593217,0.041534,2612.0,4050.0,9060.0,-597.0,-4232.0,-3118.0
2861.0,2777.0,2865.0,3107.0,2999.0,0.690308,0.294373,-0.639648,-0.166321,-3.0,-202.0,-130.0,597.0,1610.0,5357.0,-5835.0,-3462.0,5288.0,-5416.0,-157.0,-6680.0,0.785188,0.619189,0.008382,3278.0,5380.0,5470.0,-64.0,-4624.0,-2965.0
2859.0,2782.0,2861.0,3093.0,3007.0,0.648865,0.309875,-0.665955,-0.198425,51.0,-219.0,-121.0,1726.0,3056.0,3114.0,-4346.0,-2403.0,3762.0,-3489.0,642.0,-5120.0,0.741255,0.666419,-0.07912,8104.0,11820.0,-544.0,1189.0,-4999.0,-2764.0
2855.0,2785.0,2850.0,3102.0,3007.0,0.601685,0.33313,-0.690918,-0.222839,80.0,-193.0,-131.0,3140.0,5901.0,468.0,-2454.0,94.0,1915.0,-1761.0,1673.0,-1947.0,0.68296,0.708806,-0.176661,10638.0,21924.0,-6446.0,1854.0,-4403.0,-2978.0
2861.0,2775.0,2832.0,3071.0,2991.0,0.579102,0.346375,-0.699768,-0.234497,70.0,-168.0,-134.0,3673.0,7958.0,-817.0,-1635.0,1983.0,979.0,-1229.0,2454.0,172.0,0.648026,0.729359,-0.219303,9914.0,29026.0,-9824.0,1618.0,-3843.0,-3056.0
2851.0,2783.0,2842.0,3134.0,2996.0,0.541931,0.36084,-0.71051,-0.266968,-53.0,-153.0,-92.0,3974.0,11815.0,-3698.0,-756.0,5503.0,-1485.0,315.0,3909.0,4204.0,0.57743,0.770467,-0.270069,7914.0,32767.0,-16816.0,-1205.0,-3504.0,-2107.0
2861.0,2822.0,2858.0,3091.0,2991.0,0.513,0.350647,-0.718201,-0.313171,-142.0,-165.0,-66.0,3725.0,13056.0,-7719.0,-512.0,6423.0,-5445.0,4153.0,3515.0,6446.0,0.517249,0.809604,-0.27752,7946.0,24322.0,-26648.0,-3252.0,-3775.0,-1503.0
2855.0,2787.0,2863.0,3099.0,3002.0,0.499207,0.344666,-0.722107,-0.332458,-105.0,-138.0,-69.0,4446.0,12051.0,-9097.0,417.0,5298.0,-6799.0,5471.0,1597.0,6479.0,0.491787,0.82426,-0.280497,9664.0,18834.0,-26498.0,-2399.0,-3146.0,-1571.0
2859.0,2786.0,2863.0,3111.0,3015.0,0.469788,0.344788,-0.731628,-0.353821,-9.0,-96.0,-65.0,4956.0,11412.0,-10994.0,1323.0,4516.0,-8468.0,6685.0,-436.0,6998.0,0.443434,0.841685,-0.308269,11464.0,25100.0,-25778.0,-185.0,-2196.0,-1485.0
2847.0,2757.0,2865.0,3107.0,3003.0,0.449097,0.352478,-0.737915,-0.359985,20.0,-37.0,-50.0,5257.0,12210.0,-11116.0,1906.0,5264.0,-8351.0,5954.0,-808.0,8061.0,0.409017,0.847871,-0.337482,10256.0,25918.0,-22042.0,473.0,-845.0,-1128.0
2847.0,2783.0,2859.0,3103.0,2993.0,0.442139,0.356934,-0.739441,-0.361023,13.0,-25.0,-40.0,5031.0,12293.0,-10899.0,1785.0,5333.0,-8045.0,5588.0,-684.0,8040.0,0.396148,0.849539,-0.34835,8604.0,24690.0,-19926.0,299.0,-562.0,-902.0
2861.0,2795.0,2855.0,3095.0,3015.0,0.433777,0.360107,-0.741516,-0.36377,-7.0,-19.0,-8.0,4244.0,11700.0,-9716.0,1120.0,4721.0,-6774.0,4693.0,-242.0,6880.0,0.381313,0.851894,-0.359033,5666.0,21160.0,-15184.0,-143.0,-417.0,-180.0
2855.0,2779.0,2831.0,3098.0,3011.0,0.429016,0.358704,-0.742126,-0.369568,-30.0,-20.0,-9.0,3391.0,10697.0,-8145.0,346.0,3682.0,-5205.0,3772.0,181.0,5149.0,0.371638,0.856311,-0.358785,4588.0,17666.0,-11228.0,-675.0,-458.0,-185.0
2857.0,2790.0,2864.0,3089.0,3007.0,0.427246,0.357666,-0.741516,-0.373779,-34.0,-20.0,-12.0,3024.0,9925.0,-7470.0,23.0,2880.0,-4557.0,3489.0,185.0,4105.0,0.366243,0.85995,-0.355521,3766.0,14898.0,-11380.0,-768.0,-437.0,-271.0
2855.0,2795.0,2864.0,3111.0,2999.0,0.422302,0.355408,-0.741882,-0.380737,-18.0,-26.0,-7.0,2405.0,7773.0,-6679.0,-511.0,686.0,-3783.0,3452.0,-253.0,1748.0,0.355963,0.865103,-0.353404,3424.0,8950.0,-11338.0,-407.0,-586.0,-156.0
2859.0,2782.0,2823.0,3099.0,3011.0,0.418762,0.355042,-0.743835,-0.381165,5.0,-26.0,-4.0,2258.0,6896.0,-6340.0,-628.0,-185.0,-3401.0,3327.0,-469.0,838.0,0.352322,0.864403,-0.358697,3754.0,9038.0,-10590.0,136.0,-580.0,-89.0
2847.0,2769.0,2851.0,3071.0,3003.0,0.4104,0.356812,-0.75,-0.376526,38.0,-21.0,1.0,2071.0,6301.0,-5577.0,-770.0,-724.0,-2467.0,2659.0,-355.0,48.0,0.346903,0.85766,-0.379614,3670.0,12472.0,-8578.0,889.0,-476.0,24.0
2863.0,2787.0,2860.0,3095.0,2987.0,0.40271,0.358521,-0.755737,-0.371643,26.0,-23.0,3.0,1887.0,6938.0,-4734.0,-916.0,-29.0,-1462.0,1669.0,357.0,245.0,0.342203,0.850489,-0.399382,3464.0,16314.0,-6948.0,618.0,-505.0,90.0
2863.0,2779.0,2846.0,3089.0,2995.0,0.399841,0.358276,-0.757507,-0.371399,12.0,-22.0,3.0,1943.0,7228.0,-4335.0,-839.0,271.0,-1022.0,1179.0,549.0,358.0,0.339639,0.849182,-0.404369,4556.0,16048.0,-6294.0,287.0,-487.0,82.0
2861.0,2791.0,2860.0,3071.0,3011.0,0.397095,0.35675,-0.759033,-0.372681,-3.0,-11.0,1.0,2308.0,7144.0,-3877.0,-451.0,188.0,-544.0,620.0,312.0,228.0,0.336908,0.849081,-0.406827,5838.0,13202.0,-6764.0,-60.0,-244.0,32.0
2851.0,2779.0,2842.0,3103.0,2993.0,0.396606,0.356262,-0.759399,-0.373047,-3.0,-6.0,0.0,2452.0,6959.0,-3806.0,-305.0,2.0,-470.0,539.0,122.0,90.0,0.33656,0.849175,-0.40715,5610.0,12750.0,-7328.0,-60.0,-137.0,2.0
2858.0,2782.0,2831.0,3099.0,3006.0,0.395691,0.355896,-0.76001,-0.373047,0.0,-4.0,0.0,2546.0,6632.0,-3738.0,-205.0,-320.0,-391.0,506.0,-90.0,-180.0,0.335926,0.848688,-0.408542,5278.0,12630.0,-7082.0,20.0,-83.0,2.0
2859.0,2791.0,2864.0,3119.0,3007.0,0.395203,0.355774,-0.760376,-0.372925,1.0,-4.0,0.0,2571.0,6579.0,-3661.0,-178.0,-370.0,-306.0,433.0,-112.0,-248.0,0.335651,0.848332,-0.409489,5264.0,12938.0,-6868.0,29.0,-89.0,15.0
2858.0,2787.0,2879.0,3107.0,3021.0,0.394348,0.355286,-0.761108,-0.372803,0.0,-5.0,2.0,2595.0,6625.0,-3560.0,-152.0,-319.0,-192.0,311.0,-78.0,-242.0,0.33538,0.847699,-0.411022,5282.0,13586.0,-6828.0,22.0,-103.0,47.0
2847.0,2785.0,2863.0,3095.0,2999.0,0.393921,0.354858,-0.761536,-0.372803,0.0,-5.0,2.0,2606.0,6682.0,-3529.0,-141.0,-259.0,-156.0,260.0,-49.0,-202.0,0.335385,0.847377,-0.411705,5234.0,13684.0,-6888.0,13.0,-106.0,63.0
2851.0,2779.0,2867.0,3091.0,3011.0,0.39325,0.353882,-0.762329,-0.372803,0.0,-5.0,4.0,2571.0,6770.0,-3433.0,-179.0,-166.0,-51.0,163.0,55.0,-179.0,0.335715,0.846724,-0.412751,4974.0,13808.0,-6546.0,18.0,-113.0,94.0
2867.0,2791.0,2853.0,3103.0,2992.0,0.392883,0.353333,-0.762756,-0.372803,1.0,-5.0,5.0,2546.0,6783.0,-3385.0,-205.0,-150.0,0.0,127.0,99.0,-195.0,0.335902,0.846352,-0.413302,4976.0,13620.0,-6484.0,24.0,-112.0,115.0
2850.0,2790.0,2867.0,3111.0,2998.0,0.392151,0.352295,-0.763916,-0.372253,4.0,-5.0,5.0,2524.0,6754.0,-3335.0,-235.0,-168.0,67.0,88.0,134.0,-248.0,0.336855,0.845046,-0.415324,5010.0,13350.0,-6552.0,94.0,-98.0,115.0
2847.0,2775.0,2823.0,3089.0,2981.0,0.391724,0.35199,-0.764526,-0.371826,5.0,-5.0,4.0,2512.0,6730.0,-3321.0,-250.0,-186.0,92.0,78.0,145.0,-279.0,0.337208,0.844307,-0.416695,4932.0,13324.0,-6554.0,122.0,-95.0,94.0
2855.0,2787.0,2851.0,3095.0,3011.0,0.390564,0.351562,-0.765686,-0.371033,4.0,-6.0,2.0,2478.0,6667.0,-3336.0,-284.0,-237.0,101.0,99.0,151.0,-337.0,0.337216,0.842804,-0.419666,4836.0,13220.0,-6760.0,103.0,-124.0,63.0
2859.0,2783.0,2863.0,3120.0,3006.0,0.389832,0.351318,-0.766235,-0.370911,3.0,-7.0,1.0,2460.0,6677.0,-3355.0,-298.0,-223.0,93.0,109.0,167.0,-327.0,0.33679,0.84232,-0.420998,4820.0,13488.0,-6810.0,70.0,-148.0,39.0
2855.0,2799.0,2704.0,3103.0,3003.0,0.388367,0.350525,-0.766968,-0.371582,-3.0,-8.0,0.0,2459.0,6716.0,-3410.0,-287.0,-183.0,48.0,134.0,163.0,-270.0,0.335232,0.842247,-0.422205,4960.0,13498.0,-7050.0,-51.0,-178.0,18.0
2861.0,2786.0,2847.0,3095.0,2991.0,0.387695,0.350098,-0.767212,-0.372192,-4.0,-8.0,-1.0,2473.0,6702.0,-3454.0,-265.0,-200.0,5.0,165.0,124.0,-259.0,0.334282,0.842563,-0.422348,5088.0,13242.0,-7148.0,-80.0,-183.0,-1.0
2855.0,2791.0,2857.0,3091.0,2999.0,0.386292,0.349426,-0.767761,-0.373108,-1.0,-7.0,-2.0,2560.0,6608.0,-3505.0,-163.0,-296.0,-38.0,180.0,-18.0,-287.0,0.332412,0.842876,-0.423125,5472.0,13140.0,-7058.0,-14.0,-148.0,-26.0
2853.0,2787.0,2863.0,3115.0,3007.0,0.385681,0.349365,-0.768005,-0.37323,1.0,-5.0,-2.0,2630.0,6650.0,-3485.0,-86.0,-253.0,-12.0,112.0,-53.0,-236.0,0.331623,0.842772,-0.423838,5674.0,13638.0,-6862.0,32.0,-100.0,-44.0
2855.0,2791.0,2855.0,3101.0,3007.0,0.385071,0.349976,-0.768066,-0.37323,1.0,0.0,-4.0,2704.0,6778.0,-3516.0,-1.0,-126.0,-35.0,61.0,-69.0,-91.0,0.330277,0.842862,-0.424829,5466.0,13706.0,-7354.0,45.0,4.0,-77.0
2859.0,2781.0,2861.0,3103.0,3002.0,0.384827,0.350403,-0.768127,-0.373047,3.0,0.0,-3.0,2693.0,6785.0,-3568.0,-8.0,-119.0,-81.0,102.0,-74.0,-68.0,0.329758,0.842784,-0.425546,5270.0,13644.0,-7514.0,72.0,17.0,-68.0
2851.0,2787.0,2833.0,3103.0,3005.0,0.384216,0.351379,-0.768372,-0.372192,5.0,0.0,-2.0,2657.0,6890.0,-3633.0,-37.0,-7.0,-129.0,128.0,-11.0,37.0,0.32888,0.841975,-0.427713,5210.0,14214.0,-7382.0,119.0,13.0,-31.0
2854.0,2795.0,2859.0,3103.0,3007.0,0.383972,0.351746,-0.768494,-0.371765,4.0,0.0,-1.0,2655.0,6958.0,-3623.0,-37.0,64.0,-111.0,95.0,27.0,89.0,0.328627,0.841519,-0.428664,5320.0,14322.0,-7144.0,97.0,21.0,-9.0
2867.0,2787.0,2861.0,3099.0,3006.0,0.384155,0.352173,-0.768433,-0.37146,0.0,2.0,-1.0,2633.0,7090.0,-3562.0,-60.0,196.0,-47.0,17.0,128.0,165.0,0.328759,0.841462,-0.428957,5136.0,14460.0,-6908.0,3.0,54.0,-10.0
2855.0,2783.0,2851.0,3099.0,3007.0,0.384399,0.352295,-0.768127,-0.371643,-3.0,2.0,-1.0,2609.0,7085.0,-3527.0,-83.0,189.0,-18.0,4.0,153.0,139.0,0.32868,0.841782,-0.42825,5088.0,14038.0,-6832.0,-58.0,61.0,-13.0
2850.0,2782.0,2850.0,3095.0,3005.0,0.385193,0.352356,-0.767395,-0.372253,-4.0,2.0,-1.0,2574.0,6937.0,-3447.0,-120.0,32.0,43.0,9.0,127.0,-30.0,0.328859,0.842781,-0.426104,5100.0,13392.0,-6608.0,-87.0,64.0,-8.0
2859.0,2794.0,2857.0,3103.0,3005.0,0.385559,0.352356,-0.76709,-0.372559,-4.0,2.0,-1.0,2554.0,6885.0,-3422.0,-140.0,-23.0,60.0,18.0,122.0,-90.0,0.32897,0.84328,-0.425126,4960.0,13518.0,-6714.0,-82.0,59.0,-11.0
2851.0,2791.0,2864.0,3103.0,3003.0,0.385986,0.352295,-0.766602,-0.373169,-3.0,0.0,0.0,2496.0,6818.0,-3400.0,-198.0,-96.0,69.0,55.0,139.0,-175.0,0.328864,0.844106,-0.423549,4784.0,13436.0,-6794.0,-65.0,9.0,5.0
2860.0,2785.0,2859.0,3091.0,3007.0,0.385925,0.352112,-0.766602,-0.373352,-2.0,-2.0,1.0,2472.0,6780.0,-3397.0,-221.0,-135.0,70.0,74.0,140.0,-216.0,0.328779,0.844202,-0.423331,4814.0,13314.0,-6784.0,-41.0,-29.0,25.0
2855.0,2782.0,2871.0,3091.0,3007.0,0.385498,0.351685,-0.767029,-0.373413,1.0,-3.0,2.0,2476.0,6742.0,-3382.0,-216.0,-171.0,91.0,63.0,125.0,-253.0,0.328729,0.843985,-0.423969,5090.0,13518.0,-6568.0,33.0,-65.0,48.0
2855.0,2786.0,2855.0,3091.0,3007.0,0.385254,0.351501,-0.767273,-0.37323,2.0,-2.0,2.0,2505.0,6766.0,-3362.0,-188.0,-144.0,115.0,23.0,121.0,-232.0,0.328808,0.843573,-0.42454,5176.0,13702.0,-6594.0,54.0,-44.0,47.0
2853.0,2787.0,2864.0,3099.0,3007.0,0.385071,0.35144,-0.767639,-0.372803,2.0,0.0,0.0,2522.0,6808.0,-3339.0,-174.0,-97.0,146.0,-20.0,141.0,-201.0,0.329155,0.843015,-0.425519,5088.0,13748.0,-6588.0,57.0,5.0,14.0
2851.0,2779.0,2861.0,3099.0,3003.0,0.385071,0.351624,-0.767578,-0.372681,1.0,0.0,-1.0,2530.0,6832.0,-3315.0,-165.0,-73.0,171.0,-52.0,153.0,-188.0,0.329057,0.842923,-0.425645,5122.0,13824.0,-6482.0,44.0,22.0,-11.0
2854.0,2775.0,2863.0,3091.0,3007.0,0.385193,0.352051,-0.767212,-0.372864,-2.0,1.0,-2.0,2528.0,6911.0,-3292.0,-163.0,2.0,190.0,-88.0,192.0,-132.0,0.328515,0.843346,-0.425153,5026.0,13922.0,-6616.0,-26.0,31.0,-43.0
2859.0,2789.0,2853.0,3099.0,3003.0,0.385254,0.352173,-0.766968,-0.37323,-3.0,0.0,-2.0,2516.0,6917.0,-3306.0,-171.0,4.0,171.0,-69.0,194.0,-125.0,0.328072,0.843863,-0.424544,4924.0,13802.0,-6746.0,-54.0,13.0,-36.0
2854.0,2786.0,2851.0,3099.0,3005.0,0.385193,0.352295,-0.766785,-0.373657,-1.0,-1.0,-1.0,2541.0,6880.0,-3336.0,-141.0,-37.0,138.0,-44.0,140.0,-135.0,0.327445,0.844432,-0.424077,5222.0,13776.0,-6842.0,-8.0,-22.0,-13.0
2851.0,2783.0,2847.0,3093.0,2999.0,0.38501,0.352295,-0.766846,-0.373718,1.0,-2.0,-1.0,2563.0,6879.0,-3350.0,-117.0,-38.0,125.0,-43.0,116.0,-123.0,0.327168,0.844442,-0.424266,5266.0,13800.0,-6788.0,28.0,-30.0,-5.0
2851.0,2783.0,2855.0,3095.0,3007.0,0.384521,0.352356,-0.767212,-0.373413,2.0,-2.0,0.0,2588.0,6914.0,-3398.0,-89.0,0.0,87.0,-33.0,99.0,-66.0,0.32687,0.843951,-0.425475,5270.0,14008.0,-6930.0,64.0,-42.0,10.0
2855.0,2787.0,2831.0,3101.0,3007.0,0.384277,0.352295,-0.767395,-0.37323,2.0,-2.0,1.0,2612.0,6946.0,-3396.0,-65.0,35.0,94.0,-59.0,98.0,-31.0,0.326811,0.843588,-0.426037,5416.0,14074.0,-6762.0,52.0,-41.0,27.0
2850.0,2783.0,2855.0,3099.0,3005.0,0.384155,0.352051,-0.767639,-0.373108,0.0,-1.0,1.0,2631.0,6970.0,-3420.0,-48.0,61.0,73.0,-55.0,90.0,4.0,0.327079,0.843309,-0.426425,5268.0,13942.0,-6972.0,11.0,-12.0,27.0
2851.0,2751.0,2855.0,3098.0,2999.0,0.384155,0.35199,-0.7677,-0.373108,-1.0,-1.0,0.0,2632.0,6947.0,-3430.0,-48.0,38.0,63.0,-41.0,76.0,-10.0,0.327172,0.843307,-0.426476,5252.0,13718.0,-6896.0,-13.0,-4.0,21.0
2855.0,2783.0,2855.0,3101.0,2995.0,0.384338,0.351685,-0.7677,-0.37323,-2.0,-1.0,1.0,2607.0,6866.0,-3433.0,-76.0,-43.0,57.0,-2.0,59.0,-85.0,0.327595,0.843389,-0.426029,5086.0,13484.0,-6852.0,-24.0,-2.0,27.0
2854.0,2787.0,2851.0,3115.0,2999.0,0.384338,0.351562,-0.7677,-0.37323,-1.0,-1.0,1.0,2583.0,6839.0,-3441.0,-101.0,-69.0,48.0,22.0,65.0,-111.0,0.327686,0.843295,-0.425943,5024.0,13528.0,-6920.0,-15.0,-12.0,29.0
2855.0,2787.0,2855.0,3095.0,3007.0,0.384155,0.351196,-0.767944,-0.37323,0.0,-2.0,1.0,2529.0,6780.0,-3478.0,-156.0,-126.0,13.0,92.0,73.0,-162.0,0.327866,0.843068,-0.426201,4878.0,13412.0,-7164.0,9.0,-32.0,41.0
2851.0,2783.0,2847.0,3095.0,3007.0,0.383972,0.351074,-0.768188,-0.373108,1.0,-2.0,1.0,2510.0,6759.0,-3511.0,-176.0,-145.0,-15.0,130.0,71.0,-173.0,0.327949,0.84284,-0.426723,4938.0,13398.0,-7198.0,31.0,-44.0,44.0
2855.0,2783.0,2851.0,3091.0,3003.0,0.383484,0.35083,-0.768799,-0.37262,2.0,-2.0,1.0,2515.0,6741.0,-3535.0,-173.0,-156.0,-26.0,141.0,60.0,-176.0,0.328192,0.842014,-0.428228,5040.0,13522.0,-7128.0,54.0,-35.0,45.0
2859.0,2789.0,2863.0,3103.0,2999.0,0.38324,0.350708,-0.769043,-0.372375,2.0,-2.0,1.0,2509.0,6760.0,-3548.0,-180.0,-134.0,-34.0,145.0,74.0,-157.0,0.328266,0.841556,-0.428887,4974.0,13650.0,-7144.0,46.0,-31.0,39.0
2859.0,2787.0,2861.0,3099.0,3006.0,0.382935,0.350525,-0.769348,-0.372375,-1.0,-2.0,0.0,2499.0,6797.0,-3542.0,-189.0,-95.0,-23.0,130.0,103.0,-132.0,0.328166,0.841429,-0.429462,4982.0,13642.0,-7058.0,-11.0,-32.0,18.0
2853.0,2785.0,2864.0,3095.0,2999.0,0.382812,0.350403,-0.769348,-0.372559,-2.0,-2.0,0.0,2494.0,6788.0,-3544.0,-192.0,-105.0,-26.0,137.0,100.0,-140.0,0.327941,0.841532,-0.429333,4966.0,13478.0,-7098.0,-42.0,-30.0,1.0
2861.0,2783.0,2854.0,3099.0,3015.0,0.382446,0.350342,-0.769226,-0.37323,-3.0,-2.0,-2.0,2469.0,6745.0,-3590.0,-208.0,-154.0,-76.0,199.0,74.0,-165.0,0.326859,0.84217,-0.428882,4786.0,13378.0,-7322.0,-52.0,-42.0,-39.0
2855.0,2791.0,2859.0,3103.0,3007.0,0.38208,0.350464,-0.769226,-0.373535,-2.0,-3.0,-3.0,2444.0,6737.0,-3633.0,-226.0,-164.0,-118.0,246.0,72.0,-161.0,0.325991,0.842476,-0.42902,4742.0,13452.0,-7588.0,-44.0,-60.0,-48.0
2857.0,2793.0,2859.0,3107.0,3007.0,0.38092,0.350464,-0.769531,-0.374023,0.0,-4.0,-1.0,2435.0,6688.0,-3757.0,-220.0,-214.0,-234.0,355.0,7.0,-151.0,0.324097,0.842643,-0.430009,4930.0,13130.0,-7896.0,14.0,-91.0,-18.0
2854.0,2783.0,2858.0,3099.0,3003.0,0.38031,0.350464,-0.77002,-0.373657,4.0,-4.0,1.0,2480.0,6635.0,-3826.0,-172.0,-262.0,-291.0,393.0,-72.0,-150.0,0.323786,0.842017,-0.4315,5302.0,12972.0,-8044.0,95.0,-85.0,25.0
2843.0,2783.0,2851.0,3095.0,3003.0,0.379211,0.350586,-0.771667,-0.371338,12.0,-1.0,4.0,2618.0,6659.0,-3884.0,-43.0,-214.0,-306.0,334.0,-161.0,-59.0,0.324879,0.838991,-0.436688,5690.0,13626.0,-7764.0,290.0,-16.0,103.0
2859.0,2791.0,2859.0,3107.0,3007.0,0.378845,0.350769,-0.772583,-0.369568,14.0,1.0,5.0,2678.0,6733.0,-3870.0,6.0,-122.0,-267.0,254.0,-145.0,17.0,0.326113,0.836818,-0.439819,5680.0,13974.0,-7604.0,343.0,26.0,119.0
2854.0,2790.0,2863.0,3127.0,3011.0,0.378723,0.351318,-0.773987,-0.366272,12.0,3.0,5.0,2733.0,7032.0,-3734.0,38.0,207.0,-89.0,2.0,42.0,224.0,0.328897,0.833084,-0.444894,5612.0,15082.0,-6898.0,275.0,77.0,120.0
2859.0,2779.0,2847.0,3101.0,3007.0,0.379028,0.351379,-0.774231,-0.365295,6.0,3.0,4.0,2748.0,7188.0,-3634.0,43.0,372.0,17.0,-133.0,150.0,316.0,0.330196,0.832012,-0.445798,5566.0,15218.0,-6654.0,149.0,91.0,111.0
2855.0,2783.0,2855.0,3067.0,2999.0,0.380493,0.350891,-0.773926,-0.364929,-3.0,4.0,4.0,2731.0,7182.0,-3515.0,4.0,367.0,123.0,-203.0,212.0,252.0,0.332846,0.83188,-0.444137,5344.0,13928.0,-6832.0,-66.0,103.0,96.0
2857.0,2789.0,2863.0,3103.0,3007.0,0.381287,0.350525,-0.773682,-0.36499,-4.0,4.0,4.0,2705.0,7054.0,-3503.0,-32.0,237.0,124.0,-152.0,178.0,131.0,0.334113,0.832073,-0.442854,5256.0,13254.0,-6984.0,-88.0,94.0,102.0
2859.0,2787.0,2865.0,3107.0,3019.0,0.382446,0.349731,-0.773621,-0.364624,-1.0,2.0,5.0,2648.0,6762.0,-3500.0,-110.0,-51.0,117.0,-34.0,99.0,-131.0,0.336696,0.831668,-0.441585,5128.0,12748.0,-7060.0,-1.0,61.0,120.0
2855.0,2787.0,2859.0,3103.0,3005.0,0.382751,0.349426,-0.773865,-0.364075,2.0,1.0,5.0,2619.0,6677.0,-3503.0,-149.0,-130.0,117.0,3.0,92.0,-210.0,0.337961,0.830976,-0.441916,5072.0,12952.0,-7020.0,66.0,41.0,123.0
2855.0,2787.0,2845.0,3089.0,3007.0,0.382874,0.348999,-0.774658,-0.36261,5.0,0.0,5.0,2606.0,6682.0,-3489.0,-180.0,-109.0,146.0,-11.0,136.0,-216.0,0.340091,0.829042,-0.443818,5244.0,13596.0,-6826.0,125.0,8.0,121.0
2859.0,2795.0,2863.0,3107.0,3019.0,0.382935,0.348816,-0.775024,-0.362,4.0,0.0,4.0,2613.0,6733.0,-3462.0,-180.0,-52.0,180.0,-55.0,174.0,-184.0,0.341025,0.828264,-0.444653,5252.0,13782.0,-6784.0,107.0,9.0,111.0
2847.0,2790.0,2862.0,3095.0,3002.0,0.383118,0.348328,-0.775391,-0.36145,0.0,-1.0,3.0,2606.0,6821.0,-3419.0,-198.0,42.0,227.0,-111.0,249.0,-134.0,0.342326,0.827431,-0.445137,5148.0,13906.0,-6750.0,17.0,-4.0,74.0
2847.0,2788.0,2855.0,3099.0,3005.0,0.38324,0.348083,-0.775391,-0.361633,-2.0,-1.0,2.0,2597.0,6848.0,-3425.0,-209.0,68.0,218.0,-105.0,268.0,-112.0,0.342564,0.827613,-0.444741,5184.0,13806.0,-6918.0,-37.0,-14.0,56.0
2855.0,2786.0,2853.0,3107.0,3003.0,0.383606,0.347229,-0.775208,-0.362366,-5.0,-1.0,2.0,2617.0,6874.0,-3481.0,-193.0,89.0,148.0,-58.0,245.0,-58.0,0.343101,0.828216,-0.443052,5322.0,13808.0,-7126.0,-112.0,-18.0,62.0
2859.0,2794.0,2859.0,3101.0,3007.0,0.383911,0.346741,-0.775085,-0.362854,-6.0,-1.0,3.0,2624.0,6875.0,-3514.0,-189.0,86.0,106.0,-24.0,228.0,-40.0,0.343495,0.828721,-0.441936,5280.0,13756.0,-7210.0,-134.0,-5.0,69.0
2852.0,2783.0,2847.0,3103.0,3003.0,0.384521,0.345825,-0.774719,-0.36377,-6.0,0.0,1.0,2645.0,6814.0,-3607.0,-174.0,17.0,-5.0,80.0,148.0,-43.0,0.344191,0.829593,-0.4396,5404.0,13250.0,-7548.0,-124.0,16.0,45.0
2855.0,2799.0,2843.0,3095.0,3007.0,0.384827,0.345581,-0.774658,-0.363953,-4.0,1.0,1.0,2677.0,6740.0,-3637.0,-146.0,-58.0,-40.0,116.0,78.0,-80.0,0.344668,0.829855,-0.438969,5532.0,13038.0,-7452.0,-74.0,29.0,36.0
2859.0,2783.0,2857.0,3095.0,2999.0,0.385193,0.345581,-0.774597,-0.363586,1.0,2.0,1.0,2704.0,6654.0,-3652.0,-125.0,-141.0,-56.0,141.0,15.0,-135.0,0.345441,0.829497,-0.438858,5440.0,13132.0,-7262.0,30.0,58.0,24.0
2835.0,2789.0,2859.0,3101.0,3007.0,0.385376,0.345703,-0.774658,-0.363159,2.0,2.0,1.0,2704.0,6662.0,-3629.0,-130.0,-129.0,-31.0,119.0,32.0,-138.0,0.345979,0.8291,-0.439207,5404.0,13432.0,-7070.0,51.0,68.0,30.0
2859.0,2787.0,2855.0,3111.0,3009.0,0.385864,0.345886,-0.774597,-0.362671,0.0,2.0,1.0,2684.0,6745.0,-3559.0,-157.0,-44.0,39.0,50.0,117.0,-108.0,0.346893,0.828778,-0.439217,5348.0,13708.0,-6836.0,15.0,56.0,27.0
2855.0,2783.0,2859.0,3095.0,2999.0,0.386108,0.345886,-0.774475,-0.36261,-1.0,2.0,1.0,2687.0,6757.0,-3504.0,-157.0,-32.0,91.0,3.0,138.0,-120.0,0.347219,0.828764,-0.438883,5384.0,13522.0,-6658.0,-17.0,52.0,23.0
2862.0,2781.0,2851.0,3089.0,3011.0,0.38678,0.345886,-0.774048,-0.362854,-2.0,2.0,0.0,2674.0,6696.0,-3413.0,-174.0,-97.0,171.0,-40.0,144.0,-215.0,0.34776,0.829296,-0.437526,5242.0,13140.0,-6684.0,-34.0,51.0,4.0
2847.0,2785.0,2865.0,3103.0,2992.0,0.387024,0.345947,-0.773865,-0.362915,-2.0,1.0,0.0,2653.0,6655.0,-3392.0,-197.0,-140.0,188.0,-33.0,146.0,-266.0,0.347909,0.829474,-0.437051,5172.0,13080.0,-6692.0,-23.0,33.0,5.0
2854.0,2794.0,2855.0,3071.0,3007.0,0.387024,0.345886,-0.773804,-0.363037,0.0,-1.0,0.0,2623.0,6627.0,-3388.0,-226.0,-168.0,190.0,-14.0,156.0,-300.0,0.347822,0.829571,-0.436826,5204.0,13258.0,-6756.0,5.0,-9.0,15.0
2879.0,2785.0,2853.0,3093.0,3002.0,0.386963,0.345825,-0.773865,-0.363037,0.0,-2.0,0.0,2621.0,6633.0,-3396.0,-228.0,-162.0,183.0,-9.0,159.0,-293.0,0.347819,0.829526,-0.436925,5246.0,13336.0,-6856.0,17.0,-23.0,13.0
2862.0,2791.0,2859.0,3095.0,2993.0,0.386475,0.345825,-0.774109,-0.363037,1.0,-2.0,0.0,2617.0,6655.0,-3440.0,-227.0,-139.0,145.0,17.0,158.0,-257.0,0.347252,0.829366,-0.437681,5210.0,13376.0,-6992.0,32.0,-45.0,8.0
2839.0,2794.0,2855.0,3109.0,2999.0,0.386169,0.345825,-0.774292,-0.363037,1.0,-3.0,0.0,2618.0,6678.0,-3463.0,-223.0,-115.0,126.0,25.0,161.0,-227.0,0.346921,0.829288,-0.4382,5274.0,13520.0,-7050.0,32.0,-54.0,7.0
2847.0,2782.0,2865.0,3094.0,2997.0,0.385498,0.345703,-0.774658,-0.363037,1.0,-3.0,0.0,2625.0,6720.0,-3521.0,-211.0,-71.0,76.0,51.0,159.0,-165.0,0.346252,0.828995,-0.439201,5266.0,13560.0,-7244.0,27.0,-62.0,7.0
2863.0,2795.0,2859.0,3095.0,3005.0,0.385132,0.345703,-0.774841,-0.363098,1.0,-3.0,0.0,2635.0,6746.0,-3555.0,-197.0,-44.0,47.0,62.0,152.0,-125.0,0.345784,0.828969,-0.439723,5338.0,13644.0,-7324.0,28.0,-60.0,10.0
2863.0,2795.0,2853.0,3071.0,3006.0,0.384521,0.345581,-0.775269,-0.362915,1.0,-2.0,1.0,2661.0,6781.0,-3619.0,-168.0,-5.0,-7.0,85.0,132.0,-59.0,0.345382,0.82848,-0.440904,5410.0,13732.0,-7406.0,40.0,-40.0,24.0
2853.0,2786.0,2845.0,3089.0,2999.0,0.384338,0.34552,-0.775452,-0.362793,1.0,-2.0,1.0,2673.0,6807.0,-3637.0,-156.0,21.0,-21.0,85.0,131.0,-27.0,0.345367,0.82825,-0.441375,5426.0,13776.0,-7370.0,38.0,-29.0,27.0
2855.0,2781.0,2847.0,3103.0,2994.0,0.384094,0.345398,-0.775635,-0.362732,-1.0,-1.0,0.0,2698.0,6847.0,-3655.0,-130.0,63.0,-35.0,74.0,126.0,22.0,0.34526,0.828026,-0.441806,5462.0,13778.0,-7328.0,-3.0,-9.0,20.0
2855.0,2795.0,2851.0,3098.0,3007.0,0.384155,0.345337,-0.775635,-0.362793,-2.0,0.0,0.0,2710.0,6845.0,-3644.0,-119.0,61.0,-25.0,60.0,119.0,20.0,0.345357,0.828116,-0.441673,5518.0,13650.0,-7204.0,-26.0,1.0,17.0
2855.0,2787.0,2844.0,3106.0,3011.0,0.38446,0.345093,-0.775513,-0.362976,-2.0,1.0,1.0,2738.0,6781.0,-3611.0,-94.0,-4.0,1.0,44.0,74.0,-36.0,0.345787,0.828334,-0.440948,5550.0,13366.0,-7088.0,-32.0,25.0,25.0
2851.0,2783.0,2869.0,3121.0,3006.0,0.384644,0.344971,-0.775452,-0.362976,-1.0,1.0,1.0,2729.0,6751.0,-3591.0,-106.0,-34.0,18.0,42.0,74.0,-72.0,0.346113,0.828322,-0.440628,5374.0,13302.0,-7056.0,-15.0,27.0,28.0
2849.0,2785.0,2859.0,3109.0,2997.0,0.384888,0.344788,-0.775452,-0.362854,0.0,0.0,1.0,2706.0,6694.0,-3528.0,-134.0,-90.0,79.0,18.0,87.0,-155.0,0.346708,0.82816,-0.440402,5374.0,13214.0,-6818.0,3.0,2.0,42.0
2864.0,2790.0,2861.0,3103.0,3003.0,0.384888,0.344604,-0.775574,-0.362793,0.0,-1.0,2.0,2701.0,6668.0,-3505.0,-141.0,-115.0,103.0,7.0,87.0,-189.0,0.346977,0.828013,-0.44051,5402.0,13206.0,-6874.0,14.0,-10.0,48.0
2863.0,2789.0,2863.0,3091.0,2999.0,0.384827,0.344238,-0.775879,-0.36261,0.0,-2.0,1.0,2700.0,6652.0,-3478.0,-146.0,-127.0,133.0,-12.0,94.0,-214.0,0.347509,0.827627,-0.440911,5416.0,13268.0,-6890.0,16.0,-33.0,35.0
2845.0,2781.0,2843.0,3091.0,3015.0,0.384705,0.344055,-0.776001,-0.36261,0.0,-2.0,1.0,2707.0,6642.0,-3462.0,-140.0,-136.0,151.0,-27.0,90.0,-227.0,0.347547,0.82749,-0.441068,5448.0,13236.0,-6830.0,3.0,-40.0,25.0
2852.0,2785.0,2835.0,3095.0,3002.0,0.384399,0.343811,-0.776184,-0.362854,-1.0,-3.0,0.0,2718.0,6618.0,-3485.0,-126.0,-161.0,129.0,-9.0,60.0,-233.0,0.347223,0.827605,-0.441242,5494.0,13222.0,-7060.0,-10.0,-49.0,5.0
2851.0,2783.0,2833.0,3089.0,3013.0,0.384216,0.343689,-0.776245,-0.362976,-1.0,-3.0,0.0,2734.0,6616.0,-3493.0,-108.0,-163.0,122.0,-11.0,42.0,-226.0,0.34699,0.827619,-0.441305,5610.0,13200.0,-7048.0,-10.0,-46.0,0.0
2851.0,2791.0,2855.0,3071.0,3015.0,0.38385,0.343567,-0.776367,-0.363098,0.0,-2.0,-1.0,2748.0,6640.0,-3559.0,-90.0,-139.0,58.0,28.0,20.0,-171.0,0.34652,0.827551,-0.441603,5516.0,13386.0,-7342.0,5.0,-35.0,-4.0
2852.0,2783.0,2849.0,3095.0,2995.0,0.383667,0.343567,-0.776489,-0.363098,0.0,-2.0,0.0,2752.0,6657.0,-3590.0,-85.0,-121.0,30.0,45.0,17.0,-142.0,0.34633,0.827514,-0.441933,5544.0,13412.0,-7342.0,10.0,-34.0,1.0
2847.0,2786.0,2842.0,3071.0,3015.0,0.383301,0.343506,-0.776733,-0.363037,1.0,-2.0,0.0,2754.0,6685.0,-3628.0,-80.0,-92.0,-2.0,62.0,18.0,-102.0,0.346034,0.827298,-0.442596,5522.0,13482.0,-7290.0,24.0,-29.0,9.0
2832.0,2785.0,2847.0,3071.0,2999.0,0.383118,0.343445,-0.776855,-0.362976,0.0,-2.0,0.0,2756.0,6713.0,-3632.0,-77.0,-62.0,-3.0,54.0,30.0,-76.0,0.34593,0.827119,-0.442928,5526.0,13620.0,-7318.0,19.0,-26.0,7.0
2863.0,2788.0,2864.0,3115.0,2981.0,0.382935,0.343384,-0.776978,-0.362976,-1.0,-1.0,0.0,2772.0,6759.0,-3633.0,-60.0,-16.0,-2.0,34.0,40.0,-33.0,0.345783,0.827036,-0.443216,5568.0,13628.0,-7230.0,-5.0,-9.0,5.0
2850.0,2778.0,2855.0,3123.0,3011.0,0.382935,0.343384,-0.776978,-0.363098,-1.0,-1.0,-1.0,2777.0,6769.0,-3635.0,-54.0,-7.0,-4.0,30.0,39.0,-22.0,0.345699,0.827225,-0.443127,5572.0,13584.0,-7288.0,-12.0,-3.0,-2.0
2870.0,2791.0,2859.0,3091.0,2993.0,0.382935,0.343384,-0.776855,-0.36322,-1.0,0.0,-1.0,2771.0,6750.0,-3641.0,-59.0,-27.0,-13.0,45.0,30.0,-36.0,0.345522,0.827326,-0.442849,5510.0,13452.0,-7332.0,-20.0,3.0,-1.0
2845.0,2791.0,2864.0,3099.0,3007.0,0.382935,0.343323,-0.776855,-0.363342,-1.0,-1.0,-1.0,2762.0,6752.0,-3642.0,-68.0,-26.0,-15.0,51.0,37.0,-38.0,0.345482,0.827469,-0.442718,5470.0,13530.0,-7270.0,-20.0,-1.0,-2.0
2863.0,2791.0,2855.0,3095.0,2995.0,0.382996,0.343262,-0.776672,-0.363647,-2.0,0.0,-1.0,2764.0,6760.0,-3636.0,-64.0,-21.0,-14.0,47.0,37.0,-33.0,0.345272,0.827805,-0.442123,5550.0,13508.0,-7268.0,-42.0,3.0,-3.0
2855.0,2795.0,2862.0,3103.0,2991.0,0.383057,0.343262,-0.776611,-0.363831,-2.0,0.0,-1.0,2761.0,6745.0,-3635.0,-66.0,-38.0,-15.0,53.0,30.0,-47.0,0.345194,0.828087,-0.441849,5492.0,13380.0,-7284.0,-44.0,7.0,-7.0
2855.0,2783.0,2855.0,3071.0,3023.0,0.38324,0.34314,-0.776428,-0.364075,-2.0,0.0,0.0,2763.0,6713.0,-3616.0,-65.0,-72.0,-1.0,49.0,16.0,-81.0,0.345259,0.828365,-0.441162,5522.0,13404.0,-7104.0,-25.0,7.0,9.0
2851.0,2787.0,2837.0,3088.0,3011.0,0.383301,0.343079,-0.776428,-0.364136,-1.0,0.0,0.0,2754.0,6724.0,-3606.0,-75.0,-62.0,6.0,45.0,31.0,-79.0,0.345357,0.828455,-0.441029,5450.0,13538.0,-7156.0,-17.0,10.0,12.0
2855.0,2789.0,2854.0,3099.0,3013.0,0.383423,0.343018,-0.776367,-0.364197,-1.0,0.0,0.0,2733.0,6731.0,-3600.0,-97.0,-56.0,10.0,51.0,53.0,-84.0,0.345502,0.828542,-0.440755,5344.0,13452.0,-7242.0,-10.0,7.0,6.0
2847.0,2777.0,2857.0,3103.0,2994.0,0.383423,0.343018,-0.776306,-0.364258,-1.0,-1.0,0.0,2718.0,6737.0,-3606.0,-111.0,-50.0,3.0,62.0,66.0,-81.0,0.345413,0.828593,-0.440615,5386.0,13516.0,-7232.0,-12.0,-1.0,9.0
2863.0,2787.0,2855.0,3097.0,3006.0,0.383362,0.342834,-0.776306,-0.364441,-2.0,-1.0,0.0,2717.0,6732.0,-3595.0,-111.0,-56.0,12.0,56.0,65.0,-90.0,0.345326,0.828695,-0.440403,5440.0,13418.0,-7200.0,-23.0,-13.0,14.0
2862.0,2787.0,2863.0,3107.0,3007.0,0.383362,0.342773,-0.776306,-0.364563,-2.0,-1.0,0.0,2718.0,6730.0,-3580.0,-110.0,-59.0,26.0,44.0,67.0,-98.0,0.345287,0.828837,-0.440272,5460.0,13466.0,-7032.0,-26.0,-14.0,14.0
2855.0,2777.0,2843.0,3099.0,3007.0,0.383423,0.342529,-0.776306,-0.364746,-2.0,-1.0,0.0,2726.0,6721.0,-3580.0,-103.0,-69.0,23.0,46.0,56.0,-102.0,0.345435,0.828976,-0.439925,5438.0,13420.0,-7230.0,-26.0,-3.0,11.0
2851.0,2775.0,2839.0,3071.0,3006.0,0.383423,0.342468,-0.776306,-0.364868,-1.0,-1.0,0.0,2724.0,6712.0,-3588.0,-105.0,-80.0,14.0,57.0,49.0,-108.0,0.345396,0.829119,-0.439794,5436.0,13378.0,-7236.0,-20.0,-3.0,10.0
2862.0,2783.0,2847.0,3087.0,2999.0,0.383423,0.342224,-0.776367,-0.364929,-1.0,-1.0,1.0,2712.0,6696.0,-3612.0,-118.0,-95.0,-10.0,88.0,45.0,-115.0,0.345579,0.829071,-0.439677,5420.0,13338.0,-7224.0,-17.0,-12.0,31.0
2851.0,2797.0,2846.0,3088.0,3005.0,0.383423,0.342041,-0.776428,-0.364868,-1.0,-1.0,1.0,2714.0,6680.0,-3608.0,-118.0,-110.0,-6.0,88.0,38.0,-129.0,0.345801,0.828881,-0.439691,5426.0,13242.0,-7194.0,-9.0,-10.0,40.0
2859.0,2789.0,2877.0,3095.0,3010.0,0.383362,0.341736,-0.776794,-0.364502,1.0,-1.0,2.0,2708.0,6642.0,-3623.0,-130.0,-143.0,-15.0,110.0,29.0,-156.0,0.34646,0.828303,-0.440365,5378.0,13288.0,-7262.0,38.0,-8.0,47.0
2864.0,2789.0,2845.0,3099.0,2992.0,0.383301,0.341675,-0.776978,-0.364258,2.0,-1.0,1.0,2709.0,6656.0,-3621.0,-131.0,-126.0,-9.0,101.0,40.0,-145.0,0.346717,0.827969,-0.440832,5434.0,13410.0,-7206.0,49.0,-7.0,40.0
2857.0,2783.0,2859.0,3099.0,2987.0,0.38324,0.341553,-0.777222,-0.363953,0.0,-1.0,1.0,2723.0,6712.0,-3594.0,-120.0,-67.0,21.0,55.0,69.0,-106.0,0.347106,0.827537,-0.441398,5474.0,13586.0,-7094.0,9.0,-5.0,26.0
2849.0,2781.0,2858.0,3089.0,3007.0,0.38324,0.341431,-0.777222,-0.364075,-2.0,-1.0,0.0,2728.0,6724.0,-3588.0,-115.0,-55.0,26.0,46.0,73.0,-96.0,0.347112,0.827633,-0.441225,5488.0,13468.0,-7152.0,-25.0,-7.0,17.0
2847.0,2800.0,2861.0,3099.0,2983.0,0.383362,0.341248,-0.777161,-0.364258,-2.0,-1.0,0.0,2740.0,6662.0,-3595.0,-104.0,-119.0,15.0,66.0,29.0,-141.0,0.347263,0.827816,-0.440779,5524.0,13092.0,-7218.0,-25.0,-2.0,14.0
2855.0,2783.0,2855.0,3103.0,2999.0,0.383362,0.341125,-0.777161,-0.364258,-1.0,-1.0,0.0,2746.0,6635.0,-3594.0,-99.0,-145.0,16.0,69.0,12.0,-161.0,0.347352,0.827723,-0.440695,5526.0,13164.0,-7124.0,-4.0,0.0,22.0
2855.0,2780.0,2845.0,3093.0,2995.0,0.383362,0.341003,-0.777344,-0.364014,0.0,-1.0,1.0,2750.0,6655.0,-3590.0,-98.0,-122.0,23.0,57.0,25.0,-145.0,0.347748,0.827383,-0.441074,5488.0,13400.0,-7154.0,19.0,-5.0,23.0
2839.0,2782.0,2864.0,3105.0,2995.0,0.383301,0.340942,-0.777466,-0.363953,0.0,-1.0,0.0,2751.0,6673.0,-3575.0,-98.0,-104.0,40.0,38.0,39.0,-137.0,0.347833,0.827288,-0.441314,5514.0,13452.0,-7068.0,11.0,-7.0,22.0
2855.0,2791.0,2863.0,3103.0,3007.0,0.762329,0.222839,-0.607544,-0.007874,0.0,-1.0,0.0,7253.0,2759.0,1311.0,-306.0,-102.0,-19.0,-35.0,0.0,-321.0,0.922788,0.349321,0.162441,14446.0,5476.0,2664.0,4.0,-4.0,2.0
2855.0,2783.0,2853.0,3099.0,3007.0,0.762329,0.2229,-0.607483,-0.007874,0.0,-1.0,-1.0,7244.0,2759.0,1313.0,-314.0,-103.0,-18.0,-38.0,2.0,-328.0,0.922694,0.349413,0.162488,14416.0,5504.0,2600.0,5.0,-1.0,-3.0
2854.0,2783.0,2855.0,3101.0,3007.0,0.76239,0.2229,-0.607483,-0.007935,-1.0,0.0,-1.0,7254.0,2767.0,1315.0,-305.0,-96.0,-16.0,-40.0,5.0,-317.0,0.922741,0.349514,0.162582,14578.0,5558.0,2676.0,-2.0,2.0,-4.0
2861.0,2789.0,2859.0,3102.0,3005.0,0.76239,0.2229,-0.607422,-0.007935,-1.0,0.0,-1.0,7256.0,2770.0,1315.0,-302.0,-93.0,-17.0,-39.0,7.0,-313.0,0.922648,0.349513,0.162656,14494.0,5604.0,2586.0,-4.0,4.0,-1.0
2855.0,2790.0,2863.0,3103.0,3005.0,0.76239,0.222961,-0.607422,-0.007996,0.0,-1.0,0.0,7281.0,2795.0,1289.0,-277.0,-69.0,-43.0,-14.0,30.0,-286.0,0.922619,0.349681,0.16263,14702.0,5672.0,2530.0,4.0,-5.0,3.0
2853.0,2787.0,2858.0,3101.0,3005.0,0.762329,0.222961,-0.607483,-0.007935,0.0,-1.0,0.0,7304.0,2799.0,1282.0,-254.0,-64.0,-48.0,-5.0,30.0,-264.0,0.922666,0.34958,0.162461,14736.0,5580.0,2576.0,1.0,-1.0,12.0
2854.0,2783.0,2853.0,3095.0,3003.0,0.76239,0.222778,-0.607483,-0.007812,-1.0,0.0,0.0,7332.0,2786.0,1271.0,-227.0,-74.0,-61.0,16.0,17.0,-245.0,0.922797,0.34918,0.162634,14706.0,5438.0,2434.0,-7.0,9.0,22.0
2855.0,2789.0,2859.0,3099.0,3003.0,0.76239,0.222717,-0.607544,-0.00769,-1.0,0.0,0.0,7336.0,2765.0,1244.0,-224.0,-93.0,-87.0,46.0,8.0,-253.0,0.922945,0.348939,0.162585,14708.0,5380.0,2278.0,-8.0,8.0,22.0
2855.0,2786.0,2861.0,3101.0,3007.0,0.762329,0.222534,-0.607605,-0.007507,0.0,0.0,0.0,7341.0,2722.0,1174.0,-220.0,-132.0,-157.0,122.0,-5.0,-274.0,0.923049,0.348412,0.162497,14690.0,5272.0,2184.0,5.0,13.0,17.0
2853.0,2783.0,2857.0,3095.0,3003.0,0.762329,0.222534,-0.607666,-0.007324,0.0,1.0,0.0,7346.0,2709.0,1144.0,-217.0,-143.0,-186.0,153.0,-6.0,-280.0,0.923223,0.34819,0.16242,14724.0,5342.0,2096.0,18.0,24.0,16.0
2855.0,2785.0,2855.0,3103.0,3007.0,0.76239,0.222656,-0.607544,-0.006775,1.0,2.0,1.0,7338.0,2698.0,1100.0,-226.0,-150.0,-232.0,195.0,5.0,-298.0,0.923354,0.347734,0.162599,14618.0,5444.0,2074.0,36.0,50.0,26.0
2857.0,2787.0,2855.0,3103.0,3003.0,0.762451,0.222717,-0.607422,-0.00647,1.0,2.0,1.0,7324.0,2708.0,1085.0,-240.0,-138.0,-248.0,203.0,25.0,-309.0,0.923377,0.347482,0.162809,14546.0,5496.0,2080.0,44.0,59.0,24.0
2855.0,2787.0,2853.0,3103.0,3007.0,0.762634,0.223083,-0.607056,-0.005859,2.0,2.0,0.0,7286.0,2726.0,1110.0,-277.0,-119.0,-228.0,170.0,46.0,-334.0,0.923309,0.347376,0.163363,14468.0,5516.0,2366.0,53.0,67.0,12.0
2858.0,2787.0,2858.0,3103.0,3006.0,0.762756,0.223328,-0.606812,-0.005615,2.0,3.0,0.0,7260.0,2739.0,1137.0,-302.0,-107.0,-204.0,137.0,56.0,-349.0,0.923191,0.347504,0.163733,14350.0,5604.0,2456.0,54.0,69.0,5.0
2855.0,2787.0,2853.0,3101.0,2995.0,0.763062,0.223877,-0.606201,-0.00531,1.0,2.0,-1.0,7157.0,2803.0,1209.0,-402.0,-48.0,-140.0,36.0,116.0,-410.0,0.92276,0.348102,0.16469,13968.0,5768.0,2674.0,38.0,63.0,-21.0
2853.0,2786.0,2851.0,3103.0,3007.0,0.763245,0.224182,-0.605896,-0.005371,1.0,2.0,-2.0,7104.0,2823.0,1262.0,-453.0,-33.0,-91.0,-27.0,127.0,-444.0,0.922486,0.34872,0.165204,13904.0,5714.0,2898.0,25.0,57.0,-35.0
2854.0,2787.0,2843.0,3103.0,3005.0,0.763672,0.224731,-0.605225,-0.005737,-1.0,1.0,-3.0,7017.0,2828.0,1342.0,-534.0,-40.0,-21.0,-112.0,121.0,-509.0,0.921807,0.350187,0.166427,13898.0,5524.0,2940.0,0.0,43.0,-56.0
2859.0,2783.0,2851.0,3095.0,3007.0,0.763855,0.224915,-0.604919,-0.00592,0.0,1.0,-3.0,7004.0,2803.0,1374.0,-544.0,-70.0,5.0,-132.0,88.0,-525.0,0.921478,0.350767,0.166995,13970.0,5450.0,2918.0,11.0,33.0,-60.0
2851.0,2786.0,2843.0,3123.0,3011.0,0.763977,0.225586,-0.604431,-0.006348,1.0,-1.0,-3.0,6972.0,2780.0,1454.0,-570.0,-106.0,82.0,-201.0,38.0,-548.0,0.920679,0.352358,0.167475,13814.0,5556.0,3148.0,37.0,-1.0,-67.0
2851.0,2791.0,2855.0,3103.0,2995.0,0.763977,0.225952,-0.60437,-0.006531,1.0,-2.0,-4.0,6958.0,2784.0,1474.0,-582.0,-108.0,102.0,-222.0,33.0,-556.0,0.920498,0.353139,0.167386,13858.0,5594.0,3040.0,41.0,-29.0,-72.0
2855.0,2783.0,2855.0,3095.0,2995.0,0.76355,0.226807,-0.604492,-0.007019,2.0,-4.0,-3.0,6961.0,2786.0,1519.0,-575.0,-120.0,157.0,-268.0,3.0,-545.0,0.919936,0.354842,0.166205,14000.0,5556.0,3200.0,54.0,-88.0,-66.0
