flex_1,flex_2,flex_3,flex_4,flex_5,Qw,Qx,Qy,Qz,GYRx,GYRy,GYRz,ACCx,ACCy,ACCz,ACCx_real,ACCy_real,ACCz_real,ACCx_world,ACCy_world,ACCz_world,GRAx,GRAy,GRAz,ACCx_raw,ACCy_raw,ACCz_raw,GYRx_raw,GYRy_raw,GYRz_raw
2889.0,2823.0,2887.0,3127.0,3055.0,1.0,0.0,0.0,0.0,0.0,0.0,0.0,0.0,0.0,0.0,0.0,0.0,0.0,0.0,0.0,0.0,0.0,0.0,0.0,0.0,0.0,0.0,0.0,0.0,0.0
2898.0,2823.0,2895.0,3143.0,3047.0,0.961853,0.031982,-0.271667,-0.002869,-4.0,-1.0,-1.0,5236.0,671.0,6027.0,956.0,154.0,-939.0,1303.0,188.0,-289.0,0.522425,0.063083,0.850343,10518.0,1408.0,12062.0,-69.0,-19.0,-21.0
2892.0,2829.0,2895.0,3151.0,3039.0,0.961487,0.03125,-0.27301,-0.00354,-6.0,-1.0,-2.0,5235.0,683.0,6006.0,936.0,174.0,-948.0,1292.0,206.0,-302.0,0.52477,0.062026,0.848958,10444.0,1344.0,11868.0,-116.0,-15.0,-38.0
2896.0,2839.0,2909.0,3159.0,3055.0,0.961304,0.030762,-0.273682,-0.003906,-6.0,-1.0,-2.0,5236.0,654.0,5982.0,927.0,151.0,-967.0,1295.0,183.0,-323.0,0.525942,0.061281,0.848272,10472.0,1104.0,11810.0,-125.0,-17.0,-41.0
2894.0,2835.0,2907.0,3153.0,3047.0,0.960938,0.029785,-0.275085,-0.004578,-5.0,-1.0,-2.0,5248.0,559.0,5936.0,919.0,69.0,-1001.0,1308.0,100.0,-357.0,0.528407,0.059762,0.846863,10564.0,862.0,11742.0,-93.0,-19.0,-36.0
2893.0,2826.0,2896.0,3143.0,3051.0,0.960754,0.02948,-0.275818,-0.004822,-4.0,-1.0,-2.0,5261.0,526.0,5914.0,921.0,40.0,-1017.0,1319.0,71.0,-370.0,0.529702,0.059306,0.846128,10586.0,886.0,11686.0,-69.0,-11.0,-35.0
2896.0,2821.0,2893.0,3152.0,3051.0,0.960388,0.029114,-0.277039,-0.005249,-2.0,0.0,-2.0,5291.0,501.0,5893.0,934.0,19.0,-1027.0,1337.0,48.0,-369.0,0.531824,0.058829,0.844775,10700.0,978.0,11788.0,-31.0,9.0,-28.0
2896.0,2837.0,2902.0,3158.0,3059.0,0.960266,0.029053,-0.277527,-0.005432,-1.0,1.0,-2.0,5299.0,497.0,5888.0,935.0,15.0,-1028.0,1339.0,44.0,-368.0,0.532684,0.058812,0.844275,10620.0,964.0,11752.0,-13.0,31.0,-28.0
2897.0,2832.0,2891.0,3153.0,3055.0,0.960022,0.029236,-0.278259,-0.005676,-1.0,1.0,-2.0,5257.0,552.0,5905.0,882.0,66.0,-1004.0,1281.0,95.0,-371.0,0.533938,0.059293,0.843391,10354.0,1392.0,11880.0,-10.0,41.0,-25.0
2894.0,2829.0,2896.0,3135.0,3047.0,0.9599,0.029236,-0.278625,-0.005859,-2.0,1.0,-2.0,5240.0,603.0,5929.0,860.0,116.0,-976.0,1248.0,143.0,-356.0,0.534563,0.059392,0.842955,10364.0,1506.0,11960.0,-29.0,39.0,-25.0
2893.0,2831.0,2895.0,3143.0,3047.0,0.959717,0.028992,-0.279419,-0.006165,-3.0,0.0,-1.0,5196.0,615.0,5936.0,805.0,130.0,-963.0,1195.0,157.0,-371.0,0.535969,0.059093,0.842179,10306.0,1158.0,11896.0,-52.0,15.0,-8.0
2883.0,2834.0,2903.0,3158.0,3055.0,0.959534,0.028809,-0.279907,-0.006287,-3.0,0.0,0.0,5186.0,607.0,5948.0,788.0,125.0,-946.0,1172.0,151.0,-365.0,0.536799,0.058805,0.841566,10322.0,1194.0,11974.0,-47.0,1.0,1.0
2896.0,2838.0,2899.0,3155.0,3055.0,0.959229,0.028564,-0.280945,-0.006348,-2.0,-1.0,-1.0,5205.0,594.0,5980.0,792.0,115.0,-904.0,1153.0,138.0,-326.0,0.538618,0.058366,0.840414,10474.0,1120.0,12040.0,-32.0,0.0,-1.0
2895.0,2831.0,2893.0,3151.0,3045.0,0.959106,0.028503,-0.281494,-0.006409,-2.0,0.0,-1.0,5217.0,578.0,5992.0,796.0,100.0,-888.0,1149.0,122.0,-310.0,0.5396,0.058284,0.839875,10498.0,1044.0,12080.0,-23.0,5.0,-3.0
2894.0,2829.0,2895.0,3143.0,3063.0,0.958801,0.028503,-0.28241,-0.00647,0.0,0.0,-1.0,5231.0,549.0,6000.0,797.0,71.0,-871.0,1141.0,92.0,-295.0,0.541181,0.058312,0.838774,10460.0,1076.0,12024.0,8.0,16.0,-4.0
2894.0,2834.0,2901.0,3155.0,3051.0,0.958679,0.028625,-0.282837,-0.00647,0.0,0.0,-1.0,5215.0,551.0,6006.0,775.0,71.0,-861.0,1117.0,92.0,-297.0,0.541929,0.058545,0.838292,10320.0,1120.0,12050.0,11.0,12.0,-3.0
2895.0,2832.0,2896.0,3153.0,3054.0,0.958374,0.028809,-0.283936,-0.006409,-1.0,-2.0,0.0,5197.0,574.0,6006.0,741.0,91.0,-851.0,1084.0,113.0,-303.0,0.543864,0.058858,0.837072,10412.0,1206.0,12060.0,-1.0,-23.0,1.0
2894.0,2831.0,2899.0,3147.0,3053.0,0.958191,0.02887,-0.284607,-0.006409,-1.0,-2.0,0.0,5206.0,567.0,6004.0,740.0,83.0,-847.0,1081.0,105.0,-300.0,0.545045,0.058973,0.836336,10482.0,1064.0,11976.0,-2.0,-31.0,3.0
2890.0,2827.0,2891.0,3147.0,3051.0,0.957764,0.028992,-0.28595,-0.006348,0.0,-2.0,0.0,5230.0,543.0,5973.0,745.0,58.0,-865.0,1096.0,81.0,-310.0,0.547376,0.059165,0.834744,10548.0,1070.0,11850.0,18.0,-34.0,3.0
2897.0,2834.0,2900.0,3147.0,3055.0,0.95752,0.029175,-0.286682,-0.006287,1.0,-2.0,0.0,5244.0,549.0,5964.0,749.0,61.0,-866.0,1101.0,84.0,-307.0,0.548641,0.059475,0.833845,10588.0,1120.0,11870.0,27.0,-35.0,1.0
2894.0,2833.0,2900.0,3155.0,3047.0,0.957153,0.029602,-0.287964,-0.006226,1.0,-1.0,0.0,5275.0,585.0,5947.0,762.0,91.0,-871.0,1115.0,114.0,-299.0,0.550883,0.060253,0.832382,10608.0,1364.0,11824.0,36.0,-14.0,0.0
2891.0,2830.0,2895.0,3147.0,3047.0,0.95697,0.029846,-0.288574,-0.006165,0.0,-1.0,-1.0,5277.0,614.0,5939.0,755.0,116.0,-873.0,1111.0,140.0,-302.0,0.551946,0.060682,0.831664,10558.0,1392.0,11848.0,21.0,-9.0,-1.0
2896.0,2827.0,2893.0,3135.0,3047.0,0.956604,0.03009,-0.289612,-0.006165,0.0,-1.0,0.0,5258.0,622.0,5935.0,721.0,121.0,-867.0,1079.0,146.0,-313.0,0.553717,0.06114,0.830349,10498.0,1178.0,11854.0,2.0,-8.0,8.0
2896.0,2835.0,2899.0,3155.0,3053.0,0.956482,0.030151,-0.290161,-0.006042,0.0,-1.0,0.0,5252.0,617.0,5941.0,707.0,115.0,-856.0,1062.0,140.0,-311.0,0.554703,0.061185,0.829792,10466.0,1206.0,11924.0,5.0,-9.0,19.0
2891.0,2833.0,2903.0,3153.0,3025.0,0.956116,0.030273,-0.29126,-0.005798,0.0,-2.0,1.0,5209.0,605.0,5941.0,649.0,103.0,-845.0,1009.0,130.0,-332.0,0.556605,0.061267,0.828442,10344.0,1182.0,11904.0,7.0,-29.0,30.0
2891.0,2828.0,2895.0,3152.0,3043.0,0.955933,0.030273,-0.29187,-0.005615,0.0,-2.0,1.0,5211.0,592.0,5932.0,642.0,91.0,-848.0,1005.0,118.0,-338.0,0.557676,0.061157,0.827734,10466.0,1074.0,11850.0,8.0,-39.0,32.0
2895.0,2832.0,2897.0,3147.0,3049.0,0.955566,0.030396,-0.293152,-0.00531,0.0,-2.0,1.0,5247.0,559.0,5930.0,660.0,57.0,-838.0,1015.0,84.0,-319.0,0.559929,0.061203,0.826273,10602.0,1076.0,11824.0,21.0,-23.0,23.0
2891.0,2832.0,2897.0,3151.0,3055.0,0.955383,0.030518,-0.293762,-0.005127,0.0,-1.0,0.0,5251.0,560.0,5933.0,655.0,57.0,-829.0,1007.0,84.0,-313.0,0.560998,0.061324,0.825556,10532.0,1134.0,11918.0,21.0,-18.0,20.0
2895.0,2829.0,2899.0,3151.0,3055.0,0.955017,0.03064,-0.2948,-0.004944,-1.0,-1.0,0.0,5239.0,586.0,5942.0,628.0,82.0,-810.0,974.0,109.0,-309.0,0.562775,0.061438,0.824236,10470.0,1212.0,11916.0,-1.0,-18.0,15.0
2887.0,2829.0,2896.0,3151.0,3051.0,0.954834,0.03064,-0.295349,-0.004883,-1.0,-1.0,0.0,5246.0,576.0,5943.0,628.0,73.0,-803.0,970.0,100.0,-302.0,0.56372,0.061396,0.823562,10566.0,1090.0,11874.0,-7.0,-16.0,13.0
2893.0,2829.0,2895.0,3143.0,3045.0,0.954529,0.030701,-0.296326,-0.0047,0.0,-1.0,0.0,5239.0,544.0,5944.0,607.0,41.0,-793.0,948.0,68.0,-306.0,0.565414,0.061395,0.822396,10440.0,1044.0,11924.0,16.0,-13.0,17.0
2869.0,2832.0,2896.0,3152.0,3055.0,0.954407,0.030823,-0.296875,-0.004578,1.0,-1.0,0.0,5237.0,548.0,5948.0,597.0,43.0,-784.0,935.0,70.0,-303.0,0.566397,0.061553,0.821828,10478.0,1138.0,11912.0,26.0,-15.0,19.0
2882.0,2831.0,2887.0,3151.0,3047.0,0.954041,0.031128,-0.297852,-0.004333,0.0,-1.0,0.0,5244.0,576.0,5971.0,590.0,68.0,-750.0,910.0,94.0,-276.0,0.568055,0.061976,0.820528,10496.0,1182.0,12024.0,18.0,-16.0,15.0
2893.0,2831.0,2897.0,3127.0,3043.0,0.953918,0.03125,-0.29834,-0.004272,0.0,-1.0,0.0,5238.0,580.0,5971.0,577.0,70.0,-746.0,898.0,96.0,-279.0,0.568917,0.062169,0.819995,10432.0,1164.0,11904.0,14.0,-14.0,11.0
2890.0,2826.0,2895.0,3151.0,3054.0,0.953613,0.031433,-0.299377,-0.004089,0.0,-2.0,0.0,5231.0,568.0,5984.0,555.0,56.0,-723.0,867.0,82.0,-271.0,0.570724,0.062399,0.81878,10464.0,1118.0,11994.0,22.0,-27.0,15.0
2895.0,2833.0,2895.0,3153.0,3051.0,0.95343,0.031555,-0.299927,-0.003906,1.0,-2.0,0.0,5228.0,567.0,5983.0,544.0,54.0,-718.0,856.0,81.0,-273.0,0.571672,0.062514,0.818093,10454.0,1138.0,11974.0,26.0,-36.0,18.0
2893.0,2833.0,2896.0,3151.0,3055.0,0.953003,0.031799,-0.30127,-0.003662,0.0,-3.0,0.0,5248.0,582.0,5986.0,545.0,67.0,-702.0,848.0,93.0,-256.0,0.573989,0.062816,0.816453,10560.0,1184.0,12034.0,14.0,-57.0,21.0
2891.0,2830.0,2895.0,3151.0,3039.0,0.952759,0.03186,-0.301941,-0.00354,0.0,-3.0,1.0,5248.0,581.0,5987.0,536.0,66.0,-694.0,836.0,92.0,-253.0,0.575128,0.062848,0.815578,10502.0,1154.0,12014.0,12.0,-67.0,24.0
2891.0,2823.0,2892.0,3142.0,3043.0,0.952271,0.031982,-0.303467,-0.003296,0.0,-4.0,1.0,5293.0,584.0,6010.0,560.0,68.0,-655.0,834.0,92.0,-205.0,0.577754,0.062912,0.813715,10764.0,1158.0,12098.0,13.0,-71.0,27.0
2896.0,2834.0,2899.0,3153.0,3051.0,0.952026,0.032043,-0.304199,-0.003113,0.0,-3.0,1.0,5309.0,587.0,6023.0,565.0,71.0,-635.0,827.0,94.0,-184.0,0.579012,0.062906,0.8128,10684.0,1226.0,12058.0,16.0,-64.0,29.0
2895.0,2833.0,2903.0,3151.0,3059.0,0.951538,0.032166,-0.305725,-0.002747,0.0,-4.0,2.0,5309.0,628.0,6039.0,544.0,112.0,-604.0,792.0,134.0,-166.0,0.581641,0.062893,0.81093,10590.0,1422.0,12132.0,7.0,-86.0,48.0
2887.0,2827.0,2891.0,3142.0,3046.0,0.951294,0.032166,-0.306641,-0.002502,-1.0,-5.0,2.0,5304.0,655.0,6050.0,526.0,141.0,-584.0,765.0,162.0,-157.0,0.58325,0.062732,0.809903,10600.0,1452.0,12162.0,-15.0,-112.0,60.0
2893.0,2823.0,2893.0,3147.0,3047.0,0.950623,0.031738,-0.308716,-0.002014,-2.0,-7.0,2.0,5313.0,628.0,6067.0,505.0,123.0,-547.0,727.0,143.0,-137.0,0.586817,0.061586,0.807375,10670.0,1082.0,12178.0,-36.0,-157.0,65.0
2895.0,2832.0,2895.0,3152.0,3051.0,0.950195,0.031555,-0.309937,-0.001709,-2.0,-8.0,3.0,5332.0,606.0,6065.0,507.0,106.0,-536.0,723.0,125.0,-126.0,0.588893,0.061027,0.805818,10832.0,1110.0,12124.0,-23.0,-179.0,69.0
2895.0,2831.0,2891.0,3150.0,3055.0,0.949341,0.031311,-0.312561,-0.001099,0.0,-9.0,3.0,5372.0,581.0,6059.0,510.0,88.0,-515.0,714.0,107.0,-105.0,0.593385,0.060136,0.802574,10782.0,1148.0,12104.0,8.0,-191.0,76.0
2887.0,2823.0,2890.0,3143.0,3051.0,0.948914,0.031311,-0.313965,-0.000732,0.0,-9.0,3.0,5391.0,587.0,6050.0,510.0,96.0,-510.0,711.0,115.0,-98.0,0.595805,0.059883,0.800883,10954.0,1216.0,12056.0,17.0,-204.0,78.0
2894.0,2827.0,2891.0,3141.0,3053.0,0.947937,0.031433,-0.316772,0.000122,1.0,-10.0,3.0,5416.0,600.0,6016.0,496.0,112.0,-515.0,703.0,132.0,-106.0,0.600568,0.059516,0.797252,10794.0,1258.0,11898.0,26.0,-211.0,86.0
2895.0,2831.0,2891.0,3154.0,3055.0,0.947449,0.031494,-0.318298,0.000549,1.0,-11.0,3.0,5418.0,615.0,5983.0,476.0,128.0,-532.0,697.0,150.0,-128.0,0.603177,0.059328,0.795354,10856.0,1326.0,11770.0,25.0,-233.0,89.0
2895.0,2832.0,2901.0,3151.0,3045.0,0.94635,0.031494,-0.321594,0.001404,0.0,-12.0,3.0,5443.0,616.0,5925.0,455.0,135.0,-556.0,696.0,160.0,-154.0,0.60877,0.058706,0.791166,10974.0,1178.0,11658.0,16.0,-271.0,91.0
2891.0,2831.0,2891.0,3151.0,3046.0,0.94574,0.031494,-0.323425,0.001831,0.0,-13.0,4.0,5454.0,603.0,5886.0,441.0,124.0,-576.0,698.0,151.0,-177.0,0.611868,0.058386,0.788831,10978.0,1124.0,11536.0,16.0,-288.0,96.0
2895.0,2831.0,2895.0,3147.0,3043.0,0.944397,0.031494,-0.327209,0.002808,1.0,-14.0,4.0,5469.0,575.0,5801.0,404.0,102.0,-620.0,697.0,133.0,-230.0,0.618208,0.057649,0.783836,10964.0,1068.0,11298.0,24.0,-318.0,103.0
2895.0,2834.0,2899.0,3151.0,3039.0,0.943665,0.031494,-0.329285,0.003357,1.0,-15.0,4.0,5485.0,553.0,5754.0,392.0,84.0,-644.0,704.0,117.0,-254.0,0.62168,0.057229,0.781094,11078.0,964.0,11222.0,32.0,-337.0,107.0
2894.0,2832.0,2895.0,3151.0,3053.0,0.9422,0.031616,-0.333557,0.004578,2.0,-15.0,4.0,5593.0,530.0,5647.0,441.0,66.0,-705.0,783.0,104.0,-265.0,0.628844,0.056524,0.775501,11484.0,1060.0,10898.0,58.0,-326.0,113.0
2893.0,2827.0,2896.0,3147.0,3050.0,0.941406,0.031799,-0.335571,0.005188,2.0,-14.0,4.0,5610.0,524.0,5570.0,431.0,62.0,-759.0,811.0,104.0,-310.0,0.632148,0.05639,0.772653,11212.0,1006.0,10618.0,67.0,-311.0,112.0
2894.0,2827.0,2894.0,3143.0,3039.0,0.93988,0.032349,-0.339844,0.006348,3.0,-16.0,3.0,5562.0,493.0,5398.0,325.0,30.0,-884.0,813.0,84.0,-468.0,0.639236,0.056493,0.766875,10992.0,862.0,10276.0,90.0,-357.0,85.0
2896.0,2832.0,2907.0,3151.0,3047.0,0.939026,0.032776,-0.342163,0.006836,5.0,-18.0,3.0,5529.0,470.0,5306.0,261.0,4.0,-949.0,809.0,64.0,-556.0,0.643048,0.056877,0.763667,10832.0,810.0,10018.0,116.0,-391.0,74.0
2891.0,2832.0,2895.0,3151.0,3055.0,0.936951,0.034058,-0.347656,0.008118,7.0,-23.0,3.0,5459.0,405.0,5069.0,117.0,-71.0,-1123.0,822.0,6.0,-776.0,0.652026,0.058176,0.755918,10814.0,594.0,9342.0,181.0,-515.0,87.0
2891.0,2823.0,2883.0,3135.0,3035.0,0.935669,0.034912,-0.350952,0.00885,9.0,-25.0,4.0,5491.0,361.0,4931.0,105.0,-123.0,-1222.0,885.0,-36.0,-856.0,0.657368,0.05912,0.751168,11236.0,438.0,9002.0,219.0,-568.0,92.0
2893.0,2831.0,2886.0,3137.0,3047.0,0.932861,0.037109,-0.358093,0.010559,12.0,-27.0,3.0,5602.0,260.0,4579.0,122.0,-245.0,-1489.0,1095.0,-130.0,-1036.0,0.668886,0.061674,0.740734,11558.0,176.0,7938.0,285.0,-605.0,79.0
2891.0,2829.0,2877.0,3155.0,3057.0,0.931335,0.03833,-0.361877,0.011475,13.0,-27.0,3.0,5683.0,195.0,4342.0,153.0,-321.0,-1679.0,1258.0,-187.0,-1151.0,0.674938,0.063092,0.735093,11926.0,-18.0,7228.0,304.0,-618.0,77.0
2899.0,2833.0,2896.0,3151.0,3046.0,0.928284,0.041077,-0.369385,0.013245,14.0,-20.0,1.0,6095.0,80.0,3817.0,468.0,-464.0,-2111.0,1811.0,-283.0,-1237.0,0.686876,0.066477,0.723754,13748.0,-58.0,6104.0,335.0,-458.0,29.0
2887.0,2827.0,2887.0,3135.0,3039.0,0.927063,0.042542,-0.372192,0.013977,13.0,-12.0,0.0,6313.0,86.0,3562.0,650.0,-474.0,-2330.0,2102.0,-267.0,-1259.0,0.691281,0.068473,0.719304,13930.0,398.0,5656.0,309.0,-262.0,0.0
2895.0,2818.0,2898.0,3143.0,3039.0,0.926392,0.044495,-0.373657,0.013916,1.0,19.0,-6.0,7026.0,453.0,3530.0,1344.0,-137.0,-2341.0,2594.0,70.0,-755.0,0.693544,0.072039,0.716796,16626.0,2164.0,7124.0,26.0,447.0,-133.0
2893.0,2838.0,2897.0,3151.0,3055.0,0.92749,0.044495,-0.370972,0.012878,-7.0,44.0,-10.0,7684.0,529.0,3667.0,2037.0,-68.0,-2237.0,3016.0,119.0,-213.0,0.689291,0.072982,0.720804,19920.0,1152.0,8556.0,-156.0,1028.0,-226.0
2895.0,2832.0,2903.0,3157.0,3055.0,0.934631,0.043274,-0.352783,0.010376,-7.0,135.0,-17.0,9366.0,271.0,3925.0,3956.0,-331.0,-2197.0,4433.0,-179.0,946.0,0.660343,0.073569,0.747315,24262.0,-458.0,8844.0,-154.0,3093.0,-382.0
2895.0,2829.0,2895.0,3151.0,3051.0,0.941284,0.043579,-0.334595,0.008484,-1.0,201.0,-31.0,10458.0,234.0,4091.0,5291.0,-391.0,-2235.0,5529.0,-263.0,1580.0,0.630637,0.076363,0.772235,27392.0,394.0,8666.0,-16.0,4625.0,-697.0
2883.0,2815.0,2899.0,3151.0,3039.0,0.961304,0.048523,-0.271179,-0.003052,-1.0,356.0,-93.0,10742.0,442.0,3243.0,6473.0,-335.0,-3705.0,7460.0,-202.0,198.0,0.521075,0.094946,0.848221,17718.0,1270.0,1974.0,-18.0,8159.0,-2112.0
2885.0,2831.0,2896.0,3152.0,3055.0,0.972412,0.051636,-0.22699,-0.014771,-11.0,404.0,-128.0,9518.0,319.0,2293.0,5914.0,-558.0,-5011.0,7518.0,-393.0,-1925.0,0.43993,0.107128,0.891613,10604.0,-474.0,-1492.0,-246.0,9268.0,-2913.0
2887.0,2831.0,2896.0,3135.0,3039.0,0.989502,0.053894,-0.12616,-0.045349,-40.0,420.0,-150.0,5451.0,-42.0,829.0,3445.0,-1009.0,-7054.0,5039.0,-683.0,-6064.0,0.244782,0.118099,0.96235,-3248.0,296.0,-368.0,-899.0,9622.0,-3425.0
2889.0,2831.0,2896.0,3147.0,3055.0,0.996033,0.044495,-0.033447,-0.068848,-104.0,297.0,-72.0,217.0,1061.0,2049.0,-278.0,297.0,-6091.0,208.0,843.0,-6041.0,0.060502,0.093242,0.993723,-14552.0,4302.0,10592.0,-2361.0,6803.0,-1629.0
2887.0,2826.0,2887.0,3152.0,3045.0,0.996765,0.033142,-0.00061,-0.072632,-118.0,210.0,-28.0,-1719.0,736.0,3533.0,-1689.0,194.0,-4640.0,-1614.0,742.0,-4610.0,-0.003598,0.066158,0.997717,-14032.0,-1954.0,16242.0,-2693.0,4823.0,-631.0
2885.0,2823.0,2893.0,3143.0,3031.0,0.99646,0.013916,0.039917,-0.07251,-38.0,102.0,5.0,-3535.0,-1704.0,6036.0,-2866.0,-1883.0,-2126.0,-3265.0,-1380.0,-1925.0,-0.081569,0.021945,0.996403,-9404.0,-10374.0,18962.0,-848.0,2356.0,131.0
2878.0,2818.0,2879.0,3147.0,3039.0,0.995483,0.016968,0.062012,-0.069031,36.0,64.0,19.0,-4073.0,-1552.0,7959.0,-3042.0,-1758.0,-164.0,-3254.0,-1321.0,175.0,-0.125806,0.025221,0.991619,-10734.0,1612.0,20880.0,827.0,1483.0,449.0
2889.0,2832.0,2899.0,3155.0,3059.0,0.995056,0.022522,0.06958,-0.066895,35.0,45.0,17.0,-4609.0,-536.0,8875.0,-3449.0,-826.0,770.0,-3392.0,-411.0,1220.0,-0.141485,0.035512,0.989263,-12954.0,5224.0,22904.0,804.0,1032.0,403.0
2891.0,2832.0,2897.0,3151.0,3055.0,0.994507,0.029297,0.075684,-0.065857,1.0,-28.0,-3.0,-6364.0,1164.0,10163.0,-5099.0,768.0,2079.0,-4587.0,1263.0,2875.0,-0.154395,0.048303,0.986795,-18012.0,6272.0,24004.0,35.0,-641.0,-49.0
2895.0,2831.0,2898.0,3151.0,3053.0,0.995544,0.026123,0.059814,-0.067993,-19.0,-137.0,-8.0,-7552.0,1286.0,10949.0,-6547.0,926.0,2826.0,-5984.0,1612.0,3645.0,-0.122648,0.043879,0.991472,-17030.0,624.0,23322.0,-429.0,-3119.0,-166.0
2885.0,2823.0,2895.0,3139.0,3039.0,0.99646,0.023193,0.041748,-0.069092,-8.0,-189.0,-4.0,-7464.0,691.0,11034.0,-6756.0,359.0,2879.0,-6387.0,1122.0,3464.0,-0.086405,0.040454,0.995425,-13630.0,-2620.0,22202.0,-177.0,-4325.0,-87.0
2894.0,2827.0,2899.0,3135.0,3043.0,0.997131,0.023315,-0.010498,-0.070557,45.0,-241.0,1.0,-5244.0,-442.0,10928.0,-5388.0,-835.0,2747.0,-5516.0,-188.0,2608.0,0.017646,0.047979,0.998595,-390.0,-2736.0,22368.0,1053.0,-5505.0,39.0
2887.0,2818.0,2895.0,3143.0,3039.0,0.994873,0.034668,-0.065125,-0.069092,71.0,-208.0,16.0,-2334.0,-128.0,10348.0,-3356.0,-766.0,2245.0,-3698.0,-414.0,1742.0,0.124791,0.07798,0.989103,1646.0,2076.0,17802.0,1641.0,-4753.0,384.0
2895.0,2832.0,2909.0,3151.0,3051.0,0.992737,0.041443,-0.090759,-0.066772,68.0,-211.0,23.0,-1778.0,388.0,9709.0,-3208.0,-385.0,1680.0,-3486.0,-48.0,1049.0,0.174666,0.094404,0.98003,-1036.0,4014.0,15378.0,1562.0,-4830.0,531.0
2893.0,2833.0,2897.0,3155.0,3055.0,0.985596,0.05249,-0.14801,-0.062317,52.0,-265.0,25.0,-1441.0,1105.0,8033.0,-3777.0,106.0,245.0,-3643.0,606.0,-831.0,0.285214,0.121915,0.95062,-2018.0,3190.0,10238.0,1198.0,-6057.0,574.0
2887.0,2803.0,2895.0,3127.0,3047.0,0.979736,0.056091,-0.182495,-0.060059,48.0,-300.0,28.0,-991.0,1064.0,7017.0,-3865.0,-15.0,-577.0,-3370.0,569.0,-1892.0,0.350857,0.13183,0.92704,1466.0,1578.0,8104.0,1108.0,-6857.0,655.0
2883.0,2827.0,2887.0,3119.0,3050.0,0.96228,0.062256,-0.259155,-0.054565,56.0,-309.0,30.0,1768.0,761.0,5660.0,-2262.0,-452.0,-1368.0,-1285.0,-10.0,-2353.0,0.491966,0.148097,0.857923,14264.0,918.0,8200.0,1287.0,-7071.0,695.0
2881.0,2826.0,2867.0,3143.0,3039.0,0.941467,0.070312,-0.326355,-0.046204,62.0,-231.0,34.0,5378.0,936.0,4943.0,397.0,-395.0,-1422.0,1177.0,-296.0,-927.0,0.608008,0.162551,0.777044,20364.0,3460.0,7826.0,1433.0,-5280.0,795.0
2890.0,2825.0,2901.0,3151.0,3053.0,0.932129,0.074707,-0.351868,-0.041443,56.0,-186.0,34.0,6550.0,1309.0,4524.0,1227.0,-70.0,-1547.0,1941.0,-57.0,-361.0,0.64978,0.168438,0.74119,19376.0,5126.0,6472.0,1283.0,-4239.0,786.0
2895.0,2833.0,2896.0,3151.0,3054.0,0.917053,0.080322,-0.389099,-0.03418,22.0,-126.0,28.0,7200.0,2110.0,3498.0,1398.0,685.0,-2107.0,2486.0,753.0,-332.0,0.708158,0.173918,0.684305,14560.0,6168.0,3928.0,504.0,-2872.0,645.0
2895.0,2823.0,2890.0,3138.0,3039.0,0.910828,0.080139,-0.403625,-0.032227,1.0,-110.0,26.0,7189.0,2262.0,3005.0,1208.0,852.0,-2412.0,2592.0,979.0,-566.0,0.730101,0.172001,0.66131,14384.0,5028.0,3070.0,38.0,-2516.0,601.0
2891.0,2819.0,2895.0,3139.0,3043.0,0.900879,0.074219,-0.426636,-0.02948,-21.0,-67.0,26.0,7929.0,1803.0,2292.0,1667.0,501.0,-2827.0,3237.0,607.0,-412.0,0.764318,0.158879,0.624925,19338.0,1244.0,3042.0,-470.0,-1526.0,610.0
2895.0,2833.0,2893.0,3155.0,3067.0,0.898132,0.070251,-0.433228,-0.027588,-19.0,-29.0,26.0,8458.0,1330.0,2021.0,2114.0,100.0,-3015.0,3674.0,173.0,-201.0,0.774315,0.150094,0.614781,19682.0,-176.0,2324.0,-419.0,-652.0,598.0
2894.0,2833.0,2896.0,3139.0,3039.0,0.898438,0.064819,-0.433716,-0.022705,-7.0,53.0,16.0,9451.0,699.0,1571.0,3090.0,-416.0,-3470.0,4645.0,-376.0,206.0,0.77639,0.136167,0.615395,22580.0,392.0,2538.0,-139.0,1222.0,382.0
2864.0,2822.0,2887.0,3151.0,3031.0,0.9021,0.063782,-0.42627,-0.020874,-5.0,105.0,6.0,10027.0,695.0,1455.0,3748.0,-393.0,-3693.0,5239.0,-375.0,499.0,0.766412,0.132871,0.628446,23476.0,1692.0,2202.0,-107.0,2422.0,145.0
2896.0,2829.0,2899.0,3135.0,3039.0,0.91748,0.062927,-0.39209,-0.021912,-26.0,232.0,-27.0,11464.0,1331.0,1360.0,5592.0,244.0,-4247.0,6932.0,158.0,1132.0,0.716712,0.132652,0.684556,26966.0,5318.0,2254.0,-580.0,5332.0,-597.0
2887.0,2823.0,2887.0,3151.0,3023.0,0.943054,0.060547,-0.324768,-0.037964,-76.0,373.0,-106.0,11309.0,1958.0,456.0,6328.0,820.0,-5947.0,8671.0,642.0,-687.0,0.607951,0.138857,0.781652,19588.0,4080.0,-2824.0,-1723.0,8565.0,-2409.0
2901.0,2831.0,2899.0,3153.0,3039.0,0.957031,0.057556,-0.278748,-0.054749,-101.0,428.0,-154.0,10319.0,1533.0,-418.0,5999.0,380.0,-7282.0,8989.0,134.0,-2885.0,0.527238,0.140688,0.837893,13820.0,-236.0,-6504.0,-2297.0,9822.0,-3522.0
2891.0,2833.0,2903.0,3165.0,3035.0,0.979492,0.045349,-0.170166,-0.097351,-145.0,462.0,-170.0,6655.0,564.0,-1418.0,3996.0,-435.0,-9101.0,6726.0,-741.0,-7291.0,0.324523,0.12197,0.937869,-854.0,520.0,-2994.0,-3300.0,10587.0,-3883.0
2879.0,2834.0,2901.0,3139.0,3038.0,0.990356,0.014648,-0.070618,-0.118286,-185.0,295.0,-22.0,155.0,-876.0,-162.0,-962.0,-1250.0,-8268.0,-30.0,-885.0,-8370.0,0.136408,0.045721,0.989596,-20036.0,-11208.0,6166.0,-4215.0,6775.0,-490.0
2887.0,2831.0,2898.0,3123.0,3047.0,0.992188,-0.001892,-0.037231,-0.118896,-119.0,190.0,3.0,-2555.0,-3193.0,1553.0,-3163.0,-3234.0,-6615.0,-3342.0,-2480.0,-6847.0,0.074331,0.005099,0.997183,-19736.0,-21122.0,14390.0,-2708.0,4367.0,69.0
2889.0,2831.0,2908.0,3139.0,3043.0,0.992798,-0.003845,-0.002075,-0.119263,57.0,62.0,1.0,-4972.0,-3943.0,6005.0,-5013.0,-3884.0,-2185.0,-5782.0,-2603.0,-2182.0,0.005038,-0.00714,0.999852,-12914.0,-562.0,26464.0,1312.0,1439.0,23.0
2883.0,2819.0,2886.0,3143.0,3051.0,0.992859,0.011963,0.007812,-0.118164,27.0,-3.0,1.0,-5901.0,-214.0,9261.0,-5750.0,-393.0,1072.0,-5667.0,938.0,1168.0,-0.018341,0.021909,0.999527,-14836.0,9890.0,26410.0,637.0,-60.0,41.0
2887.0,2827.0,2903.0,3139.0,3059.0,0.992737,0.014465,0.007141,-0.118958,-3.0,-43.0,-9.0,-6447.0,856.0,10271.0,-6302.0,634.0,2083.0,-5950.0,2039.0,2209.0,-0.01762,0.027022,0.999417,-16232.0,6638.0,26010.0,-68.0,-974.0,-200.0
2895.0,2831.0,2891.0,3139.0,3071.0,0.992432,0.008545,-0.012146,-0.121765,-13.0,-153.0,-5.0,-6914.0,249.0,11038.0,-7094.0,85.0,2849.0,-6935.0,1758.0,2693.0,0.022027,0.019918,0.999527,-13608.0,-4930.0,23332.0,-295.0,-3500.0,-99.0
2887.0,2835.0,2906.0,3139.0,3046.0,0.991211,0.006348,-0.06012,-0.117432,65.0,-260.0,30.0,-5942.0,-1962.0,10568.0,-6906.0,-2180.0,2436.0,-7465.0,-502.0,1547.0,0.117692,0.026704,0.992635,-6400.0,-9044.0,19224.0,1491.0,-5953.0,705.0
2883.0,2827.0,2895.0,3155.0,3039.0,0.989136,0.012146,-0.093384,-0.112427,108.0,-285.0,36.0,-4508.0,-2170.0,10325.0,-5999.0,-2538.0,2279.0,-6728.0,-1131.0,1032.0,0.182007,0.045026,0.982161,868.0,-4290.0,19462.0,2477.0,-6507.0,844.0
2889.0,2831.0,2895.0,3159.0,3058.0,0.980957,0.034851,-0.162231,-0.100525,135.0,-259.0,40.0,-926.0,-724.0,10009.0,-3475.0,-1551.0,2268.0,-4247.0,-872.0,904.0,0.311277,0.100991,0.944848,7600.0,4338.0,18132.0,3105.0,-5919.0,918.0
2887.0,2802.0,2910.0,3152.0,3039.0,0.968628,0.056091,-0.225952,-0.086487,103.0,-259.0,54.0,706.0,950.0,8477.0,-2800.0,-260.0,1173.0,-3033.0,204.0,-191.0,0.428025,0.147747,0.891519,3816.0,6406.0,11198.0,2372.0,-5925.0,1242.0
2891.0,2843.0,2914.0,3163.0,3071.0,0.960388,0.063171,-0.259399,-0.079529,83.0,-282.0,56.0,1054.0,1566.0,7535.0,-2945.0,234.0,511.0,-2742.0,734.0,-961.0,0.4882,0.162598,0.857392,4284.0,6448.0,9564.0,1909.0,-6447.0,1290.0
2896.0,2839.0,2895.0,3151.0,3055.0,0.937866,0.069458,-0.333252,-0.066589,51.0,-322.0,63.0,2419.0,1963.0,5690.0,-2625.0,532.0,-602.0,-1594.0,1023.0,-1986.0,0.615841,0.174667,0.768146,11368.0,4406.0,6664.0,1184.0,-7355.0,1453.0
2877.0,2819.0,2896.0,3152.0,3031.0,0.923828,0.069885,-0.371399,-0.060364,43.0,-313.0,60.0,4086.0,2066.0,5301.0,-1466.0,640.0,-550.0,-630.0,914.0,-1275.0,0.67778,0.173962,0.714281,19250.0,4744.0,8940.0,990.0,-7160.0,1386.0
2879.0,2827.0,2893.0,3111.0,3027.0,0.896973,0.070557,-0.433655,-0.049255,39.0,-215.0,44.0,7929.0,1955.0,4571.0,1612.0,568.0,-458.0,1372.0,356.0,1057.0,0.771002,0.169294,0.613951,26410.0,3222.0,6840.0,896.0,-4908.0,1021.0
2896.0,2821.0,2887.0,3120.0,3027.0,0.878418,0.072998,-0.470581,-0.039856,31.0,-111.0,28.0,9557.0,1971.0,3348.0,2832.0,613.0,-1128.0,2508.0,313.0,1810.0,0.820915,0.165757,0.546431,20708.0,4392.0,2586.0,727.0,-2535.0,646.0
2879.0,2827.0,2899.0,3151.0,3051.0,0.872192,0.074219,-0.482056,-0.036865,21.0,-80.0,20.0,9523.0,1978.0,2757.0,2679.0,626.0,-1537.0,2722.0,397.0,1535.0,0.835418,0.165008,0.524193,18336.0,3772.0,2110.0,484.0,-1824.0,469.0
2883.0,2831.0,2911.0,3152.0,3047.0,0.863831,0.073853,-0.497314,-0.032227,5.0,-46.0,22.0,8665.0,1603.0,1758.0,1665.0,295.0,-2292.0,2812.0,295.0,336.0,0.854431,0.159646,0.494466,14266.0,1762.0,1012.0,127.0,-1044.0,522.0
2879.0,2813.0,2882.0,3143.0,3031.0,0.860779,0.072449,-0.502869,-0.029419,2.0,-37.0,27.0,8203.0,1411.0,1460.0,1145.0,146.0,-2502.0,2737.0,240.0,-201.0,0.861455,0.154312,0.48368,13746.0,1822.0,1334.0,67.0,-837.0,635.0
2895.0,2833.0,2877.0,3151.0,3059.0,0.856628,0.069336,-0.510681,-0.024231,-1.0,-18.0,22.0,7598.0,1163.0,1136.0,458.0,-12.0,-2704.0,2593.0,190.0,-870.0,0.871568,0.143539,0.468797,14028.0,1444.0,1480.0,-17.0,-391.0,513.0
2879.0,2831.0,2877.0,3151.0,3031.0,0.85553,0.067932,-0.512756,-0.0224,-2.0,-6.0,16.0,7517.0,1009.0,1045.0,354.0,-131.0,-2763.0,2604.0,89.0,-993.0,0.874313,0.139207,0.464899,14706.0,1064.0,1574.0,-43.0,-120.0,381.0
2893.0,2826.0,2883.0,3131.0,3055.0,0.855652,0.065674,-0.512939,-0.020142,-6.0,21.0,6.0,7511.0,788.0,964.0,341.0,-301.0,-2846.0,2676.0,-71.0,-1065.0,0.87515,0.133051,0.465126,14936.0,1104.0,1826.0,-120.0,482.0,157.0
2883.0,2815.0,2891.0,3163.0,3038.0,0.856995,0.064636,-0.510864,-0.019836,-9.0,32.0,2.0,7450.0,707.0,991.0,297.0,-366.0,-2856.0,2661.0,-133.0,-1130.0,0.873052,0.131053,0.469673,14440.0,920.0,2200.0,-189.0,751.0,58.0
2878.0,2832.0,2927.0,3147.0,3039.0,0.861389,0.062317,-0.503662,-0.020203,-12.0,47.0,-2.0,7085.0,438.0,1124.0,-2.0,-608.0,-2847.0,2493.0,-354.0,-1459.0,0.86518,0.127709,0.48484,12804.0,-180.0,2756.0,-256.0,1084.0,-23.0
2879.0,2827.0,2909.0,3183.0,3046.0,0.864075,0.061035,-0.499268,-0.020142,-10.0,48.0,0.0,6776.0,262.0,1215.0,-271.0,-766.0,-2832.0,2334.0,-491.0,-1728.0,0.86035,0.12559,0.494037,11522.0,-550.0,2940.0,-212.0,1114.0,11.0
2887.0,2835.0,2897.0,3158.0,3011.0,0.868713,0.059204,-0.491333,-0.019226,-3.0,37.0,2.0,6141.0,122.0,1581.0,-833.0,-875.0,-2597.0,1814.0,-573.0,-2140.0,0.851379,0.121756,0.510119,10816.0,294.0,4558.0,-65.0,868.0,57.0
2897.0,2827.0,2885.0,3127.0,3046.0,0.870605,0.058899,-0.488098,-0.018799,-1.0,32.0,0.0,6050.0,211.0,1872.0,-894.0,-779.0,-2359.0,1561.0,-493.0,-2070.0,0.847667,0.120907,0.516598,11874.0,1116.0,5640.0,-20.0,740.0,20.0
2881.0,2815.0,2902.0,3151.0,3053.0,0.874084,0.059082,-0.48175,-0.019043,-3.0,34.0,-5.0,6363.0,594.0,2599.0,-517.0,-402.0,-1733.0,1196.0,-205.0,-1399.0,0.839931,0.121633,0.528812,14174.0,2486.0,7468.0,-65.0,787.0,-111.0
2895.0,2835.0,2896.0,3159.0,3037.0,0.876282,0.059082,-0.477722,-0.019775,-7.0,40.0,-7.0,6575.0,781.0,2954.0,-264.0,-222.0,-1441.0,1071.0,-74.0,-1020.0,0.834902,0.122439,0.536552,14316.0,2642.0,7966.0,-138.0,929.0,-155.0
2879.0,2835.0,2905.0,3153.0,3055.0,0.881592,0.058533,-0.467896,-0.022034,-11.0,49.0,-9.0,6691.0,973.0,3532.0,-46.0,-41.0,-1017.0,816.0,47.0,-607.0,0.822406,0.123823,0.555337,13202.0,2060.0,8578.0,-242.0,1126.0,-203.0
2886.0,2819.0,2887.0,3143.0,3035.0,0.884399,0.058044,-0.462524,-0.023132,-10.0,48.0,-8.0,6551.0,907.0,3751.0,-128.0,-109.0,-880.0,650.0,-24.0,-615.0,0.815427,0.124067,0.565399,11996.0,1300.0,8726.0,-209.0,1114.0,-170.0
2881.0,2819.0,2881.0,3167.0,3047.0,0.889038,0.057678,-0.453491,-0.023682,0.0,31.0,-2.0,5937.0,774.0,4129.0,-646.0,-242.0,-638.0,139.0,-127.0,-920.0,0.80361,0.124035,0.581968,9958.0,1376.0,9522.0,4.0,731.0,-44.0
2892.0,2839.0,2911.0,3135.0,3059.0,0.890503,0.058167,-0.450623,-0.023438,4.0,19.0,-2.0,5698.0,801.0,4345.0,-854.0,-220.0,-464.0,-130.0,-99.0,-982.0,0.799835,0.124718,0.587101,10216.0,1902.0,10002.0,112.0,452.0,-32.0
2897.0,2831.0,2890.0,3151.0,3051.0,0.891785,0.06012,-0.447815,-0.023071,6.0,8.0,-3.0,6060.0,1108.0,4867.0,-460.0,60.0,20.0,-291.0,101.0,-346.0,0.795935,0.127891,0.59166,14218.0,3384.0,11218.0,159.0,187.0,-50.0
2895.0,2839.0,2901.0,3135.0,3051.0,0.892395,0.061096,-0.446533,-0.023132,4.0,12.0,-4.0,6408.0,1295.0,5028.0,-97.0,232.0,163.0,-191.0,224.0,49.0,0.794141,0.129703,0.593779,14826.0,3646.0,10862.0,101.0,276.0,-72.0
2897.0,2839.0,2879.0,3153.0,3019.0,0.894104,0.062195,-0.442871,-0.024048,-2.0,18.0,-6.0,6716.0,1386.0,5092.0,252.0,300.0,176.0,9.0,256.0,344.0,0.788954,0.132517,0.599997,13976.0,2490.0,10188.0,-41.0,421.0,-125.0
2891.0,2815.0,2887.0,3157.0,3037.0,0.895081,0.062378,-0.440796,-0.024658,-2.0,18.0,-7.0,6663.0,1287.0,4985.0,223.0,194.0,40.0,102.0,166.0,225.0,0.786019,0.133405,0.603585,12702.0,1874.0,9002.0,-43.0,430.0,-139.0
2895.0,2821.0,2895.0,3123.0,3059.0,0.896423,0.063049,-0.437927,-0.025696,2.0,9.0,-7.0,6408.0,1030.0,4852.0,2.0,-80.0,-132.0,106.0,-67.0,-89.0,0.781896,0.135544,0.60848,11816.0,1386.0,9402.0,65.0,227.0,-141.0
2875.0,2815.0,2887.0,3151.0,3035.0,0.896667,0.063782,-0.437317,-0.025879,5.0,3.0,-5.0,6268.0,966.0,4838.0,-129.0,-156.0,-153.0,42.0,-127.0,-215.0,0.780954,0.137017,0.609368,11828.0,1662.0,9650.0,135.0,81.0,-101.0
2891.0,2823.0,2898.0,3151.0,3015.0,0.896301,0.065674,-0.437805,-0.025635,8.0,-5.0,-2.0,6297.0,1042.0,4892.0,-104.0,-106.0,-88.0,6.0,-85.0,-149.0,0.781444,0.140173,0.608027,13268.0,2456.0,9962.0,188.0,-108.0,-44.0
2882.0,2830.0,2915.0,3123.0,3031.0,0.895996,0.06665,-0.438293,-0.025452,8.0,-4.0,-2.0,6425.0,1113.0,4867.0,18.0,-48.0,-104.0,93.0,-39.0,-55.0,0.782026,0.141748,0.606913,13596.0,2624.0,9434.0,184.0,-85.0,-41.0
2877.0,2835.0,2908.0,3159.0,3053.0,0.895447,0.068604,-0.439087,-0.025391,5.0,0.0,-4.0,6668.0,1243.0,4719.0,254.0,53.0,-236.0,341.0,49.0,63.0,0.782874,0.145159,0.604966,13918.0,2864.0,8932.0,134.0,17.0,-90.0
2891.0,2823.0,2893.0,3135.0,3043.0,0.895386,0.069519,-0.439026,-0.025696,3.0,3.0,-6.0,6742.0,1312.0,4646.0,330.0,107.0,-308.0,443.0,101.0,87.0,0.782622,0.147055,0.604799,13920.0,3014.0,8962.0,89.0,88.0,-131.0
2883.0,2822.0,2886.0,3125.0,3055.0,0.895813,0.070862,-0.437805,-0.026978,0.0,8.0,-7.0,6696.0,1381.0,4568.0,301.0,147.0,-400.0,498.0,153.0,14.0,0.78056,0.15058,0.606514,12872.0,2884.0,8992.0,10.0,205.0,-157.0
2887.0,2830.0,2911.0,3153.0,3035.0,0.896179,0.07135,-0.436951,-0.027649,-1.0,8.0,-7.0,6556.0,1388.0,4560.0,172.0,142.0,-419.0,434.0,164.0,-99.0,0.779227,0.152047,0.607885,12230.0,2772.0,9158.0,-7.0,193.0,-145.0
2889.0,2839.0,2877.0,3123.0,3037.0,0.896729,0.071899,-0.43573,-0.028503,0.0,2.0,-2.0,6217.0,1381.0,4663.0,-151.0,121.0,-333.0,166.0,171.0,-301.0,0.777364,0.153788,0.609904,11384.0,2808.0,9644.0,2.0,54.0,-39.0
2879.0,2829.0,2897.0,3127.0,3051.0,0.896729,0.07196,-0.43573,-0.028564,0.0,-3.0,0.0,6095.0,1408.0,4738.0,-273.0,146.0,-258.0,32.0,202.0,-347.0,0.777352,0.153951,0.609899,11608.0,3004.0,9962.0,3.0,-55.0,18.0
2885.0,2823.0,2875.0,3143.0,3051.0,0.896301,0.07196,-0.436707,-0.028259,0.0,-6.0,2.0,6146.0,1456.0,4875.0,-233.0,197.0,-107.0,-61.0,232.0,-216.0,0.778774,0.153679,0.608264,12800.0,2978.0,10028.0,1.0,-125.0,56.0
2887.0,2817.0,2882.0,3159.0,3051.0,0.896057,0.07196,-0.437195,-0.028137,0.0,-4.0,1.0,6268.0,1469.0,4896.0,-117.0,211.0,-79.0,-12.0,229.0,-106.0,0.779454,0.153564,0.607392,13308.0,3004.0,9866.0,1.0,-81.0,39.0
2885.0,2821.0,2907.0,3159.0,3056.0,0.896057,0.072083,-0.437134,-0.028198,-1.0,3.0,-2.0,6470.0,1427.0,4855.0,85.0,166.0,-121.0,145.0,167.0,18.0,0.779328,0.153833,0.607432,13256.0,2576.0,9386.0,-10.0,86.0,-27.0
2879.0,2815.0,2879.0,3151.0,3031.0,0.89624,0.072144,-0.436707,-0.028442,-1.0,5.0,-3.0,6437.0,1388.0,4763.0,58.0,125.0,-218.0,205.0,139.0,-68.0,0.778684,0.154158,0.608138,12610.0,2492.0,8988.0,-12.0,126.0,-54.0
2891.0,2815.0,2887.0,3135.0,3047.0,0.896606,0.072449,-0.435791,-0.029053,-1.0,3.0,-4.0,6280.0,1267.0,4624.0,-87.0,-4.0,-369.0,236.0,44.0,-293.0,0.777256,0.155238,0.609585,11892.0,2132.0,8820.0,-5.0,90.0,-70.0
2897.0,2833.0,2906.0,3158.0,3047.0,0.896667,0.072571,-0.43573,-0.029236,0.0,0.0,-2.0,6165.0,1203.0,4575.0,-201.0,-71.0,-419.0,205.0,-3.0,-422.0,0.777166,0.155622,0.60974,11660.0,2034.0,8928.0,10.0,13.0,-44.0
2896.0,2821.0,2896.0,3139.0,3051.0,0.89624,0.072815,-0.436523,-0.029236,2.0,-6.0,-1.0,6081.0,1149.0,4582.0,-294.0,-129.0,-400.0,134.0,-51.0,-492.0,0.778202,0.156044,0.608247,12290.0,2196.0,9290.0,49.0,-122.0,-7.0
2874.0,2827.0,2873.0,3151.0,3039.0,0.895874,0.073059,-0.437195,-0.029114,3.0,-6.0,0.0,6191.0,1152.0,4602.0,-191.0,-128.0,-370.0,175.0,-65.0,-393.0,0.779089,0.15636,0.606961,13210.0,2368.0,9362.0,75.0,-120.0,8.0
2895.0,2841.0,2902.0,3155.0,3043.0,0.895569,0.073914,-0.437805,-0.028564,4.0,2.0,-1.0,6434.0,1231.0,4623.0,44.0,-58.0,-339.0,295.0,-25.0,-180.0,0.779947,0.157401,0.605723,13256.0,2682.0,9180.0,96.0,53.0,-4.0
2885.0,2821.0,2902.0,3147.0,3031.0,0.895691,0.074524,-0.4375,-0.028442,4.0,5.0,-2.0,6448.0,1254.0,4588.0,62.0,-43.0,-377.0,335.0,-8.0,-186.0,0.77949,0.158388,0.606111,12992.0,2560.0,9036.0,92.0,119.0,-36.0
2887.0,2835.0,2903.0,3165.0,3043.0,0.896179,0.075806,-0.436218,-0.028381,4.0,7.0,-3.0,6372.0,1265.0,4521.0,2.0,-50.0,-458.0,362.0,1.0,-284.0,0.777557,0.160632,0.60791,12304.0,2570.0,8704.0,102.0,180.0,-59.0
2879.0,2832.0,2903.0,3135.0,3037.0,0.896484,0.076416,-0.435547,-0.028381,4.0,7.0,-3.0,6302.0,1302.0,4501.0,-59.0,-22.0,-487.0,346.0,39.0,-345.0,0.776584,0.161734,0.608949,12104.0,2894.0,8842.0,93.0,163.0,-46.0
2875.0,2817.0,2883.0,3135.0,3051.0,0.89679,0.077209,-0.434692,-0.028381,0.0,3.0,-1.0,6179.0,1413.0,4504.0,-172.0,76.0,-494.0,279.0,151.0,-422.0,0.775273,0.163156,0.610118,11972.0,3130.0,9058.0,1.0,74.0,-5.0
2883.0,2851.0,2896.0,3159.0,3061.0,0.896851,0.077087,-0.43457,-0.028503,-3.0,0.0,0.0,6154.0,1439.0,4523.0,-195.0,103.0,-477.0,251.0,178.0,-425.0,0.775095,0.163045,0.61036,12272.0,3008.0,9212.0,-55.0,17.0,15.0
2895.0,2831.0,2923.0,3171.0,3035.0,0.896851,0.076294,-0.434692,-0.028748,-5.0,0.0,0.0,6246.0,1419.0,4604.0,-105.0,93.0,-396.0,243.0,148.0,-308.0,0.775322,0.161841,0.610389,12752.0,2702.0,9412.0,-98.0,18.0,22.0
2897.0,2832.0,2925.0,3135.0,3027.0,0.896912,0.075806,-0.434631,-0.02887,-5.0,2.0,0.0,6299.0,1392.0,4641.0,-52.0,72.0,-361.0,249.0,117.0,-249.0,0.775275,0.161077,0.610633,12900.0,2608.0,9494.0,-92.0,51.0,6.0
2903.0,2835.0,2902.0,3152.0,3027.0,0.8974,0.075256,-0.433716,-0.029419,-4.0,6.0,-3.0,6359.0,1366.0,4711.0,18.0,50.0,-305.0,249.0,80.0,-164.0,0.774005,0.160589,0.612419,12732.0,2674.0,9586.0,-73.0,150.0,-47.0
2887.0,2832.0,2923.0,3142.0,3057.0,0.897766,0.075073,-0.432922,-0.029785,-3.0,7.0,-3.0,6324.0,1344.0,4737.0,-7.0,28.0,-291.0,222.0,60.0,-179.0,0.772854,0.160586,0.613813,12380.0,2540.0,9602.0,-68.0,174.0,-56.0
2884.0,2819.0,2895.0,3134.0,3063.0,0.89856,0.074829,-0.431396,-0.030273,-2.0,6.0,-2.0,6193.0,1283.0,4767.0,-120.0,-32.0,-284.0,146.0,13.0,-272.0,0.77074,0.160597,0.616623,11894.0,2374.0,9522.0,-35.0,143.0,-34.0
2895.0,2829.0,2927.0,3143.0,3043.0,0.898804,0.074768,-0.430908,-0.030334,-1.0,3.0,-1.0,6106.0,1274.0,4770.0,-202.0,-41.0,-288.0,98.0,14.0,-339.0,0.770068,0.160546,0.617496,11708.0,2560.0,9578.0,-16.0,85.0,-16.0
2895.0,2822.0,2879.0,3143.0,3043.0,0.898926,0.074707,-0.430603,-0.030457,-2.0,0.0,0.0,6087.0,1339.0,4813.0,-217.0,23.0,-249.0,57.0,75.0,-317.0,0.76961,0.160542,0.617995,12302.0,2912.0,9710.0,-26.0,5.0,6.0
2896.0,2835.0,2896.0,3134.0,3056.0,0.898926,0.074585,-0.430664,-0.030579,-3.0,-1.0,0.0,6109.0,1367.0,4826.0,-196.0,52.0,-236.0,60.0,100.0,-288.0,0.769709,0.160431,0.617968,12366.0,2872.0,9706.0,-46.0,-5.0,12.0
2879.0,2831.0,2903.0,3159.0,3055.0,0.898865,0.074097,-0.430786,-0.030823,-3.0,0.0,-1.0,6209.0,1329.0,4805.0,-97.0,20.0,-256.0,138.0,58.0,-229.0,0.769869,0.159762,0.617841,12848.0,2426.0,9548.0,-52.0,7.0,-2.0
2880.0,2829.0,2891.0,3117.0,3047.0,0.898865,0.073914,-0.430725,-0.030884,-2.0,1.0,-1.0,6268.0,1288.0,4798.0,-37.0,-18.0,-264.0,182.0,14.0,-194.0,0.769762,0.159481,0.617924,12844.0,2336.0,9510.0,-23.0,45.0,-17.0
2881.0,2819.0,2895.0,3135.0,3055.0,0.899109,0.074097,-0.430298,-0.031006,0.0,3.0,-2.0,6258.0,1267.0,4759.0,-43.0,-43.0,-309.0,213.0,-4.0,-231.0,0.769174,0.159925,0.618712,12324.0,2676.0,9432.0,22.0,77.0,-34.0
2896.0,2845.0,2885.0,3135.0,3047.0,0.899231,0.074341,-0.429993,-0.031128,0.0,2.0,-2.0,6225.0,1311.0,4765.0,-72.0,-3.0,-307.0,193.0,38.0,-245.0,0.768697,0.160469,0.619165,12230.0,2930.0,9574.0,14.0,64.0,-29.0
2879.0,2832.0,2898.0,3135.0,3056.0,0.899292,0.074463,-0.42981,-0.031433,-2.0,0.0,-1.0,6175.0,1346.0,4758.0,-119.0,27.0,-316.0,170.0,74.0,-282.0,0.768367,0.160948,0.619433,12260.0,2654.0,9446.0,-26.0,11.0,-8.0
2893.0,2827.0,2881.0,3143.0,3055.0,0.899231,0.074341,-0.429871,-0.031494,-1.0,-1.0,0.0,6171.0,1333.0,4770.0,-123.0,15.0,-303.0,158.0,61.0,-279.0,0.768423,0.160776,0.619293,12312.0,2586.0,9614.0,-20.0,-8.0,3.0
2883.0,2829.0,2895.0,3127.0,3034.0,0.899109,0.074341,-0.430237,-0.031494,-1.0,-3.0,0.0,6142.0,1320.0,4787.0,-157.0,2.0,-281.0,120.0,50.0,-294.0,0.768977,0.160781,0.618758,12286.0,2570.0,9624.0,0.0,-50.0,1.0
2877.0,2817.0,2886.0,3163.0,3061.0,0.898926,0.074341,-0.430542,-0.031494,0.0,-3.0,0.0,6170.0,1306.0,4791.0,-132.0,-11.0,-273.0,129.0,34.0,-272.0,0.769368,0.160773,0.618167,12568.0,2550.0,9598.0,13.0,-59.0,4.0
2896.0,2835.0,2894.0,3165.0,3037.0,0.898621,0.074646,-0.431091,-0.031494,0.0,-2.0,-1.0,6234.0,1350.0,4789.0,-74.0,28.0,-266.0,160.0,65.0,-216.0,0.770073,0.161311,0.617099,12606.0,2846.0,9542.0,20.0,-25.0,-18.0
2887.0,2823.0,2898.0,3159.0,3031.0,0.89856,0.074829,-0.431274,-0.031616,0.0,-1.0,-2.0,6243.0,1348.0,4771.0,-67.0,22.0,-281.0,177.0,59.0,-221.0,0.77032,0.161747,0.616812,12516.0,2624.0,9392.0,14.0,-7.0,-25.0
2887.0,2831.0,2878.0,3150.0,3035.0,0.898438,0.075256,-0.431458,-0.031555,3.0,1.0,-1.0,6269.0,1238.0,4697.0,-43.0,-92.0,-352.0,248.0,-47.0,-265.0,0.770526,0.162456,0.616367,12588.0,2038.0,9090.0,73.0,25.0,-19.0
2895.0,2835.0,2911.0,3149.0,3063.0,0.898376,0.075745,-0.431458,-0.03125,6.0,1.0,-1.0,6225.0,1136.0,4630.0,-86.0,-199.0,-417.0,273.0,-140.0,-355.0,0.770489,0.16306,0.616164,12104.0,1602.0,8856.0,145.0,35.0,-9.0
2891.0,2832.0,2914.0,3153.0,3039.0,0.898071,0.077881,-0.431824,-0.029419,15.0,-2.0,2.0,6131.0,969.0,4580.0,-185.0,-385.0,-456.0,245.0,-305.0,-486.0,0.771035,0.165293,0.61486,12086.0,1690.0,9218.0,362.0,-23.0,52.0
2901.0,2839.0,2899.0,3135.0,3039.0,0.897827,0.079651,-0.43219,-0.028076,19.0,-3.0,3.0,6089.0,1004.0,4592.0,-231.0,-366.0,-435.0,201.0,-281.0,-506.0,0.771591,0.167294,0.613749,11888.0,2338.0,9256.0,443.0,-46.0,78.0
2909.0,2845.0,2895.0,3147.0,3051.0,0.897095,0.083374,-0.433167,-0.025391,15.0,-5.0,4.0,6067.0,1395.0,4703.0,-264.0,-10.0,-300.0,70.0,59.0,-389.0,0.772949,0.171586,0.610839,12036.0,4464.0,9536.0,363.0,-97.0,94.0
2881.0,2827.0,2867.0,3151.0,3053.0,0.896667,0.084656,-0.433777,-0.024658,8.0,-6.0,4.0,6108.0,1637.0,4760.0,-230.0,218.0,-231.0,31.0,271.0,-280.0,0.773732,0.173208,0.609292,12548.0,4630.0,9826.0,188.0,-130.0,100.0
2891.0,2830.0,2911.0,3157.0,3061.0,0.896057,0.084595,-0.435181,-0.024048,-5.0,-5.0,4.0,6241.0,1737.0,4744.0,-114.0,323.0,-228.0,98.0,361.0,-171.0,0.775825,0.172534,0.606958,12866.0,3140.0,9268.0,-97.0,-108.0,112.0
2890.0,2834.0,2898.0,3151.0,3054.0,0.905151,0.041931,-0.422546,-0.019836,-1.0,-1.0,-1.0,6013.0,734.0,5035.0,-239.0,-25.0,-202.0,1.0,4.0,-313.0,0.763273,0.092672,0.639389,11934.0,1598.0,10148.0,-2.0,-12.0,-1.0
2893.0,2837.0,2901.0,3151.0,3055.0,0.90509,0.041931,-0.422668,-0.019897,-1.0,-1.0,-1.0,6049.0,745.0,5068.0,-205.0,-14.0,-168.0,-2.0,10.0,-265.0,0.763438,0.092723,0.639178,12266.0,1456.0,10224.0,-5.0,-8.0,-6.0
2887.0,2826.0,2887.0,3143.0,3039.0,0.90509,0.041992,-0.422668,-0.019958,0.0,0.0,-1.0,6066.0,748.0,5074.0,-188.0,-12.0,-162.0,3.0,11.0,-248.0,0.76343,0.092885,0.639175,12260.0,1524.0,10228.0,1.0,2.0,-13.0
2889.0,2807.0,2893.0,3143.0,3039.0,0.90509,0.042114,-0.422546,-0.020142,0.0,0.0,-1.0,6071.0,767.0,5093.0,-181.0,3.0,-143.0,-6.0,24.0,-229.0,0.763189,0.093256,0.639275,12042.0,1644.0,10258.0,4.0,12.0,-21.0
2887.0,2831.0,2895.0,3151.0,3055.0,0.905151,0.042175,-0.422485,-0.020264,-1.0,-1.0,-1.0,6051.0,780.0,5112.0,-200.0,14.0,-126.0,-31.0,35.0,-231.0,0.763117,0.093472,0.639437,11972.0,1624.0,10334.0,-5.0,-1.0,-18.0
2891.0,2833.0,2897.0,3152.0,3053.0,0.90509,0.042175,-0.422607,-0.020386,-1.0,-2.0,0.0,6039.0,789.0,5132.0,-213.0,22.0,-104.0,-56.0,43.0,-226.0,0.763276,0.093575,0.639228,12116.0,1618.0,10356.0,-8.0,-30.0,3.0
2887.0,2827.0,2894.0,3143.0,3043.0,0.905029,0.042175,-0.422729,-0.020386,-1.0,-2.0,0.0,6046.0,802.0,5146.0,-208.0,35.0,-88.0,-65.0,55.0,-211.0,0.763446,0.093575,0.639015,12114.0,1688.0,10318.0,-4.0,-29.0,11.0
2887.0,2823.0,2894.0,3143.0,3043.0,0.904907,0.042053,-0.422974,-0.020264,-1.0,-2.0,1.0,6031.0,809.0,5171.0,-226.0,45.0,-60.0,-98.0,64.0,-206.0,0.763799,0.093251,0.638593,11994.0,1558.0,10386.0,-15.0,-39.0,25.0
2889.0,2832.0,2897.0,3151.0,3047.0,0.904846,0.04187,-0.423157,-0.020203,-1.0,-3.0,1.0,6041.0,798.0,5186.0,-218.0,37.0,-43.0,-106.0,55.0,-190.0,0.764092,0.09287,0.63834,12208.0,1516.0,10516.0,-21.0,-49.0,29.0
2891.0,2833.0,2901.0,3154.0,3055.0,0.904785,0.041565,-0.423401,-0.02002,-1.0,-2.0,1.0,6082.0,737.0,5202.0,-180.0,-18.0,-24.0,-96.0,-3.0,-154.0,0.764509,0.092167,0.638041,12238.0,1214.0,10366.0,-8.0,-25.0,26.0
2887.0,2826.0,2891.0,3147.0,3042.0,0.904724,0.041504,-0.423462,-0.019897,0.0,-2.0,1.0,6083.0,710.0,5201.0,-180.0,-43.0,-24.0,-96.0,-28.0,-156.0,0.764581,0.091951,0.637879,12152.0,1298.0,10376.0,11.0,-25.0,25.0
2886.0,2829.0,2894.0,3147.0,3045.0,0.904602,0.041504,-0.423706,-0.019531,0.0,-2.0,1.0,6105.0,745.0,5199.0,-161.0,-5.0,-22.0,-86.0,7.0,-137.0,0.76495,0.09164,0.637437,12338.0,1674.0,10458.0,17.0,-32.0,31.0
2891.0,2832.0,2901.0,3147.0,3047.0,0.904541,0.041504,-0.423889,-0.019348,-1.0,-2.0,2.0,6100.0,772.0,5192.0,-168.0,22.0,-27.0,-86.0,35.0,-143.0,0.765244,0.091487,0.637164,12126.0,1684.0,10370.0,-1.0,-35.0,46.0
2891.0,2811.0,2897.0,3149.0,3053.0,0.904358,0.041077,-0.424316,-0.01886,-1.0,-3.0,3.0,6144.0,769.0,5214.0,-130.0,29.0,0.0,-83.0,37.0,-96.0,0.765918,0.090301,0.636487,12578.0,1422.0,10460.0,-22.0,-54.0,75.0
2887.0,2821.0,2887.0,3143.0,3045.0,0.904297,0.040833,-0.4245,-0.018494,-1.0,-2.0,3.0,6179.0,741.0,5230.0,-98.0,7.0,18.0,-76.0,12.0,-63.0,0.766237,0.089551,0.636228,12514.0,1284.0,10572.0,-11.0,-39.0,79.0
2887.0,2815.0,2887.0,3143.0,3039.0,0.904175,0.040283,-0.424927,-0.017639,-1.0,-3.0,4.0,6201.0,714.0,5283.0,-82.0,-5.0,75.0,-110.0,-3.0,-15.0,0.766995,0.087837,0.635658,12464.0,1544.0,10778.0,-1.0,-54.0,96.0
2887.0,2835.0,2899.0,3152.0,3055.0,0.904053,0.040039,-0.425171,-0.017212,-2.0,-3.0,4.0,6218.0,748.0,5323.0,-68.0,35.0,119.0,-135.0,32.0,26.0,0.767376,0.087031,0.635234,12538.0,1712.0,10872.0,-25.0,-64.0,101.0
2896.0,2832.0,2896.0,3152.0,3053.0,0.903748,0.038818,-0.425903,-0.016724,-5.0,-5.0,4.0,6223.0,756.0,5362.0,-72.0,64.0,167.0,-174.0,58.0,55.0,0.76852,0.084409,0.634139,12480.0,1362.0,10814.0,-112.0,-111.0,100.0
2886.0,2821.0,2891.0,3143.0,3043.0,0.903564,0.038025,-0.426453,-0.016541,-6.0,-6.0,4.0,6242.0,707.0,5366.0,-60.0,28.0,177.0,-174.0,21.0,68.0,0.769397,0.082823,0.633395,12626.0,1098.0,10776.0,-125.0,-133.0,95.0
2923.0,2826.0,2891.0,3143.0,3039.0,0.903076,0.036438,-0.427673,-0.016113,-4.0,-6.0,3.0,6292.0,605.0,5349.0,-26.0,-47.0,175.0,-151.0,-54.0,86.0,0.771269,0.079595,0.631574,12660.0,972.0,10594.0,-84.0,-132.0,86.0
2891.0,2833.0,2897.0,3151.0,3047.0,0.902771,0.035828,-0.428284,-0.015869,-3.0,-6.0,3.0,6282.0,585.0,5328.0,-43.0,-56.0,162.0,-152.0,-61.0,64.0,0.772147,0.078281,0.630537,12454.0,1090.0,10546.0,-60.0,-137.0,84.0
2893.0,2833.0,2899.0,3153.0,3059.0,0.9021,0.034912,-0.42981,-0.01532,-3.0,-9.0,4.0,6190.0,637.0,5295.0,-153.0,13.0,149.0,-212.0,14.0,-23.0,0.774392,0.076158,0.628063,12180.0,1520.0,10516.0,-53.0,-205.0,94.0
2870.0,2827.0,2890.0,3149.0,3035.0,0.901672,0.034424,-0.430786,-0.015076,-3.0,-11.0,4.0,6184.0,671.0,5277.0,-171.0,56.0,144.0,-219.0,58.0,-38.0,0.775818,0.075067,0.626479,12388.0,1508.0,10424.0,-65.0,-234.0,96.0
2886.0,2823.0,2864.0,3147.0,3039.0,0.900635,0.033386,-0.432983,-0.014648,-3.0,-11.0,3.0,6177.0,669.0,5171.0,-204.0,72.0,69.0,-181.0,79.0,-110.0,0.778942,0.072823,0.622768,12248.0,1234.0,9910.0,-64.0,-240.0,91.0
2895.0,2832.0,2903.0,3147.0,3051.0,0.900085,0.032959,-0.434204,-0.014343,-3.0,-11.0,4.0,6157.0,654.0,5104.0,-238.0,65.0,18.0,-162.0,76.0,-169.0,0.780696,0.071788,0.62074,12210.0,1246.0,9796.0,-49.0,-250.0,92.0
2889.0,2831.0,2898.0,3151.0,3055.0,0.898926,0.032166,-0.436646,-0.013855,-2.0,-12.0,3.0,6129.0,657.0,4965.0,-294.0,84.0,-85.0,-115.0,103.0,-277.0,0.784132,0.069928,0.616566,12218.0,1336.0,9460.0,-44.0,-265.0,88.0
2887.0,2827.0,2893.0,3147.0,3043.0,0.898315,0.031799,-0.437988,-0.013611,-3.0,-12.0,3.0,6123.0,652.0,4886.0,-316.0,86.0,-146.0,-79.0,108.0,-332.0,0.786038,0.069054,0.614311,12186.0,1244.0,9288.0,-47.0,-269.0,90.0
2887.0,2818.0,2893.0,3139.0,3035.0,0.896973,0.030945,-0.440796,-0.013062,-2.0,-13.0,4.0,6124.0,628.0,4741.0,-347.0,78.0,-251.0,-13.0,106.0,-421.0,0.789955,0.067028,0.609472,12414.0,1204.0,9142.0,-41.0,-286.0,93.0
2893.0,2832.0,2896.0,3155.0,3053.0,0.896301,0.030579,-0.4422,-0.012756,-2.0,-12.0,3.0,6144.0,606.0,4693.0,-343.0,64.0,-279.0,12.0,93.0,-436.0,0.791908,0.066097,0.607043,12370.0,1054.0,9120.0,-31.0,-272.0,86.0
2890.0,2833.0,2909.0,3131.0,3057.0,0.89502,0.030029,-0.444824,-0.012207,-1.0,-12.0,3.0,6155.0,559.0,4603.0,-361.0,29.0,-332.0,46.0,60.0,-485.0,0.79552,0.064614,0.602439,12396.0,1020.0,9008.0,-9.0,-255.0,70.0
2887.0,2819.0,2885.0,3141.0,3047.0,0.894409,0.029846,-0.446106,-0.011963,-1.0,-11.0,2.0,6171.0,543.0,4565.0,-360.0,18.0,-351.0,63.0,50.0,-496.0,0.797288,0.064063,0.60021,12466.0,972.0,8944.0,-3.0,-241.0,57.0
2887.0,2823.0,2894.0,3147.0,3047.0,0.89325,0.029602,-0.448425,-0.011536,0.0,-10.0,2.0,6182.0,500.0,4478.0,-375.0,-17.0,-404.0,99.0,17.0,-542.0,0.800428,0.06323,0.596066,12328.0,826.0,8684.0,3.0,-224.0,47.0
2895.0,2835.0,2898.0,3147.0,3055.0,0.892639,0.02948,-0.449646,-0.011292,0.0,-11.0,1.0,6177.0,468.0,4435.0,-393.0,-46.0,-430.0,111.0,-9.0,-573.0,0.802078,0.062784,0.593882,12324.0,760.0,8590.0,12.0,-234.0,43.0
2891.0,2831.0,2897.0,3153.0,3047.0,0.891418,0.02948,-0.452026,-0.010864,1.0,-10.0,1.0,6202.0,447.0,4376.0,-394.0,-64.0,-453.0,132.0,-26.0,-588.0,0.805249,0.06238,0.589548,12498.0,834.0,8562.0,29.0,-228.0,33.0
2887.0,2827.0,2893.0,3149.0,3039.0,0.890869,0.029541,-0.453186,-0.010681,1.0,-10.0,1.0,6212.0,446.0,4353.0,-397.0,-64.0,-459.0,137.0,-25.0,-593.0,0.806828,0.062315,0.587512,12472.0,900.0,8570.0,39.0,-212.0,29.0
2886.0,2823.0,2887.0,3135.0,3039.0,0.889771,0.029846,-0.455261,-0.010254,2.0,-9.0,1.0,6225.0,467.0,4304.0,-406.0,-44.0,-477.0,149.0,-4.0,-609.0,0.809544,0.062449,0.583643,12472.0,998.0,8384.0,50.0,-194.0,26.0
2895.0,2831.0,2899.0,3151.0,3055.0,0.889282,0.030029,-0.456299,-0.010071,2.0,-9.0,0.0,6246.0,475.0,4278.0,-397.0,-37.0,-488.0,165.0,2.0,-608.0,0.810952,0.0626,0.581814,12678.0,976.0,8416.0,48.0,-188.0,22.0
2891.0,2833.0,2922.0,3151.0,3051.0,0.888367,0.030396,-0.458069,-0.009705,2.0,-6.0,0.0,6331.0,474.0,4229.0,-331.0,-41.0,-510.0,223.0,-2.0,-566.0,0.813276,0.062895,0.578539,12924.0,928.0,8288.0,54.0,-133.0,12.0
2887.0,2823.0,2886.0,3142.0,3039.0,0.888,0.03064,-0.45874,-0.009521,2.0,-5.0,0.0,6357.0,473.0,4208.0,-312.0,-44.0,-520.0,243.0,-6.0,-556.0,0.81414,0.063152,0.577254,12856.0,966.0,8306.0,63.0,-103.0,8.0
2891.0,2821.0,2889.0,3151.0,3047.0,0.88739,0.031189,-0.459778,-0.009155,2.0,-4.0,0.0,6349.0,510.0,4191.0,-331.0,-12.0,-520.0,233.0,27.0,-569.0,0.815434,0.063772,0.575177,12656.0,1146.0,8348.0,52.0,-85.0,14.0
2891.0,2831.0,2903.0,3150.0,3055.0,0.887146,0.031372,-0.460266,-0.009033,1.0,-4.0,0.0,6365.0,524.0,4203.0,-320.0,0.0,-501.0,225.0,38.0,-548.0,0.81608,0.063979,0.574281,12862.0,1120.0,8494.0,36.0,-82.0,15.0
2891.0,2832.0,2899.0,3152.0,3053.0,0.886719,0.031616,-0.46106,-0.008728,1.0,-3.0,0.0,6423.0,501.0,4231.0,-270.0,-24.0,-461.0,222.0,10.0,-486.0,0.817108,0.064118,0.572771,13026.0,908.0,8580.0,35.0,-47.0,14.0
2887.0,2823.0,2895.0,3147.0,3039.0,0.886597,0.031738,-0.461304,-0.008545,2.0,-2.0,0.0,6442.0,477.0,4244.0,-254.0,-48.0,-444.0,218.0,-15.0,-464.0,0.817438,0.064162,0.572318,12954.0,824.0,8580.0,47.0,-28.0,12.0
2883.0,2821.0,2891.0,3143.0,3039.0,0.886414,0.032166,-0.461731,-0.008118,2.0,-2.0,0.0,6449.0,470.0,4259.0,-252.0,-58.0,-423.0,202.0,-25.0,-451.0,0.818047,0.06452,0.571565,12948.0,1018.0,8512.0,59.0,-23.0,11.0
2891.0,2833.0,2896.0,3151.0,3047.0,0.886292,0.03241,-0.461914,-0.007935,2.0,-2.0,0.0,6459.0,478.0,4263.0,-244.0,-52.0,-415.0,200.0,-20.0,-440.0,0.818267,0.064779,0.571161,12976.0,1014.0,8550.0,54.0,-25.0,9.0
2891.0,2832.0,2896.0,3151.0,3056.0,0.886047,0.032837,-0.462341,-0.007629,2.0,-2.0,0.0,6442.0,485.0,4281.0,-265.0,-49.0,-390.0,168.0,-17.0,-442.0,0.818812,0.065245,0.5703,12748.0,968.0,8622.0,48.0,-37.0,13.0
2893.0,2827.0,2887.0,3143.0,3039.0,0.885864,0.03302,-0.462646,-0.007446,2.0,-3.0,0.0,6434.0,475.0,4287.0,-276.0,-60.0,-379.0,154.0,-28.0,-445.0,0.819192,0.065393,0.569679,12844.0,882.0,8580.0,50.0,-57.0,18.0
2893.0,2830.0,2894.0,3147.0,3039.0,0.885437,0.033386,-0.463501,-0.006958,2.0,-4.0,1.0,6423.0,483.0,4275.0,-297.0,-54.0,-378.0,142.0,-21.0,-461.0,0.820337,0.065573,0.568099,12844.0,1032.0,8482.0,58.0,-85.0,28.0
2887.0,2827.0,2896.0,3152.0,3054.0,0.885132,0.03363,-0.463989,-0.006714,2.0,-5.0,0.0,6446.0,478.0,4256.0,-279.0,-60.0,-389.0,162.0,-27.0,-453.0,0.820932,0.065765,0.567086,13072.0,898.0,8370.0,57.0,-92.0,19.0
2891.0,2831.0,2901.0,3151.0,3055.0,0.884644,0.03418,-0.464966,-0.006348,3.0,-3.0,-1.0,6524.0,429.0,4175.0,-211.0,-114.0,-455.0,257.0,-79.0,-438.0,0.822224,0.066377,0.565273,13198.0,666.0,7994.0,82.0,-53.0,-17.0
2887.0,2827.0,2890.0,3151.0,3045.0,0.884399,0.034668,-0.465332,-0.006165,4.0,-2.0,-2.0,6519.0,401.0,4093.0,-220.0,-148.0,-531.0,315.0,-108.0,-490.0,0.822651,0.067058,0.564465,12932.0,646.0,7702.0,103.0,-33.0,-28.0
2891.0,2826.0,2895.0,3151.0,3055.0,0.883972,0.035767,-0.466125,-0.005981,4.0,-2.0,-3.0,6478.0,405.0,3927.0,-269.0,-158.0,-684.0,415.0,-106.0,-617.0,0.823656,0.06881,0.56289,12928.0,852.0,7432.0,108.0,-45.0,-51.0
2891.0,2835.0,2899.0,3147.0,3047.0,0.883667,0.036377,-0.466553,-0.005981,4.0,-2.0,-3.0,6463.0,392.0,3828.0,-288.0,-180.0,-775.0,481.0,-121.0,-685.0,0.824119,0.069872,0.561908,12832.0,646.0,6996.0,96.0,-35.0,-63.0
2887.0,2832.0,2899.0,3151.0,3039.0,0.883057,0.037354,-0.467712,-0.005798,5.0,-4.0,-2.0,6365.0,239.0,3565.0,-398.0,-345.0,-1019.0,626.0,-264.0,-923.0,0.8256,0.071394,0.559672,12458.0,-20.0,6332.0,119.0,-70.0,-37.0
2891.0,2827.0,2891.0,3147.0,3055.0,0.882629,0.037903,-0.468506,-0.005493,6.0,-4.0,-2.0,6374.0,166.0,3435.0,-397.0,-424.0,-1137.0,729.0,-334.0,-993.0,0.826618,0.072055,0.55813,12936.0,-82.0,6072.0,151.0,-85.0,-35.0
2886.0,2827.0,2886.0,3143.0,3047.0,0.881897,0.039551,-0.469727,-0.004883,8.0,2.0,-4.0,6540.0,81.0,3121.0,-243.0,-528.0,-1430.0,1064.0,-421.0,-1034.0,0.828115,0.074347,0.555559,13614.0,4.0,5202.0,205.0,49.0,-90.0
2893.0,2832.0,2899.0,3147.0,3047.0,0.881836,0.040649,-0.469788,-0.004761,8.0,7.0,-6.0,6638.0,70.0,2930.0,-146.0,-553.0,-1619.0,1276.0,-435.0,-1062.0,0.828164,0.076165,0.555305,13868.0,96.0,4706.0,199.0,176.0,-133.0
2891.0,2834.0,2895.0,3153.0,3047.0,0.882812,0.042908,-0.467712,-0.005493,5.0,24.0,-12.0,6833.0,69.0,2489.0,71.0,-593.0,-2088.0,1783.0,-446.0,-1156.0,0.825333,0.080897,0.558792,14270.0,50.0,3614.0,136.0,563.0,-263.0
2885.0,2829.0,2896.0,3150.0,3046.0,0.884094,0.044067,-0.465149,-0.006409,4.0,36.0,-16.0,6974.0,36.0,2281.0,240.0,-651.0,-2334.0,2076.0,-493.0,-1172.0,0.821906,0.083881,0.563358,14908.0,-182.0,3324.0,101.0,834.0,-347.0
2895.0,2829.0,2891.0,3150.0,3047.0,0.889282,0.046753,-0.454895,-0.009033,7.0,79.0,-24.0,7977.0,-321.0,1954.0,1356.0,-1069.0,-2812.0,3100.0,-932.0,-637.0,0.808215,0.091371,0.581789,21250.0,-1950.0,2962.0,170.0,1811.0,-536.0
2891.0,2832.0,2896.0,3151.0,3054.0,0.894287,0.04895,-0.444641,-0.010498,11.0,127.0,-33.0,9292.0,-478.0,1905.0,2785.0,-1271.0,-3008.0,4109.0,-1202.0,284.0,0.794246,0.096887,0.599758,27676.0,-1862.0,3850.0,266.0,2925.0,-746.0
2887.0,2832.0,2899.0,3151.0,3042.0,0.9151,0.059387,-0.398376,-0.017578,30.0,318.0,-86.0,12432.0,-649.0,1815.0,6476.0,-1654.0,-3718.0,7159.0,-1803.0,1993.0,0.727021,0.122696,0.675487,32767.0,-1284.0,2476.0,697.0,7294.0,-1966.0
2891.0,2823.0,2893.0,3153.0,3045.0,0.93158,0.069214,-0.355835,-0.025452,35.0,444.0,-131.0,13240.0,-424.0,1223.0,7837.0,-1628.0,-4815.0,9053.0,-1834.0,1379.0,0.659454,0.14707,0.737079,29414.0,906.0,-2094.0,822.0,10173.0,-2993.0
2891.0,2827.0,2891.0,3143.0,3051.0,0.966797,0.091492,-0.231873,-0.055786,-19.0,589.0,-201.0,9392.0,1041.0,-1209.0,5802.0,-620.0,-8382.0,8944.0,-211.0,-4923.0,0.438139,0.202778,0.875673,44.0,8706.0,-9890.0,-413.0,13493.0,-4604.0
2887.0,2827.0,2897.0,3143.0,3045.0,0.987732,0.086548,-0.096375,-0.086914,-183.0,467.0,-112.0,1380.0,3940.0,-1433.0,-56.0,2402.0,-9349.0,2238.0,3781.0,-8593.0,0.17534,0.187725,0.96639,-23580.0,14340.0,386.0,-4175.0,10706.0,-2548.0
2895.0,2832.0,2897.0,3143.0,3055.0,0.992493,0.066895,-0.042908,-0.092773,-235.0,335.0,-38.0,-2800.0,3270.0,-368.0,-3396.0,2117.0,-8456.0,-2122.0,3761.0,-8298.0,0.072759,0.140746,0.987333,-29808.0,-1534.0,6230.0,-5360.0,7679.0,-863.0
2891.0,2832.0,2897.0,3151.0,3051.0,0.995239,0.02655,0.019653,-0.091675,-74.0,126.0,6.0,-6862.0,-2897.0,3770.0,-6501.0,-3300.0,-4404.0,-7143.0,-1811.0,-4270.0,-0.043987,0.049244,0.997814,-18890.0,-22430.0,22024.0,-1687.0,2892.0,140.0
2885.0,2832.0,2897.0,3152.0,3047.0,0.994446,0.031372,0.046387,-0.088623,66.0,61.0,24.0,-7200.0,-2764.0,8146.0,-6398.0,-3207.0,6.0,-6843.0,-2041.0,458.0,-0.097819,0.054174,0.993641,-15266.0,2902.0,28432.0,1515.0,1419.0,556.0
2891.0,2829.0,2895.0,3143.0,3051.0,0.994019,0.040161,0.053955,-0.08551,54.0,38.0,26.0,-7615.0,-1021.0,9850.0,-6680.0,-1599.0,1732.0,-6647.0,-617.0,2365.0,-0.114133,0.070614,0.990861,-18326.0,8550.0,29226.0,1251.0,875.0,603.0
2886.0,2830.0,2895.0,3151.0,3055.0,0.993347,0.049011,0.060059,-0.0849,-1.0,-38.0,-10.0,-9178.0,1535.0,12037.0,-8132.0,820.0,3943.0,-7374.0,1703.0,5004.0,-0.12764,0.087172,0.987937,-22896.0,8010.0,28972.0,-14.0,-849.0,-225.0
2891.0,2833.0,2897.0,3151.0,3055.0,0.993469,0.047668,0.055481,-0.087341,-19.0,-90.0,-18.0,-9612.0,1719.0,12564.0,-8640.0,1022.0,4459.0,-7817.0,1989.0,5522.0,-0.118564,0.085023,0.989259,-21034.0,3268.0,27824.0,-425.0,-2044.0,-394.0
2889.0,2831.0,2901.0,3152.0,3047.0,0.994629,0.041382,0.026245,-0.091125,5.0,-194.0,2.0,-9241.0,327.0,12523.0,-8751.0,-308.0,4370.0,-8454.0,884.0,4847.0,-0.05975,0.077536,0.995189,-15678.0,-4734.0,23618.0,133.0,-4442.0,61.0
2886.0,2833.0,2871.0,3143.0,3054.0,0.994446,0.045959,-0.030151,-0.089478,80.0,-284.0,26.0,-7454.0,-781.0,11464.0,-7877.0,-1574.0,3321.0,-8238.0,-404.0,2740.0,0.051743,0.096804,0.993907,-8080.0,-2696.0,18610.0,1848.0,-6490.0,598.0
2886.0,2813.0,2889.0,3143.0,3043.0,0.992493,0.053955,-0.066467,-0.086975,104.0,-311.0,33.0,-5925.0,-466.0,10815.0,-6928.0,-1438.0,2743.0,-7387.0,-424.0,1682.0,0.122551,0.118662,0.985277,-1890.0,1936.0,18028.0,2392.0,-7102.0,757.0
2885.0,2827.0,2896.0,3151.0,3047.0,0.983704,0.073059,-0.14325,-0.080078,99.0,-306.0,40.0,-2640.0,1020.0,9489.0,-4852.0,-345.0,1721.0,-5142.0,321.0,263.0,0.270129,0.166679,0.948227,2910.0,6324.0,13760.0,2288.0,-7004.0,930.0
2883.0,2827.0,2893.0,3147.0,3043.0,0.968933,0.087097,-0.219971,-0.071594,74.0,-322.0,51.0,-735.0,1921.0,7272.0,-4124.0,280.0,-2.0,-3653.0,1003.0,-1652.0,0.413802,0.20028,0.887984,4278.0,5806.0,8002.0,1707.0,-7371.0,1179.0
2889.0,2831.0,2899.0,3147.0,3051.0,0.958923,0.091248,-0.26001,-0.066833,62.0,-330.0,57.0,253.0,2053.0,6179.0,-3732.0,334.0,-768.0,-2774.0,1088.0,-2396.0,0.486462,0.209754,0.848069,6478.0,4522.0,5696.0,1443.0,-7556.0,1320.0
2887.0,2829.0,2897.0,3150.0,3047.0,0.933594,0.094666,-0.341064,-0.055603,47.0,-329.0,67.0,2680.0,2032.0,4314.0,-2450.0,273.0,-1825.0,-672.0,932.0,-2843.0,0.626304,0.214687,0.749402,14630.0,4224.0,4828.0,1077.0,-7514.0,1546.0
2886.0,2831.0,2894.0,3151.0,3047.0,0.919312,0.094849,-0.378601,-0.049683,40.0,-297.0,65.0,4371.0,2052.0,3811.0,-1254.0,315.0,-1884.0,447.0,770.0,-2104.0,0.68668,0.212011,0.695267,18830.0,4140.0,4286.0,923.0,-6795.0,1505.0
2887.0,2831.0,2896.0,3147.0,3047.0,0.89325,0.093201,-0.438049,-0.037903,25.0,-199.0,58.0,7550.0,2058.0,2934.0,1197.0,421.0,-1971.0,2284.0,496.0,-167.0,0.77551,0.19971,0.598758,23226.0,4108.0,3158.0,580.0,-4541.0,1338.0
2890.0,2827.0,2897.0,3147.0,3045.0,0.876038,0.090088,-0.472839,-0.028564,6.0,-100.0,41.0,8819.0,1936.0,1833.0,2074.0,421.0,-2562.0,3263.0,468.0,410.0,0.823303,0.184854,0.536565,19368.0,3318.0,328.0,150.0,-2276.0,944.0
2891.0,2831.0,2899.0,3151.0,3053.0,0.870911,0.087952,-0.482849,-0.025574,-3.0,-62.0,31.0,8932.0,1743.0,1310.0,2079.0,285.0,-2935.0,3577.0,388.0,268.0,0.836538,0.177893,0.518261,18246.0,2146.0,-520.0,-59.0,-1410.0,730.0
2891.0,2831.0,2897.0,3147.0,3046.0,0.866638,0.082886,-0.491577,-0.021423,-12.0,6.0,19.0,9069.0,1223.0,498.0,2118.0,-126.0,-3622.0,4197.0,68.0,-45.0,0.848488,0.164726,0.503003,19038.0,1136.0,-998.0,-267.0,153.0,446.0
2887.0,2829.0,2893.0,3149.0,3043.0,0.867737,0.080566,-0.490051,-0.020203,-16.0,46.0,10.0,9411.0,1124.0,298.0,2470.0,-183.0,-3853.0,4579.0,0.0,110.0,0.847216,0.159622,0.506734,21254.0,1824.0,-380.0,-352.0,1070.0,238.0
2890.0,2831.0,2893.0,3151.0,3047.0,0.878479,0.077026,-0.470947,-0.021606,-27.0,160.0,-20.0,11081.0,962.0,55.0,4329.0,-313.0,-4405.0,6074.0,-280.0,1120.0,0.824106,0.155683,0.544468,28884.0,1292.0,-678.0,-617.0,3672.0,-446.0
2893.0,2831.0,2901.0,3143.0,3046.0,0.889282,0.075867,-0.450317,-0.024536,-33.0,243.0,-41.0,12334.0,886.0,-139.0,5803.0,-400.0,-4913.0,7405.0,-490.0,1699.0,0.797196,0.157032,0.582883,32292.0,1488.0,-1706.0,-754.0,5585.0,-930.0
2887.0,2833.0,2898.0,3151.0,3055.0,0.922485,0.076965,-0.376099,-0.039307,-52.0,451.0,-116.0,13666.0,714.0,-1327.0,8031.0,-691.0,-7103.0,10694.0,-929.0,396.0,0.68784,0.171565,0.70515,27104.0,246.0,-8348.0,-1177.0,10348.0,-2640.0
2891.0,2827.0,2894.0,3155.0,3043.0,0.942444,0.079224,-0.320312,-0.053833,-63.0,544.0,-169.0,12637.0,118.0,-2779.0,7760.0,-1387.0,-9186.0,11676.0,-1487.0,-2821.0,0.595223,0.183814,0.782222,17394.0,-4118.0,-15172.0,-1442.0,12471.0,-3849.0
2884.0,2827.0,2895.0,3151.0,3047.0,0.975952,0.082153,-0.180359,-0.090393,-94.0,614.0,-174.0,7227.0,-802.0,-5061.0,4464.0,-2382.0,-12608.0,8376.0,-1620.0,-10571.0,0.337191,0.192962,0.921375,-7672.0,-410.0,-12700.0,-2138.0,14084.0,-3976.0
2879.0,2823.0,2890.0,3147.0,3047.0,0.991516,0.066528,-0.052551,-0.098145,-121.0,358.0,12.0,-2714.0,-1497.0,-3286.0,-3460.0,-2662.0,-11359.0,-2541.0,-507.0,-11888.0,0.091152,0.142243,0.985549,-32768.0,-11460.0,5638.0,-2759.0,8210.0,286.0
2883.0,2832.0,2899.0,3149.0,3047.0,0.993713,0.059753,-0.015076,-0.093384,-32.0,202.0,30.0,-6227.0,-2799.0,-245.0,-6381.0,-3794.0,-8374.0,-6619.0,-1534.0,-8891.0,0.018802,0.121571,0.992389,-31190.0,-11586.0,19506.0,-721.0,4627.0,708.0
2887.0,2833.0,2899.0,3151.0,3051.0,0.993164,0.072144,0.016846,-0.090027,48.0,42.0,1.0,-7993.0,345.0,6009.0,-7612.0,-804.0,-2092.0,-7672.0,866.0,-1828.0,-0.046451,0.140268,0.988991,-15670.0,16018.0,28174.0,1121.0,972.0,25.0
2891.0,2833.0,2899.0,3153.0,3054.0,0.992676,0.072815,0.024475,-0.092834,-56.0,-12.0,-21.0,-7217.0,2581.0,9141.0,-6708.0,1433.0,1046.0,-6277.0,2449.0,1650.0,-0.062111,0.140019,0.988122,-12016.0,4396.0,24640.0,-1269.0,-261.0,-464.0
2881.0,2831.0,2896.0,3151.0,3047.0,0.993103,0.057251,0.019165,-0.099915,-35.0,-76.0,-23.0,-6496.0,270.0,10186.0,-6090.0,-630.0,2054.0,-6034.0,340.0,2271.0,-0.049506,0.109883,0.992592,-10704.0,-7522.0,22416.0,-794.0,-1733.0,-525.0
2882.0,2823.0,2896.0,3151.0,3047.0,0.993286,0.052856,0.008911,-0.102234,2.0,-118.0,-8.0,-6112.0,-859.0,10411.0,-5878.0,-1704.0,2266.0,-6085.0,-712.0,2244.0,-0.02851,0.103181,0.994196,-9870.0,-7874.0,21970.0,47.0,-2687.0,-166.0
2882.0,2826.0,2894.0,3151.0,3053.0,0.992737,0.055908,-0.029419,-0.102173,70.0,-202.0,15.0,-5008.0,-1685.0,10580.0,-5392.0,-2643.0,2453.0,-5968.0,-1717.0,1870.0,0.046986,0.117016,0.991974,-5996.0,-3668.0,21676.0,1618.0,-4618.0,349.0
2883.0,2827.0,2898.0,3149.0,3043.0,0.988403,0.07074,-0.087341,-0.101685,98.0,-265.0,11.0,-3455.0,-684.0,10136.0,-4751.0,-1975.0,2151.0,-5354.0,-1163.0,1033.0,0.158271,0.157601,0.974648,-736.0,3134.0,19524.0,2264.0,-6064.0,271.0
2885.0,2831.0,2902.0,3147.0,3046.0,0.984253,0.078918,-0.121094,-0.101379,94.0,-280.0,15.0,-2443.0,31.0,9755.0,-4264.0,-1442.0,1905.0,-4795.0,-711.0,617.0,0.222372,0.179904,0.95814,1030.0,4140.0,16632.0,2167.0,-6405.0,362.0
2887.0,2833.0,2896.0,3151.0,3051.0,0.971924,0.090332,-0.19397,-0.097534,77.0,-309.0,37.0,-706.0,619.0,8192.0,-3650.0,-1129.0,750.0,-3776.0,-372.0,-871.0,0.359427,0.213429,0.908365,2946.0,1812.0,10848.0,1766.0,-7075.0,851.0
2891.0,2827.0,2895.0,3163.0,3046.0,0.963257,0.094421,-0.233215,-0.094116,76.0,-328.0,44.0,-90.0,748.0,7153.0,-3625.0,-1101.0,-2.0,-3316.0,-244.0,-1814.0,0.431519,0.225803,0.873417,3512.0,2412.0,8044.0,1759.0,-7497.0,1027.0
2886.0,2826.0,2896.0,3151.0,3046.0,0.939148,0.101257,-0.317017,-0.084961,71.0,-349.0,57.0,2055.0,1291.0,5327.0,-2681.0,-708.0,-1050.0,-1527.0,59.0,-2540.0,0.578245,0.244059,0.778465,12736.0,4878.0,6840.0,1644.0,-7985.0,1322.0
2883.0,2821.0,2895.0,3149.0,3043.0,0.909424,0.103455,-0.395874,-0.074036,48.0,-304.0,62.0,4931.0,2012.0,4280.0,-842.0,-9.0,-1168.0,289.0,324.0,-1372.0,0.704716,0.246786,0.665114,18052.0,5758.0,5390.0,1119.0,-6943.0,1443.0
2885.0,2832.0,2899.0,3149.0,3053.0,0.894653,0.102722,-0.429382,-0.068481,38.0,-268.0,61.0,6276.0,2223.0,3871.0,97.0,235.0,-1127.0,950.0,348.0,-557.0,0.754228,0.242611,0.610173,20478.0,5436.0,5372.0,876.0,-6136.0,1416.0
2881.0,2831.0,2897.0,3150.0,3055.0,0.869324,0.100098,-0.480469,-0.057922,26.0,-173.0,49.0,8844.0,2345.0,3174.0,2095.0,463.0,-1071.0,2022.0,164.0,1277.0,0.82377,0.229694,0.518209,25230.0,4870.0,4588.0,610.0,-3940.0,1144.0
2882.0,2826.0,2896.0,3147.0,3055.0,0.860596,0.098999,-0.496765,-0.05304,22.0,-115.0,43.0,9709.0,2355.0,2704.0,2790.0,527.0,-1284.0,2504.0,135.0,1848.0,0.844526,0.223093,0.486862,23738.0,4748.0,2348.0,504.0,-2629.0,1003.0
2886.0,2827.0,2893.0,3147.0,3047.0,0.851257,0.097656,-0.51355,-0.045227,10.0,-32.0,26.0,9671.0,2324.0,1764.0,2580.0,581.0,-1950.0,2917.0,343.0,1472.0,0.865493,0.212714,0.453414,16976.0,4248.0,800.0,244.0,-714.0,600.0
2886.0,2832.0,2901.0,3151.0,3043.0,0.849609,0.097412,-0.516602,-0.042969,6.0,-8.0,16.0,9165.0,2189.0,1414.0,2042.0,469.0,-2250.0,2925.0,376.0,867.0,0.869448,0.20992,0.447316,15154.0,3558.0,858.0,138.0,-182.0,367.0
2887.0,2832.0,2896.0,3150.0,3055.0,0.849792,0.097046,-0.516418,-0.041443,-7.0,23.0,1.0,8205.0,2120.0,1077.0,1080.0,418.0,-2591.0,2782.0,540.0,-134.0,0.869653,0.207741,0.447759,13678.0,4242.0,1528.0,-144.0,528.0,30.0
2887.0,2829.0,2901.0,3151.0,3043.0,0.851318,0.096436,-0.513977,-0.042175,-15.0,34.0,-4.0,7790.0,2038.0,1049.0,687.0,337.0,-2662.0,2663.0,533.0,-540.0,0.866982,0.207549,0.453049,13180.0,3378.0,2092.0,-341.0,781.0,-78.0
2881.0,2827.0,2897.0,3147.0,3047.0,0.856201,0.092773,-0.506348,-0.043884,-23.0,45.0,2.0,6919.0,1564.0,1163.0,-117.0,-101.0,-2687.0,2297.0,228.0,-1383.0,0.858928,0.203307,0.470011,11158.0,1466.0,2926.0,-521.0,1049.0,55.0
2883.0,2830.0,2899.0,3142.0,3047.0,0.859009,0.09021,-0.501953,-0.043945,-22.0,46.0,6.0,6519.0,1342.0,1345.0,-480.0,-289.0,-2584.0,2016.0,83.0,-1707.0,0.854436,0.199099,0.479733,10754.0,1510.0,3940.0,-487.0,1061.0,153.0
2883.0,2832.0,2897.0,3149.0,3053.0,0.865051,0.086182,-0.492249,-0.043823,-16.0,51.0,2.0,6200.0,1153.0,1986.0,-714.0,-421.0,-2114.0,1454.0,-74.0,-1741.0,0.844087,0.192247,0.500498,12238.0,2050.0,6194.0,-355.0,1174.0,49.0
2887.0,2827.0,2895.0,3151.0,3047.0,0.868469,0.084961,-0.48645,-0.044128,-14.0,57.0,-3.0,6228.0,1149.0,2399.0,-632.0,-411.0,-1798.0,1204.0,-114.0,-1528.0,0.837436,0.190504,0.512334,12604.0,2330.0,7338.0,-309.0,1322.0,-46.0
2885.0,2831.0,2896.0,3153.0,3045.0,0.875977,0.083374,-0.472961,-0.045044,-13.0,59.0,-4.0,5715.0,1249.0,3148.0,-1011.0,-296.0,-1265.0,503.0,0.0,-1567.0,0.821095,0.188675,0.53872,8872.0,2984.0,8358.0,-277.0,1360.0,-83.0
2885.0,2827.0,2898.0,3151.0,3046.0,0.882019,0.081787,-0.461731,-0.046631,-13.0,38.0,-4.0,5192.0,1379.0,3917.0,-1417.0,-155.0,-672.0,-255.0,139.0,-1548.0,0.806883,0.187337,0.560247,9824.0,2910.0,10174.0,-297.0,875.0,-82.0
2883.0,2831.0,2895.0,3147.0,3047.0,0.884216,0.080872,-0.45752,-0.047363,-12.0,31.0,-3.0,5239.0,1368.0,4291.0,-1326.0,-158.0,-363.0,-469.0,90.0,-1298.0,0.801432,0.186355,0.568217,10972.0,2634.0,10764.0,-254.0,720.0,-59.0
2886.0,2832.0,2899.0,3147.0,3051.0,0.887878,0.07959,-0.450623,-0.047668,-5.0,25.0,0.0,5528.0,1388.0,4891.0,-965.0,-121.0,129.0,-674.0,19.0,-712.0,0.792608,0.184293,0.581205,12128.0,3058.0,11436.0,-97.0,576.0,13.0
2883.0,2830.0,2887.0,3145.0,3043.0,0.889404,0.079407,-0.447571,-0.047546,-2.0,24.0,0.0,5687.0,1449.0,5103.0,-773.0,-56.0,296.0,-698.0,36.0,-446.0,0.788592,0.18381,0.586676,12278.0,3252.0,11360.0,-44.0,556.0,20.0
2879.0,2826.0,2894.0,3151.0,3043.0,0.892273,0.079529,-0.441956,-0.047119,-1.0,21.0,0.0,5928.0,1566.0,5370.0,-471.0,62.0,481.0,-667.0,85.0,-69.0,0.781195,0.183572,0.596722,12442.0,3568.0,11484.0,0.0,497.0,5.0
2881.0,2832.0,2895.0,3149.0,3047.0,0.893494,0.079834,-0.439331,-0.04718,-1.0,20.0,-3.0,5952.0,1635.0,5447.0,-417.0,126.0,522.0,-666.0,135.0,12.0,0.777546,0.184118,0.601172,11950.0,3650.0,11272.0,-7.0,465.0,-47.0
2885.0,2832.0,2899.0,3149.0,3047.0,0.895508,0.080444,-0.435059,-0.047913,-1.0,13.0,-5.0,5969.0,1627.0,5531.0,-351.0,105.0,546.0,-644.0,101.0,80.0,0.771488,0.185767,0.608483,12172.0,3156.0,11344.0,-4.0,308.0,-106.0
2885.0,2829.0,2893.0,3151.0,3047.0,0.896179,0.080811,-0.433472,-0.048279,1.0,10.0,-5.0,5987.0,1603.0,5503.0,-313.0,73.0,497.0,-582.0,69.0,76.0,0.769134,0.186696,0.61104,12194.0,3078.0,10894.0,33.0,241.0,-96.0
2885.0,2827.0,2893.0,3151.0,3055.0,0.897095,0.081726,-0.431519,-0.04834,3.0,6.0,-1.0,6169.0,1609.0,5470.0,-108.0,66.0,438.0,-408.0,35.0,198.0,0.766325,0.188351,0.614228,13056.0,3304.0,10816.0,74.0,151.0,-21.0
2885.0,2831.0,2896.0,3151.0,3045.0,0.8974,0.082153,-0.430725,-0.048096,3.0,7.0,0.0,6262.0,1640.0,5438.0,-6.0,92.0,396.0,-311.0,49.0,256.0,0.765163,0.188881,0.615367,13050.0,3480.0,10708.0,76.0,163.0,2.0
2881.0,2831.0,2898.0,3150.0,3051.0,0.898193,0.082886,-0.428955,-0.047729,1.0,7.0,-1.0,6298.0,1754.0,5361.0,50.0,198.0,297.0,-196.0,154.0,259.0,0.762657,0.189842,0.618157,12630.0,3894.0,10724.0,30.0,183.0,-8.0
2887.0,2823.0,2896.0,3151.0,3047.0,0.898682,0.083252,-0.427917,-0.047913,0.0,8.0,-3.0,6280.0,1789.0,5334.0,44.0,227.0,255.0,-167.0,188.0,234.0,0.761146,0.190639,0.61988,12388.0,3750.0,10426.0,3.0,205.0,-46.0
2886.0,2829.0,2895.0,3151.0,3047.0,0.899536,0.083435,-0.426025,-0.048462,-2.0,6.0,-2.0,6119.0,1741.0,5252.0,-93.0,173.0,147.0,-169.0,168.0,54.0,0.758364,0.191398,0.623055,11580.0,3190.0,10244.0,-27.0,140.0,-37.0
2883.0,2831.0,2895.0,3151.0,3055.0,0.89978,0.083496,-0.425476,-0.048523,-1.0,2.0,0.0,6018.0,1696.0,5236.0,-187.0,126.0,124.0,-212.0,139.0,-40.0,0.757567,0.191547,0.623958,11440.0,3160.0,10368.0,-6.0,62.0,4.0
2881.0,2829.0,2896.0,3150.0,3051.0,0.899902,0.083618,-0.425293,-0.048035,2.0,-1.0,2.0,6000.0,1661.0,5270.0,-204.0,93.0,156.0,-248.0,106.0,-39.0,0.757411,0.191354,0.624265,12094.0,3344.0,10606.0,47.0,-19.0,54.0
2885.0,2823.0,2891.0,3151.0,3039.0,0.899902,0.08374,-0.425293,-0.047668,2.0,-1.0,2.0,6015.0,1670.0,5262.0,-190.0,103.0,148.0,-233.0,114.0,-31.0,0.757461,0.191262,0.62421,12096.0,3386.0,10440.0,55.0,-14.0,56.0
2883.0,2823.0,2895.0,3151.0,3047.0,0.899841,0.084045,-0.425354,-0.047119,1.0,-1.0,1.0,6007.0,1679.0,5191.0,-199.0,111.0,79.0,-185.0,131.0,-80.0,0.757582,0.19134,0.623945,11896.0,3350.0,10162.0,34.0,-6.0,38.0
2887.0,2827.0,2896.0,3151.0,3051.0,0.899841,0.084229,-0.425293,-0.046936,1.0,-1.0,0.0,5990.0,1658.0,5137.0,-215.0,89.0,25.0,-154.0,118.0,-130.0,0.757486,0.191508,0.623949,11850.0,3146.0,9880.0,40.0,-3.0,19.0
2885.0,2829.0,2895.0,3149.0,3051.0,0.89978,0.084778,-0.425476,-0.046692,2.0,-2.0,0.0,5908.0,1637.0,5029.0,-299.0,61.0,-79.0,-127.0,115.0,-264.0,0.757753,0.192295,0.623567,11480.0,3364.0,9756.0,54.0,-30.0,6.0
2887.0,2831.0,2895.0,3151.0,3039.0,0.899658,0.085022,-0.425659,-0.046631,1.0,-3.0,0.0,5881.0,1661.0,4988.0,-328.0,82.0,-116.0,-116.0,144.0,-305.0,0.757966,0.192679,0.623145,11670.0,3466.0,9724.0,36.0,-58.0,4.0
2879.0,2829.0,2896.0,3151.0,3039.0,0.899353,0.085266,-0.426208,-0.046692,0.0,-2.0,-1.0,5974.0,1636.0,4912.0,-240.0,53.0,-184.0,-8.0,110.0,-286.0,0.758661,0.19317,0.622092,12300.0,3060.0,9600.0,1.0,-29.0,-5.0
2883.0,2829.0,2896.0,3143.0,3055.0,0.899353,0.085327,-0.42627,-0.046753,0.0,0.0,-1.0,6001.0,1598.0,4865.0,-214.0,14.0,-230.0,43.0,73.0,-302.0,0.758755,0.193337,0.622035,12104.0,2992.0,9430.0,15.0,15.0,-14.0
2887.0,2832.0,2895.0,3150.0,3055.0,0.899475,0.085938,-0.425781,-0.046814,2.0,4.0,-3.0,6006.0,1568.0,4777.0,-202.0,-25.0,-323.0,121.0,44.0,-359.0,0.757913,0.194462,0.622572,11898.0,3140.0,9110.0,57.0,97.0,-60.0
2886.0,2831.0,2901.0,3155.0,3043.0,0.899658,0.086487,-0.425293,-0.047058,2.0,5.0,-5.0,6013.0,1578.0,4778.0,-189.0,-24.0,-327.0,132.0,44.0,-351.0,0.757097,0.195644,0.623245,12116.0,3144.0,9594.0,63.0,129.0,-95.0
2884.0,2831.0,2911.0,3149.0,3039.0,0.900085,0.087585,-0.424072,-0.047607,2.0,4.0,-4.0,5883.0,1550.0,4692.0,-302.0,-72.0,-427.0,136.0,27.0,-509.0,0.755063,0.198047,0.624912,11348.0,3022.0,9370.0,50.0,95.0,-81.0
2881.0,2829.0,2896.0,3151.0,3047.0,0.900208,0.087952,-0.423828,-0.047791,2.0,1.0,-2.0,5838.0,1569.0,4704.0,-344.0,-60.0,-418.0,102.0,45.0,-532.0,0.75466,0.198859,0.625292,11532.0,3296.0,9646.0,46.0,38.0,-43.0
2883.0,2830.0,2893.0,3143.0,3051.0,0.900208,0.088501,-0.423645,-0.047791,1.0,0.0,-1.0,5872.0,1627.0,4792.0,-307.0,-10.0,-330.0,58.0,78.0,-439.0,0.754278,0.199831,0.62535,11930.0,3344.0,9766.0,23.0,6.0,-9.0
2885.0,2835.0,2896.0,3153.0,3063.0,0.900208,0.088623,-0.423645,-0.047791,0.0,0.0,0.0,5930.0,1653.0,4852.0,-248.0,14.0,-270.0,50.0,85.0,-353.0,0.754266,0.200051,0.625328,12250.0,3454.0,10086.0,9.0,8.0,2.0
2887.0,2831.0,2903.0,3151.0,3050.0,0.900391,0.088684,-0.423218,-0.047668,0.0,3.0,0.0,6006.0,1640.0,4940.0,-168.0,1.0,-188.0,37.0,50.0,-244.0,0.753668,0.200049,0.625997,12048.0,3178.0,10066.0,9.0,72.0,5.0
2884.0,2829.0,2899.0,3149.0,3055.0,0.900574,0.088745,-0.422852,-0.047607,0.0,3.0,0.0,6002.0,1620.0,4974.0,-167.0,-19.0,-159.0,15.0,27.0,-229.0,0.753168,0.200105,0.62662,11976.0,3146.0,10124.0,16.0,83.0,3.0
2883.0,2831.0,2896.0,3151.0,3047.0,0.90094,0.088989,-0.421997,-0.047424,0.0,3.0,0.0,5990.0,1620.0,5014.0,-169.0,-21.0,-130.0,-8.0,22.0,-212.0,0.751948,0.200374,0.627941,11996.0,3226.0,10138.0,17.0,80.0,1.0
2887.0,2833.0,2899.0,3149.0,3051.0,0.901123,0.08905,-0.421631,-0.047363,0.0,3.0,0.0,5981.0,1622.0,5014.0,-174.0,-19.0,-135.0,-7.0,25.0,-219.0,0.751447,0.20043,0.628563,11916.0,3270.0,10062.0,9.0,73.0,9.0
2867.0,2831.0,2895.0,3155.0,3071.0,0.901428,0.08905,-0.421021,-0.04718,-1.0,1.0,0.0,5935.0,1628.0,5065.0,-214.0,-12.0,-92.0,-66.0,33.0,-220.0,0.750637,0.200273,0.629611,11730.0,3230.0,10278.0,-3.0,44.0,14.0
2886.0,2829.0,2903.0,3143.0,3047.0,0.90155,0.088989,-0.420776,-0.047119,-1.0,1.0,0.0,5949.0,1627.0,5105.0,-197.0,-12.0,-56.0,-83.0,26.0,-185.0,0.750316,0.20011,0.630041,12010.0,3286.0,10458.0,-10.0,36.0,18.0
2887.0,2832.0,2898.0,3143.0,3055.0,0.901855,0.088806,-0.420227,-0.047058,-1.0,1.0,0.0,5929.0,1609.0,5144.0,-211.0,-27.0,-25.0,-116.0,10.0,-179.0,0.74961,0.199731,0.63108,11804.0,3116.0,10378.0,-22.0,45.0,9.0
2885.0,2831.0,2898.0,3151.0,3047.0,0.901978,0.088684,-0.419922,-0.046997,-1.0,1.0,0.0,5917.0,1577.0,5138.0,-220.0,-56.0,-35.0,-115.0,-15.0,-198.0,0.749184,0.199452,0.631573,11780.0,2964.0,10274.0,-10.0,41.0,9.0
2883.0,2833.0,2899.0,3153.0,3057.0,0.902161,0.088684,-0.419495,-0.046875,0.0,1.0,0.0,5857.0,1577.0,5112.0,-275.0,-56.0,-67.0,-126.0,-3.0,-259.0,0.748589,0.199342,0.63225,11472.0,3264.0,10120.0,11.0,26.0,7.0
2887.0,2832.0,2895.0,3151.0,3051.0,0.902222,0.088684,-0.419373,-0.046875,-1.0,0.0,0.0,5816.0,1600.0,5108.0,-315.0,-33.0,-73.0,-147.0,26.0,-288.0,0.74842,0.199342,0.632463,11396.0,3340.0,10168.0,-1.0,2.0,14.0
2887.0,2831.0,2895.0,3151.0,3039.0,0.902222,0.08844,-0.419495,-0.046875,-2.0,-2.0,0.0,5841.0,1617.0,5097.0,-292.0,-12.0,-83.0,-124.0,44.0,-273.0,0.748663,0.198912,0.632404,12028.0,3208.0,10184.0,-35.0,-32.0,15.0
2887.0,2832.0,2901.0,3152.0,3051.0,0.902161,0.088257,-0.419556,-0.046936,-2.0,0.0,0.0,5888.0,1599.0,5076.0,-245.0,-28.0,-103.0,-79.0,23.0,-254.0,0.748728,0.198628,0.632281,12042.0,3094.0,10034.0,-33.0,1.0,2.0
2887.0,2830.0,2896.0,3151.0,3056.0,0.902405,0.088074,-0.419189,-0.047119,-2.0,2.0,-2.0,5920.0,1569.0,5014.0,-209.0,-56.0,-172.0,-3.0,-1.0,-276.0,0.748257,0.19846,0.633078,11718.0,3100.0,9694.0,-24.0,66.0,-24.0
2887.0,2832.0,2898.0,3151.0,3051.0,0.902527,0.088013,-0.418884,-0.047302,-2.0,2.0,-2.0,5909.0,1552.0,4979.0,-216.0,-74.0,-211.0,21.0,-12.0,-309.0,0.747782,0.198496,0.633582,11820.0,3014.0,9858.0,-27.0,59.0,-27.0
2887.0,2831.0,2895.0,3147.0,3047.0,0.902771,0.087891,-0.418274,-0.047546,-1.0,3.0,-1.0,5906.0,1496.0,4941.0,-212.0,-129.0,-257.0,57.0,-62.0,-347.0,0.746853,0.198465,0.634578,11700.0,2736.0,9832.0,-7.0,77.0,-21.0
2891.0,2831.0,2895.0,3153.0,3051.0,0.902954,0.087952,-0.417969,-0.047424,1.0,2.0,0.0,5844.0,1470.0,4932.0,-271.0,-155.0,-271.0,29.0,-76.0,-405.0,0.746471,0.198476,0.635142,11288.0,2866.0,9830.0,26.0,57.0,5.0
2890.0,2831.0,2895.0,3151.0,3045.0,0.903015,0.088196,-0.417847,-0.046936,1.0,-1.0,1.0,5791.0,1549.0,5012.0,-323.0,-77.0,-192.0,-63.0,-1.0,-378.0,0.746365,0.198508,0.635265,11728.0,3514.0,10314.0,42.0,-21.0,45.0
2883.0,2830.0,2895.0,3147.0,3051.0,0.902954,0.088318,-0.417908,-0.046692,0.0,-1.0,2.0,5848.0,1623.0,5060.0,-266.0,-3.0,-142.0,-63.0,56.0,-289.0,0.746455,0.19852,0.635059,12104.0,3684.0,10428.0,18.0,-16.0,46.0
2887.0,2829.0,2896.0,3143.0,3051.0,0.903137,0.088196,-0.417664,-0.046448,-2.0,2.0,1.0,5948.0,1685.0,5116.0,-165.0,62.0,-90.0,-37.0,97.0,-168.0,0.746222,0.198105,0.635593,11990.0,3348.0,10254.0,-25.0,56.0,28.0
2887.0,2831.0,2896.0,3151.0,3055.0,0.903259,0.088074,-0.417297,-0.046387,-2.0,2.0,0.0,5935.0,1670.0,5105.0,-173.0,49.0,-106.0,-30.0,88.0,-186.0,0.745685,0.197821,0.636135,11796.0,3206.0,10182.0,-31.0,64.0,22.0
2889.0,2832.0,2899.0,3151.0,3047.0,0.903503,0.08783,-0.41687,-0.046387,-1.0,1.0,0.0,5905.0,1595.0,5033.0,-199.0,-21.0,-185.0,11.0,32.0,-270.0,0.745139,0.197383,0.636975,11878.0,2932.0,9872.0,-20.0,35.0,6.0
2891.0,2825.0,2899.0,3151.0,3051.0,0.903564,0.087708,-0.416748,-0.046326,-1.0,1.0,0.0,5927.0,1565.0,4998.0,-175.0,-49.0,-221.0,54.0,5.0,-280.0,0.744991,0.197111,0.637203,11998.0,2972.0,9796.0,-16.0,32.0,6.0
2883.0,2823.0,2897.0,3149.0,3051.0,0.903687,0.087463,-0.416565,-0.046265,-1.0,2.0,-1.0,5977.0,1492.0,4959.0,-124.0,-118.0,-264.0,119.0,-64.0,-283.0,0.744795,0.196623,0.637614,12114.0,2732.0,9852.0,-5.0,46.0,-1.0
2886.0,2833.0,2897.0,3153.0,3055.0,0.903809,0.087463,-0.416382,-0.046204,0.0,2.0,0.0,5988.0,1472.0,4940.0,-111.0,-138.0,-286.0,144.0,-83.0,-292.0,0.744577,0.196577,0.637981,12002.0,2864.0,9782.0,5.0,66.0,0.0
2890.0,2831.0,2898.0,3151.0,3055.0,0.904053,0.087402,-0.415771,-0.046143,-2.0,3.0,-1.0,5972.0,1527.0,4975.0,-120.0,-81.0,-259.0,117.0,-29.0,-270.0,0.743693,0.196402,0.638935,11886.0,3312.0,10104.0,-25.0,76.0,-1.0
2879.0,2833.0,2896.0,3143.0,3047.0,0.904236,0.087219,-0.415405,-0.046204,-3.0,3.0,-1.0,5949.0,1564.0,4995.0,-139.0,-42.0,-244.0,94.0,9.0,-267.0,0.743189,0.19612,0.639609,11728.0,3354.0,10088.0,-55.0,78.0,-5.0
2886.0,2831.0,2898.0,3151.0,3047.0,0.904663,0.08667,-0.414551,-0.04657,-4.0,3.0,0.0,5897.0,1605.0,5061.0,-181.0,4.0,-191.0,26.0,54.0,-255.0,0.741985,0.195425,0.64122,11550.0,3284.0,10372.0,-80.0,82.0,3.0
2887.0,2832.0,2899.0,3151.0,3047.0,0.904907,0.086304,-0.414124,-0.046692,-4.0,2.0,0.0,5828.0,1612.0,5119.0,-245.0,15.0,-141.0,-52.0,69.0,-269.0,0.741427,0.194866,0.642091,11206.0,3258.0,10606.0,-72.0,66.0,16.0
2887.0,2833.0,2896.0,3153.0,3055.0,0.905212,0.085754,-0.413574,-0.04657,-2.0,0.0,2.0,5756.0,1645.0,5240.0,-312.0,57.0,-28.0,-181.0,107.0,-238.0,0.740758,0.193772,0.643181,11508.0,3476.0,10862.0,-40.0,1.0,47.0
2887.0,2833.0,2897.0,3151.0,3051.0,0.905273,0.085571,-0.413452,-0.046448,-2.0,0.0,2.0,5779.0,1671.0,5296.0,-288.0,87.0,25.0,-206.0,127.0,-180.0,0.740625,0.193339,0.643412,11692.0,3490.0,10908.0,-24.0,8.0,47.0
2887.0,2831.0,2896.0,3151.0,3049.0,0.905518,0.085449,-0.413025,-0.046143,0.0,0.0,1.0,5754.0,1692.0,5340.0,-309.0,112.0,62.0,-247.0,150.0,-167.0,0.740117,0.192868,0.6442,11342.0,3408.0,10698.0,5.0,21.0,41.0
2890.0,2832.0,2899.0,3157.0,3047.0,0.905579,0.08551,-0.412842,-0.045959,0.0,0.0,2.0,5730.0,1713.0,5344.0,-330.0,133.0,64.0,-262.0,173.0,-177.0,0.739861,0.19282,0.644435,11306.0,3566.0,10710.0,13.0,4.0,46.0
2887.0,2832.0,2898.0,3153.0,3054.0,0.905579,0.085388,-0.412964,-0.045715,-2.0,-3.0,2.0,5697.0,1739.0,5329.0,-366.0,162.0,50.0,-275.0,209.0,-207.0,0.740135,0.192409,0.644332,11394.0,3366.0,10560.0,-35.0,-65.0,58.0
2887.0,2829.0,2895.0,3147.0,3055.0,0.905457,0.085022,-0.413269,-0.045593,-2.0,-4.0,2.0,5731.0,1685.0,5307.0,-336.0,114.0,32.0,-242.0,159.0,-206.0,0.740641,0.191652,0.64391,11734.0,3008.0,10480.0,-44.0,-88.0,60.0
2886.0,2831.0,2898.0,3147.0,3051.0,0.905212,0.084534,-0.41394,-0.045288,-1.0,-3.0,1.0,5824.0,1570.0,5243.0,-252.0,9.0,-24.0,-146.0,49.0,-200.0,0.741751,0.190535,0.642968,11772.0,2844.0,10242.0,-5.0,-49.0,34.0
2885.0,2832.0,2896.0,3151.0,3055.0,0.905151,0.084473,-0.414185,-0.045105,0.0,-3.0,1.0,5830.0,1520.0,5200.0,-249.0,-38.0,-64.0,-114.0,7.0,-233.0,0.742179,0.190285,0.642649,11710.0,2750.0,10160.0,12.0,-46.0,29.0
2887.0,2831.0,2868.0,3151.0,3051.0,0.904907,0.084534,-0.414673,-0.044739,1.0,-3.0,0.0,5856.0,1473.0,5143.0,-229.0,-84.0,-114.0,-63.0,-34.0,-259.0,0.742917,0.190094,0.641759,11834.0,3006.0,10218.0,40.0,-46.0,21.0
2887.0,2831.0,2898.0,3151.0,3050.0,0.904846,0.084656,-0.414856,-0.044617,1.0,-2.0,0.0,5876.0,1493.0,5129.0,-212.0,-65.0,-125.0,-44.0,-17.0,-250.0,0.743208,0.19022,0.641465,11840.0,3086.0,10184.0,32.0,-26.0,11.0
2883.0,2799.0,2890.0,3142.0,3043.0,0.906372,0.077087,-0.413269,-0.041687,-2.0,0.0,0.0,5844.0,1450.0,5105.0,-240.0,22.0,-191.0,-12.0,75.0,-297.0,0.742724,0.174196,0.646514,11618.0,2912.0,10252.0,-33.0,7.0,9.0
2889.0,2823.0,2895.0,3147.0,3045.0,0.906372,0.076782,-0.413269,-0.041748,-2.0,-1.0,0.0,5838.0,1405.0,5103.0,-246.0,-17.0,-193.0,-15.0,37.0,-310.0,0.74274,0.173693,0.646566,11824.0,2656.0,10222.0,-28.0,-8.0,13.0
2891.0,2833.0,2899.0,3152.0,3055.0,0.906433,0.07666,-0.413269,-0.041687,-1.0,0.0,0.0,5865.0,1396.0,5108.0,-220.0,-24.0,-189.0,-1.0,26.0,-289.0,0.74281,0.173431,0.646691,11894.0,2760.0,10250.0,-16.0,10.0,10.0
2889.0,2831.0,2899.0,3151.0,3055.0,0.906555,0.076599,-0.412964,-0.041687,-1.0,1.0,0.0,5858.0,1395.0,5115.0,-223.0,-24.0,-186.0,-6.0,26.0,-290.0,0.742363,0.173313,0.647174,11566.0,2808.0,10264.0,-2.0,35.0,2.0
2883.0,2823.0,2890.0,3143.0,3047.0,0.906616,0.076599,-0.412842,-0.041626,-1.0,0.0,0.0,5834.0,1391.0,5109.0,-246.0,-28.0,-194.0,-15.0,26.0,-313.0,0.742201,0.173262,0.64738,11540.0,2768.0,10170.0,0.0,20.0,5.0
2885.0,2821.0,2893.0,3146.0,3047.0,0.906677,0.076599,-0.41272,-0.041565,0.0,0.0,0.0,5861.0,1399.0,5135.0,-217.0,-19.0,-170.0,-14.0,29.0,-274.0,0.74204,0.173211,0.647586,11864.0,2846.0,10356.0,3.0,14.0,9.0
2885.0,2833.0,2903.0,3153.0,3047.0,0.906677,0.076599,-0.412598,-0.041504,0.0,1.0,0.0,5876.0,1400.0,5148.0,-201.0,-18.0,-157.0,-13.0,26.0,-253.0,0.741827,0.17315,0.647682,11854.0,2796.0,10386.0,4.0,23.0,4.0
2891.0,2832.0,2900.0,3151.0,3051.0,0.90686,0.076721,-0.412354,-0.041504,0.0,1.0,0.0,5877.0,1408.0,5166.0,-197.0,-12.0,-144.0,-20.0,30.0,-241.0,0.741526,0.173379,0.648197,11708.0,2784.0,10382.0,3.0,29.0,0.0
2887.0,2825.0,2895.0,3149.0,3039.0,0.906921,0.076721,-0.41217,-0.041443,0.0,1.0,0.0,5869.0,1406.0,5170.0,-203.0,-13.0,-142.0,-26.0,30.0,-244.0,0.741253,0.173323,0.648453,11694.0,2822.0,10360.0,11.0,28.0,4.0
2887.0,2823.0,2893.0,3143.0,3047.0,0.907043,0.076843,-0.411926,-0.041321,0.0,1.0,0.0,5895.0,1430.0,5171.0,-174.0,9.0,-144.0,-5.0,48.0,-220.0,0.74092,0.173443,0.648847,11950.0,2924.0,10340.0,8.0,36.0,10.0
2887.0,2834.0,2896.0,3151.0,3055.0,0.907104,0.076904,-0.411682,-0.04126,0.0,2.0,0.0,5919.0,1434.0,5163.0,-147.0,12.0,-154.0,19.0,48.0,-206.0,0.740531,0.173492,0.649144,11962.0,2884.0,10254.0,5.0,58.0,9.0
2887.0,2832.0,2901.0,3151.0,3055.0,0.907471,0.077087,-0.41095,-0.040955,0.0,3.0,1.0,5868.0,1458.0,5131.0,-190.0,36.0,-196.0,22.0,82.0,-261.0,0.739535,0.17357,0.650358,11354.0,3052.0,10024.0,18.0,80.0,26.0
2883.0,2821.0,2893.0,3143.0,3035.0,0.907593,0.077148,-0.410645,-0.040833,0.0,2.0,1.0,5843.0,1472.0,5132.0,-211.0,50.0,-199.0,10.0,99.0,-276.0,0.739096,0.173574,0.650811,11552.0,3028.0,10246.0,8.0,60.0,25.0
2887.0,2819.0,2891.0,3143.0,3047.0,0.907837,0.077209,-0.410156,-0.040527,0.0,2.0,1.0,5840.0,1470.0,5136.0,-209.0,49.0,-202.0,14.0,98.0,-277.0,0.738452,0.173432,0.651621,11708.0,2876.0,10290.0,2.0,58.0,33.0
2891.0,2834.0,2899.0,3151.0,3054.0,0.907959,0.077209,-0.409851,-0.040344,0.0,2.0,1.0,5842.0,1468.0,5145.0,-203.0,48.0,-196.0,13.0,95.0,-269.0,0.738026,0.173276,0.652078,11648.0,2912.0,10288.0,2.0,65.0,31.0
2891.0,2835.0,2896.0,3151.0,3053.0,0.908264,0.077026,-0.409302,-0.040039,-1.0,3.0,1.0,5890.0,1429.0,5148.0,-150.0,14.0,-202.0,52.0,55.0,-240.0,0.73734,0.172697,0.653086,12040.0,2676.0,10322.0,-12.0,69.0,28.0
2883.0,2826.0,2894.0,3141.0,3039.0,0.908447,0.076965,-0.408875,-0.039856,0.0,4.0,0.0,5925.0,1397.0,5150.0,-110.0,-15.0,-205.0,80.0,22.0,-217.0,0.736747,0.17243,0.653763,12008.0,2580.0,10302.0,2.0,100.0,20.0
2885.0,2823.0,2891.0,3147.0,3045.0,0.908936,0.077209,-0.407776,-0.039368,2.0,6.0,1.0,5942.0,1345.0,5125.0,-80.0,-67.0,-244.0,128.0,-28.0,-230.0,0.735205,0.172463,0.655471,11626.0,2640.0,10032.0,61.0,156.0,23.0
2886.0,2832.0,2896.0,3151.0,3054.0,0.90918,0.077515,-0.407166,-0.039062,3.0,6.0,1.0,5917.0,1352.0,5146.0,-98.0,-63.0,-230.0,105.0,-23.0,-233.0,0.734317,0.172759,0.656341,11734.0,2790.0,10560.0,73.0,141.0,28.0
2887.0,2831.0,2897.0,3151.0,3051.0,0.90979,0.078125,-0.405884,-0.038391,1.0,6.0,1.0,5910.0,1420.0,5208.0,-90.0,0.0,-185.0,77.0,32.0,-187.0,0.732539,0.173319,0.658347,11836.0,3052.0,10692.0,44.0,138.0,30.0
2885.0,2827.0,2895.0,3149.0,3043.0,0.910034,0.078247,-0.405212,-0.038208,0.0,5.0,1.0,5892.0,1460.0,5259.0,-100.0,39.0,-142.0,38.0,67.0,-160.0,0.731535,0.17338,0.659302,11786.0,3094.0,10830.0,4.0,125.0,34.0
2887.0,2825.0,2886.0,3143.0,3045.0,0.910583,0.07782,-0.404175,-0.037964,-3.0,3.0,1.0,5850.0,1487.0,5297.0,-131.0,74.0,-119.0,0.0,103.0,-161.0,0.730161,0.172411,0.66119,11644.0,2934.0,10680.0,-66.0,82.0,44.0
2891.0,2833.0,2897.0,3152.0,3055.0,0.910767,0.077393,-0.403809,-0.037903,-4.0,2.0,2.0,5853.0,1461.0,5325.0,-124.0,55.0,-97.0,-10.0,81.0,-145.0,0.729684,0.171584,0.661881,11764.0,2722.0,10858.0,-82.0,61.0,49.0
2894.0,2833.0,2899.0,3147.0,3053.0,0.911072,0.076477,-0.40332,-0.037598,-3.0,1.0,2.0,5831.0,1370.0,5367.0,-142.0,-20.0,-63.0,-48.0,5.0,-148.0,0.729157,0.16968,0.662949,11568.0,2520.0,10954.0,-46.0,30.0,51.0
2890.0,2827.0,2893.0,3151.0,3047.0,0.911133,0.076233,-0.403259,-0.037415,-1.0,0.0,2.0,5807.0,1346.0,5387.0,-166.0,-39.0,-45.0,-78.0,-12.0,-157.0,0.729141,0.169092,0.663133,11514.0,2610.0,10976.0,-20.0,4.0,51.0
2887.0,2821.0,2887.0,3145.0,3047.0,0.911133,0.075928,-0.403259,-0.036926,0.0,-2.0,2.0,5764.0,1362.0,5433.0,-209.0,-15.0,0.0,-140.0,12.0,-154.0,0.729238,0.168142,0.663144,11378.0,2820.0,10932.0,2.0,-33.0,54.0
2887.0,2833.0,2899.0,3152.0,3053.0,0.911072,0.075867,-0.403442,-0.036743,-1.0,-3.0,2.0,5742.0,1374.0,5433.0,-234.0,-1.0,2.0,-158.0,28.0,-169.0,0.729555,0.167888,0.66288,11368.0,2838.0,10864.0,0.0,-58.0,54.0
2891.0,2833.0,2899.0,3151.0,3055.0,0.910828,0.075562,-0.404175,-0.036316,-1.0,-5.0,2.0,5729.0,1381.0,5389.0,-257.0,12.0,-32.0,-148.0,47.0,-206.0,0.730779,0.167003,0.661859,11450.0,2728.0,10550.0,-10.0,-100.0,54.0
2887.0,2823.0,2894.0,3143.0,3043.0,0.910583,0.075378,-0.404724,-0.036133,-1.0,-6.0,2.0,5719.0,1362.0,5340.0,-274.0,-2.0,-74.0,-128.0,40.0,-249.0,0.731623,0.166524,0.660984,11376.0,2588.0,10372.0,-7.0,-118.0,58.0
2887.0,2827.0,2894.0,3151.0,3043.0,0.909973,0.075134,-0.406128,-0.035645,0.0,-7.0,2.0,5726.0,1322.0,5220.0,-285.0,-35.0,-176.0,-59.0,20.0,-330.0,0.733775,0.165693,0.658737,11502.0,2548.0,10052.0,18.0,-150.0,63.0
2894.0,2835.0,2895.0,3151.0,3057.0,0.909607,0.075134,-0.406982,-0.035278,1.0,-7.0,2.0,5733.0,1309.0,5151.0,-288.0,-45.0,-234.0,-17.0,16.0,-372.0,0.735087,0.165401,0.657349,11502.0,2546.0,9890.0,29.0,-160.0,68.0
2893.0,2835.0,2903.0,3151.0,3055.0,0.908813,0.075073,-0.408936,-0.034546,1.0,-9.0,3.0,5765.0,1303.0,5060.0,-281.0,-46.0,-299.0,37.0,21.0,-410.0,0.738105,0.164709,0.654271,11640.0,2588.0,9948.0,33.0,-185.0,78.0
2883.0,2823.0,2895.0,3155.0,3039.0,0.908386,0.075012,-0.409912,-0.03418,1.0,-9.0,3.0,5787.0,1303.0,5042.0,-271.0,-42.0,-304.0,48.0,24.0,-405.0,0.739589,0.164301,0.652679,11720.0,2622.0,9952.0,30.0,-189.0,83.0
2892.0,2827.0,2895.0,3151.0,3047.0,0.907532,0.07489,-0.411865,-0.033508,1.0,-8.0,2.0,5858.0,1307.0,4999.0,-224.0,-32.0,-321.0,94.0,30.0,-380.0,0.742543,0.163532,0.649495,11952.0,2568.0,9852.0,24.0,-164.0,65.0
2887.0,2832.0,2901.0,3153.0,3046.0,0.907166,0.07489,-0.41272,-0.033203,1.0,-7.0,2.0,5889.0,1299.0,4968.0,-204.0,-38.0,-341.0,123.0,24.0,-378.0,0.743837,0.163283,0.648106,11956.0,2546.0,9722.0,32.0,-142.0,48.0
2893.0,2833.0,2896.0,3151.0,3055.0,0.906433,0.075134,-0.414246,-0.032715,2.0,-6.0,1.0,5930.0,1270.0,4903.0,-181.0,-67.0,-384.0,171.0,-2.0,-393.0,0.746056,0.163312,0.645447,11926.0,2498.0,9632.0,61.0,-123.0,39.0
2887.0,2823.0,2892.0,3147.0,3045.0,0.906128,0.075317,-0.414978,-0.032349,2.0,-6.0,1.0,5937.0,1268.0,4885.0,-183.0,-70.0,-392.0,177.0,-3.0,-400.0,0.747174,0.163342,0.644235,11894.0,2526.0,9668.0,67.0,-125.0,44.0
2891.0,2827.0,2895.0,3143.0,3047.0,0.905396,0.075806,-0.416443,-0.031738,3.0,-6.0,1.0,5955.0,1274.0,4873.0,-183.0,-67.0,-382.0,171.0,-1.0,-393.0,0.749279,0.163703,0.641577,11992.0,2532.0,9694.0,72.0,-130.0,43.0
2887.0,2832.0,2897.0,3149.0,3055.0,0.90509,0.07605,-0.417175,-0.031433,3.0,-6.0,1.0,5974.0,1268.0,4858.0,-173.0,-74.0,-387.0,182.0,-9.0,-389.0,0.750382,0.16389,0.640358,12078.0,2516.0,9624.0,78.0,-126.0,34.0
2890.0,2831.0,2903.0,3150.0,3047.0,0.904419,0.076721,-0.418518,-0.030823,4.0,-5.0,1.0,5993.0,1296.0,4847.0,-169.0,-52.0,-378.0,178.0,11.0,-376.0,0.752302,0.164576,0.63788,11994.0,2730.0,9700.0,92.0,-105.0,23.0
2887.0,2831.0,2894.0,3149.0,3043.0,0.904114,0.077148,-0.419067,-0.030579,3.0,-4.0,1.0,5986.0,1330.0,4863.0,-182.0,-22.0,-353.0,151.0,40.0,-365.0,0.753051,0.165131,0.636787,11894.0,2900.0,9842.0,89.0,-91.0,24.0
2883.0,2830.0,2898.0,3147.0,3045.0,0.903748,0.077881,-0.4198,-0.030212,2.0,-3.0,1.0,5943.0,1418.0,4929.0,-234.0,57.0,-275.0,58.0,116.0,-341.0,0.75408,0.166136,0.635375,11670.0,2962.0,10018.0,54.0,-56.0,24.0
2887.0,2832.0,2899.0,3151.0,3051.0,0.903625,0.078064,-0.420044,-0.029968,1.0,-3.0,1.0,5883.0,1425.0,4951.0,-297.0,63.0,-250.0,-1.0,126.0,-372.0,0.754446,0.166257,0.634906,11338.0,2872.0,10000.0,44.0,-58.0,37.0
2895.0,2832.0,2897.0,3143.0,3051.0,0.903259,0.078247,-0.420898,-0.029419,1.0,-6.0,3.0,5720.0,1396.0,4937.0,-471.0,35.0,-252.0,-110.0,119.0,-509.0,0.755757,0.16612,0.633465,11032.0,2630.0,9778.0,38.0,-137.0,69.0
2887.0,2827.0,2895.0,3147.0,3047.0,0.902893,0.078308,-0.421692,-0.029053,1.0,-8.0,3.0,5693.0,1363.0,4909.0,-507.0,3.0,-269.0,-119.0,94.0,-553.0,0.756935,0.16591,0.632104,11304.0,2502.0,9642.0,44.0,-179.0,82.0
2887.0,2827.0,2899.0,3147.0,3041.0,0.901978,0.078369,-0.423584,-0.028137,2.0,-9.0,3.0,5734.0,1273.0,4823.0,-489.0,-80.0,-328.0,-59.0,16.0,-590.0,0.759716,0.165211,0.62879,11638.0,2302.0,9350.0,63.0,-188.0,79.0
2889.0,2832.0,2899.0,3147.0,3055.0,0.90155,0.07843,-0.424561,-0.02771,2.0,-8.0,3.0,5773.0,1230.0,4768.0,-462.0,-121.0,-369.0,-8.0,-21.0,-603.0,0.761179,0.164947,0.627158,11808.0,2216.0,9166.0,65.0,-166.0,71.0
2891.0,2832.0,2896.0,3147.0,3051.0,0.90094,0.078674,-0.425903,-0.026917,2.0,-3.0,1.0,5897.0,1131.0,4624.0,-355.0,-218.0,-494.0,159.0,-115.0,-615.0,0.763191,0.164689,0.624834,12236.0,1930.0,8742.0,65.0,-64.0,28.0
2887.0,2832.0,2897.0,3147.0,3039.0,0.900757,0.078857,-0.426147,-0.026672,2.0,1.0,-1.0,5963.0,1077.0,4529.0,-291.0,-273.0,-584.0,271.0,-165.0,-631.0,0.763504,0.164795,0.624254,12280.0,1840.0,8456.0,62.0,23.0,-7.0
2891.0,2829.0,2896.0,3151.0,3051.0,0.901123,0.079224,-0.425415,-0.026733,0.0,8.0,-4.0,5918.0,985.0,4274.0,-328.0,-370.0,-849.0,452.0,-225.0,-842.0,0.762467,0.165526,0.625483,11316.0,1608.0,7678.0,13.0,189.0,-72.0
2887.0,2829.0,2901.0,3151.0,3051.0,0.901489,0.079285,-0.424622,-0.027039,-1.0,9.0,-5.0,5775.0,901.0,4120.0,-461.0,-458.0,-1014.0,495.0,-276.0,-1062.0,0.761296,0.165911,0.626824,10646.0,1230.0,7292.0,-15.0,219.0,-112.0
2887.0,2835.0,2899.0,3152.0,3055.0,0.902344,0.079651,-0.422607,-0.028259,0.0,13.0,-10.0,5592.0,641.0,3777.0,-618.0,-732.0,-1384.0,677.0,-482.0,-1463.0,0.758173,0.16763,0.630082,10996.0,496.0,6498.0,20.0,304.0,-229.0
2885.0,2830.0,2895.0,3150.0,3047.0,0.903015,0.080322,-0.421021,-0.029114,2.0,19.0,-14.0,5628.0,544.0,3610.0,-562.0,-845.0,-1572.0,853.0,-575.0,-1562.0,0.755699,0.169579,0.632574,11610.0,622.0,6196.0,65.0,449.0,-299.0
2885.0,2829.0,2879.0,3149.0,3046.0,0.90564,0.082581,-0.414673,-0.031433,4.0,44.0,-21.0,5953.0,456.0,3235.0,-157.0,-982.0,-2027.0,1441.0,-696.0,-1591.0,0.745897,0.175645,0.642398,13130.0,790.0,5166.0,103.0,1030.0,-460.0
2887.0,2832.0,2901.0,3150.0,3053.0,0.90802,0.084229,-0.408997,-0.03302,4.0,65.0,-26.0,6299.0,469.0,3082.0,259.0,-1005.0,-2252.0,1865.0,-738.0,-1456.0,0.737192,0.179972,0.651218,14802.0,1142.0,5432.0,97.0,1496.0,-577.0
2887.0,2831.0,2892.0,3151.0,3051.0,0.91687,0.08905,-0.387146,-0.038147,4.0,139.0,-48.0,7388.0,433.0,2892.0,1627.0,-1146.0,-2713.0,3077.0,-987.0,-933.0,0.703131,0.192832,0.684294,18800.0,518.0,5514.0,105.0,3190.0,-1090.0
2887.0,2831.0,2895.0,3151.0,3051.0,0.924011,0.092957,-0.368408,-0.041931,8.0,195.0,-64.0,8202.0,349.0,2791.0,2688.0,-1311.0,-3035.0,4026.0,-1248.0,-615.0,0.673031,0.202681,0.711189,21586.0,168.0,4984.0,206.0,4485.0,-1456.0
2887.0,2829.0,2895.0,3147.0,3039.0,0.944031,0.105103,-0.308228,-0.05249,12.0,334.0,-101.0,9270.0,454.0,2321.0,4593.0,-1436.0,-4133.0,6096.0,-1462.0,-965.0,0.570919,0.230798,0.787899,19302.0,2482.0,2398.0,286.0,7665.0,-2300.0
2891.0,2827.0,2897.0,3151.0,3043.0,0.966736,0.117859,-0.215515,-0.070984,-27.0,445.0,-143.0,8212.0,1234.0,1255.0,4935.0,-883.0,-5948.0,6928.0,-604.0,-3484.0,0.39996,0.258473,0.879279,10930.0,4856.0,-1144.0,-611.0,10202.0,-3263.0
2891.0,2831.0,2893.0,3153.0,3051.0,0.976379,0.120422,-0.159424,-0.082336,-61.0,475.0,-143.0,6803.0,1643.0,711.0,4415.0,-498.0,-6827.0,6330.0,69.0,-5125.0,0.291486,0.261409,0.920179,3882.0,5898.0,-1648.0,-1380.0,10901.0,-3275.0
2891.0,2832.0,2909.0,3153.0,3055.0,0.988159,0.109924,-0.043762,-0.097168,-147.0,410.0,-73.0,901.0,2954.0,393.0,367.0,1104.0,-7568.0,1376.0,2562.0,-7082.0,0.065126,0.22575,0.971902,-19524.0,8458.0,1638.0,-3361.0,9410.0,-1654.0
2885.0,2832.0,2897.0,3151.0,3053.0,-1.21228,0.791809,1.871338,1.422974,-4940.0,-11746.0,15288.0,15499.0,17484.0,-4022.0,25407.0,-10417.0,1174.0,-25569.0,-28021.0,5232.0,6.790619,3.40594,-0.63439,-21878.0,-5270.0,14046.0,-3188.0,5434.0,-865.0
2887.0,2831.0,2896.0,3154.0,3046.0,0.98938,0.069946,0.073242,-0.104065,-89.0,172.0,-32.0,-6069.0,152.0,4121.0,-4762.0,-856.0,-3902.0,-5301.0,702.0,-3167.0,-0.159487,0.123163,0.979445,-18554.0,-6298.0,18160.0,-2032.0,3954.0,-730.0
2883.0,2829.0,2898.0,3147.0,3045.0,0.986023,0.061401,0.111328,-0.107605,-15.0,113.0,-19.0,-6651.0,-427.0,7549.0,-4744.0,-1222.0,-378.0,-4870.0,-187.0,619.0,-0.232758,0.097127,0.967656,-14720.0,166.0,24312.0,-330.0,2590.0,-422.0
2887.0,2831.0,2895.0,3151.0,3043.0,0.982666,0.062134,0.136719,-0.108582,-5.0,64.0,-6.0,-7892.0,368.0,10097.0,-5580.0,-389.0,2274.0,-4748.0,373.0,3710.0,-0.282191,0.092423,0.95487,-21028.0,3290.0,26816.0,-94.0,1469.0,-116.0
2889.0,2833.0,2897.0,3147.0,3051.0,0.981628,0.062317,0.143799,-0.108643,-6.0,22.0,-3.0,-8714.0,678.0,11183.0,-6290.0,-68.0,3393.0,-4984.0,641.0,5080.0,-0.295855,0.091099,0.950836,-22004.0,2956.0,28784.0,-121.0,514.0,-48.0
2887.0,2831.0,2899.0,3151.0,3047.0,0.982056,0.06134,0.141174,-0.108887,2.0,-67.0,4.0,-9300.0,735.0,12786.0,-6919.0,0.0,4982.0,-5164.0,606.0,6756.0,-0.29064,0.089735,0.952597,-18214.0,902.0,29418.0,52.0,-1518.0,111.0
2887.0,2829.0,2896.0,3149.0,3047.0,0.983337,0.061096,0.131775,-0.108948,12.0,-101.0,8.0,-8807.0,549.0,13294.0,-6574.0,-200.0,5448.0,-4895.0,297.0,6990.0,-0.272471,0.091443,0.957725,-13840.0,-192.0,29346.0,295.0,-2300.0,201.0
2882.0,2831.0,2901.0,3153.0,3047.0,0.986511,0.064514,0.103638,-0.108948,41.0,-128.0,14.0,-6895.0,310.0,13524.0,-5104.0,-547.0,5576.0,-3936.0,-336.0,6467.0,-0.218537,0.104706,0.970171,-7604.0,780.0,26890.0,956.0,-2928.0,342.0
2887.0,2829.0,2896.0,3147.0,3047.0,0.989014,0.072754,0.070068,-0.107361,49.0,-141.0,23.0,-5212.0,868.0,13101.0,-3948.0,-187.0,5077.0,-3235.0,-189.0,5557.0,-0.154219,0.128864,0.979472,-6630.0,3992.0,24042.0,1141.0,-3212.0,538.0
2887.0,2832.0,2902.0,3151.0,3055.0,0.98999,0.076965,0.051819,-0.106079,45.0,-155.0,25.0,-4810.0,1272.0,12626.0,-3835.0,113.0,4575.0,-3308.0,136.0,4968.0,-0.118929,0.141396,0.982725,-7630.0,4944.0,22320.0,1034.0,-3532.0,585.0
2885.0,2834.0,2899.0,3147.0,3055.0,0.99115,0.082581,0.007812,-0.103516,33.0,-216.0,30.0,-4734.0,1758.0,11400.0,-4467.0,430.0,3320.0,-4287.0,776.0,3489.0,-0.032583,0.162082,0.986213,-9822.0,4018.0,18606.0,771.0,-4926.0,696.0
2887.0,2832.0,2896.0,3151.0,3047.0,0.989868,0.084778,-0.05426,-0.099854,41.0,-293.0,42.0,-4016.0,1286.0,9808.0,-4757.0,-177.0,1782.0,-4888.0,533.0,1283.0,0.09049,0.178674,0.979678,-3644.0,526.0,15068.0,951.0,-6709.0,978.0
2885.0,2829.0,2895.0,3150.0,3045.0,0.987305,0.086365,-0.091125,-0.097229,53.0,-307.0,45.0,-2907.0,998.0,9094.0,-4243.0,-544.0,1160.0,-4416.0,178.0,328.0,0.163143,0.188257,0.968461,1552.0,416.0,14052.0,1221.0,-7016.0,1041.0
2884.0,2827.0,2895.0,3152.0,3047.0,0.977905,0.093018,-0.164001,-0.090271,70.0,-270.0,45.0,214.0,970.0,8068.0,-2276.0,-762.0,458.0,-2382.0,-334.0,-427.0,0.303962,0.211534,0.928899,9600.0,2866.0,12874.0,1610.0,-6169.0,1048.0
2890.0,2831.0,2906.0,3151.0,3055.0,0.971985,0.097656,-0.19574,-0.085999,68.0,-239.0,45.0,1407.0,1272.0,7414.0,-1572.0,-558.0,5.0,-1502.0,-216.0,-691.0,0.363716,0.223507,0.9043,9272.0,4542.0,10804.0,1580.0,-5470.0,1049.0
2887.0,2832.0,2896.0,3151.0,3051.0,0.959045,0.105103,-0.25116,-0.077454,46.0,-217.0,47.0,2095.0,1944.0,5823.0,-1718.0,-26.0,-1153.0,-908.0,508.0,-1787.0,0.465466,0.240503,0.851639,4178.0,5490.0,6716.0,1075.0,-4959.0,1082.0
2885.0,2833.0,2895.0,3151.0,3053.0,0.943176,0.10614,-0.306885,-0.069824,23.0,-244.0,55.0,1799.0,1930.0,3919.0,-2821.0,-61.0,-2544.0,-755.0,896.0,-3613.0,0.564071,0.243074,0.789013,2888.0,2758.0,1830.0,529.0,-5585.0,1277.0
2889.0,2827.0,2897.0,3153.0,3043.0,0.933167,0.103943,-0.337769,-0.065308,16.0,-262.0,64.0,2054.0,1640.0,3041.0,-2998.0,-310.0,-3104.0,-305.0,740.0,-4251.0,0.616812,0.23811,0.750173,6654.0,1502.0,1188.0,381.0,-5979.0,1468.0
2881.0,2825.0,2897.0,3149.0,3045.0,0.9104,0.097351,-0.398254,-0.055115,12.0,-225.0,61.0,4401.0,1270.0,2223.0,-1451.0,-541.0,-3214.0,1370.0,159.0,-3289.0,0.714411,0.221156,0.663783,16682.0,1552.0,1366.0,290.0,-5132.0,1399.0
2891.0,2832.0,2901.0,3151.0,3055.0,0.900024,0.09436,-0.422546,-0.050232,11.0,-180.0,53.0,5787.0,1001.0,1694.0,-366.0,-738.0,-3426.0,2396.0,-222.0,-2573.0,0.751124,0.212304,0.625118,20048.0,194.0,588.0,268.0,-4123.0,1216.0
2885.0,2832.0,2897.0,3147.0,3047.0,0.885376,0.090149,-0.454224,-0.040894,12.0,-80.0,36.0,7415.0,529.0,438.0,886.0,-1083.0,-4240.0,3969.0,-679.0,-1928.0,0.796944,0.196781,0.571117,17810.0,64.0,-2902.0,279.0,-1821.0,839.0
2886.0,2831.0,2895.0,3151.0,3043.0,0.881409,0.089111,-0.462341,-0.037292,9.0,-37.0,25.0,7775.0,428.0,-90.0,1152.0,-1141.0,-4649.0,4495.0,-720.0,-1874.0,0.808377,0.191571,0.556572,17504.0,288.0,-3212.0,218.0,-837.0,580.0
2886.0,2831.0,2891.0,3149.0,3047.0,0.88092,0.088806,-0.463623,-0.033813,-1.0,59.0,-5.0,8796.0,475.0,-716.0,2153.0,-1063.0,-5257.0,5572.0,-691.0,-1368.0,0.810824,0.187816,0.554331,21590.0,1780.0,-2564.0,-9.0,1372.0,-105.0
2887.0,2829.0,2895.0,3151.0,3053.0,0.89325,0.090942,-0.438477,-0.038818,-23.0,198.0,-54.0,10536.0,888.0,-997.0,4176.0,-721.0,-5902.0,7229.0,-571.0,-434.0,0.776277,0.19651,0.598869,27568.0,2864.0,-2214.0,-524.0,4542.0,-1236.0
2889.0,2833.0,2897.0,3147.0,3055.0,0.905151,0.092407,-0.412415,-0.045227,-38.0,290.0,-82.0,11564.0,1079.0,-1133.0,5516.0,-596.0,-6398.0,8443.0,-623.0,-161.0,0.738237,0.20459,0.64272,28902.0,3310.0,-3462.0,-862.0,6652.0,-1871.0
2891.0,2831.0,2898.0,3151.0,3054.0,0.937866,0.09491,-0.326843,-0.067627,-81.0,474.0,-144.0,11761.0,1120.0,-2490.0,6843.0,-700.0,-8784.0,10770.0,-798.0,-2797.0,0.600234,0.222232,0.768332,19920.0,1424.0,-10434.0,-1852.0,10870.0,-3294.0
2882.0,2829.0,2896.0,3153.0,3056.0,0.969727,0.087646,-0.207092,-0.095154,-148.0,517.0,-114.0,7348.0,1099.0,-4229.0,4194.0,-616.0,-11592.0,8516.0,-7.0,-8933.0,0.384966,0.209397,0.898855,-3592.0,3348.0,-10892.0,-3385.0,11856.0,-2592.0
2883.0,2831.0,2895.0,3151.0,3051.0,0.980835,0.075195,-0.147522,-0.102295,-183.0,454.0,-50.0,3714.0,975.0,-4135.0,1469.0,-480.0,-11877.0,4908.0,601.0,-10907.0,0.274005,0.17769,0.945084,-15362.0,206.0,-6706.0,-4185.0,10415.0,-1140.0
2883.0,2830.0,2891.0,3143.0,3051.0,0.992249,0.043945,-0.050781,-0.104492,-127.0,276.0,-6.0,-3347.0,-1551.0,-990.0,-4097.0,-2352.0,-9107.0,-3462.0,-726.0,-9630.0,0.091591,0.097822,0.990966,-24214.0,-12474.0,11886.0,-2887.0,6334.0,-132.0
2887.0,2830.0,2899.0,3151.0,3055.0,0.99353,0.033386,0.009766,-0.107788,-15.0,165.0,-24.0,-5996.0,-2280.0,4510.0,-5778.0,-2806.0,-3661.0,-6289.0,-1249.0,-3678.0,-0.026602,0.064235,0.997511,-15422.0,-1882.0,25026.0,-322.0,3799.0,-532.0
2885.0,2832.0,2899.0,3151.0,3047.0,0.992859,0.034119,0.030762,-0.109802,-8.0,138.0,-20.0,-6250.0,-1496.0,6859.0,-5688.0,-1995.0,-1297.0,-6048.0,-617.0,-1023.0,-0.068577,0.060995,0.995715,-13732.0,1850.0,27002.0,-182.0,3169.0,-449.0
2886.0,2832.0,2897.0,3151.0,3057.0,0.990845,0.033936,0.064026,-0.113647,-23.0,87.0,-20.0,-7319.0,-374.0,10050.0,-6216.0,-805.0,1944.0,-5957.0,431.0,2717.0,-0.134593,0.052697,0.989438,-20400.0,1768.0,27382.0,-511.0,2014.0,-443.0
2886.0,2831.0,2900.0,3151.0,3051.0,0.989868,0.030273,0.077271,-0.115112,-5.0,-24.0,-1.0,-8846.0,-677.0,12327.0,-7535.0,-1022.0,4248.0,-6862.0,358.0,5351.0,-0.159945,0.042144,0.986203,-21338.0,-3688.0,30212.0,-114.0,-532.0,-5.0
2883.0,2828.0,2896.0,3153.0,3051.0,0.990295,0.030212,0.072449,-0.114685,19.0,-87.0,11.0,-9242.0,-987.0,13056.0,-8009.0,-1341.0,4964.0,-7346.0,101.0,6049.0,-0.150421,0.043221,0.987676,-20484.0,-3588.0,29898.0,447.0,-1987.0,257.0
2883.0,2827.0,2895.0,3155.0,3045.0,0.992493,0.036316,0.037415,-0.110535,64.0,-210.0,31.0,-8644.0,-1026.0,13685.0,-7969.0,-1548.0,5537.0,-7728.0,-224.0,6063.0,-0.082296,0.063815,0.994541,-13080.0,-1338.0,28136.0,1479.0,-4804.0,729.0
2886.0,2832.0,2901.0,3155.0,3043.0,0.992859,0.049438,-0.022217,-0.105896,89.0,-269.0,30.0,-6067.0,-268.0,13264.0,-6342.0,-1110.0,5120.0,-6703.0,-210.0,4761.0,0.033646,0.102876,0.994045,-2258.0,2684.0,25166.0,2052.0,-6160.0,694.0
2884.0,2831.0,2899.0,3151.0,3051.0,0.991394,0.056885,-0.055542,-0.10376,89.0,-268.0,29.0,-4468.0,254.0,12864.0,-5273.0,-764.0,4775.0,-5861.0,-107.0,4100.0,0.098323,0.124316,0.987307,182.0,3532.0,22700.0,2058.0,-6132.0,667.0
2883.0,2831.0,2891.0,3143.0,3055.0,0.985107,0.07019,-0.122192,-0.098206,78.0,-279.0,37.0,-2436.0,1027.0,11121.0,-4295.0,-302.0,3254.0,-4965.0,239.0,2100.0,0.226959,0.16229,0.960223,-464.0,3734.0,16116.0,1804.0,-6374.0,868.0
2890.0,2833.0,2903.0,3147.0,3053.0,0.973083,0.080322,-0.196106,-0.090149,78.0,-325.0,50.0,-1244.0,1172.0,8693.0,-4251.0,-398.0,1237.0,-4401.0,343.0,-511.0,0.367173,0.191678,0.910109,1594.0,2464.0,9680.0,1796.0,-7429.0,1146.0
2883.0,2831.0,2896.0,3152.0,3047.0,0.963989,0.084839,-0.237183,-0.085205,79.0,-342.0,53.0,-168.0,1255.0,7539.0,-3795.0,-416.0,386.0,-3546.0,324.0,-1428.0,0.442826,0.203986,0.873082,7180.0,3304.0,8818.0,1814.0,-7818.0,1232.0
2881.0,2828.0,2895.0,3153.0,3047.0,0.940979,0.092651,-0.316467,-0.075867,65.0,-291.0,42.0,3559.0,1983.0,6365.0,-1204.0,161.0,-44.0,-908.0,404.0,-698.0,0.58152,0.222385,0.782461,19048.0,6382.0,9360.0,1489.0,-6660.0,978.0
2887.0,2832.0,2897.0,3151.0,3051.0,0.929688,0.09552,-0.348206,-0.072144,50.0,-236.0,35.0,5424.0,2316.0,5888.0,233.0,449.0,-167.0,314.0,410.0,126.0,0.633662,0.227849,0.739152,21368.0,6412.0,8656.0,1167.0,-5400.0,814.0
2883.0,2832.0,2901.0,3149.0,3047.0,0.912231,0.098083,-0.39209,-0.066223,21.0,-136.0,26.0,7205.0,2558.0,4329.0,1451.0,666.0,-1185.0,1884.0,510.0,375.0,0.702363,0.230881,0.673197,16780.0,5168.0,3732.0,492.0,-3107.0,611.0
2887.0,2830.0,2895.0,3159.0,3047.0,0.906006,0.097839,-0.406677,-0.064392,8.0,-105.0,21.0,7168.0,2468.0,3504.0,1234.0,586.0,-1821.0,2202.0,555.0,-155.0,0.724304,0.22966,0.650034,13404.0,4188.0,2102.0,201.0,-2389.0,485.0
2887.0,2830.0,2897.0,3149.0,3055.0,0.896301,0.09491,-0.428589,-0.062256,-4.0,-78.0,18.0,6310.0,1779.0,2035.0,112.0,-51.0,-2999.0,2407.0,278.0,-1769.0,0.756472,0.2235,0.614536,9826.0,938.0,188.0,-76.0,-1776.0,428.0
2885.0,2815.0,2897.0,3155.0,3051.0,0.892029,0.092896,-0.438049,-0.060608,-1.0,-72.0,22.0,5977.0,1378.0,1550.0,-332.0,-414.0,-3355.0,2446.0,37.0,-2355.0,0.770245,0.218829,0.598872,10348.0,454.0,436.0,-18.0,-1638.0,509.0
2890.0,2833.0,2897.0,3152.0,3047.0,0.885071,0.090332,-0.453064,-0.055847,8.0,-41.0,20.0,6041.0,931.0,1079.0,-446.0,-793.0,-3615.0,2662.0,-299.0,-2591.0,0.791898,0.210505,0.573042,12726.0,982.0,1026.0,197.0,-927.0,467.0
2864.0,2829.0,2903.0,3159.0,3045.0,0.883057,0.090149,-0.457458,-0.053467,11.0,-20.0,15.0,6109.0,849.0,935.0,-430.0,-856.0,-3695.0,2763.0,-353.0,-2610.0,0.798284,0.208131,0.565253,12482.0,1342.0,1042.0,253.0,-453.0,354.0
2885.0,2827.0,2901.0,3152.0,3039.0,0.881836,0.09082,-0.4599,-0.050049,4.0,11.0,6.0,5948.0,926.0,831.0,-622.0,-763.0,-3759.0,2723.0,-210.0,-2762.0,0.802022,0.206212,0.560383,10970.0,2324.0,1672.0,109.0,273.0,143.0
2887.0,2832.0,2897.0,3151.0,3046.0,0.882446,0.09082,-0.458862,-0.049438,-3.0,21.0,2.0,5805.0,995.0,935.0,-755.0,-689.0,-3671.0,2569.0,-123.0,-2810.0,0.800863,0.205659,0.562353,10764.0,2372.0,2650.0,-53.0,498.0,58.0
2883.0,2832.0,2897.0,3143.0,3039.0,0.885376,0.089233,-0.453491,-0.049683,-13.0,34.0,-1.0,5412.0,936.0,1370.0,-1093.0,-727.0,-3321.0,2053.0,-152.0,-2917.0,0.794154,0.203071,0.572742,9264.0,1224.0,4282.0,-275.0,791.0,-19.0
2882.0,2829.0,2896.0,3155.0,3047.0,0.887207,0.088013,-0.450073,-0.049805,-11.0,33.0,0.0,5128.0,796.0,1660.0,-1342.0,-850.0,-3085.0,1691.0,-264.0,-3017.0,0.789849,0.201002,0.579305,8650.0,746.0,5234.0,-248.0,768.0,10.0
2883.0,2830.0,2891.0,3151.0,3047.0,0.890503,0.086731,-0.443848,-0.049072,-1.0,26.0,0.0,4871.0,727.0,2518.0,-1535.0,-895.0,-2322.0,923.0,-367.0,-2749.0,0.781983,0.19803,0.590881,9666.0,1826.0,7992.0,-11.0,611.0,21.0
2882.0,2832.0,2899.0,3151.0,3055.0,0.891968,0.087036,-0.440918,-0.048767,2.0,26.0,-2.0,5026.0,910.0,3089.0,-1348.0,-714.0,-1793.0,600.0,-277.0,-2259.0,0.77808,0.198271,0.596001,11310.0,3180.0,9790.0,59.0,604.0,-28.0
2883.0,2829.0,2898.0,3151.0,3055.0,0.89563,0.088501,-0.433105,-0.0495,-3.0,37.0,-9.0,5573.0,1518.0,4230.0,-710.0,-131.0,-760.0,154.0,76.0,-1033.0,0.767043,0.201405,0.60919,12688.0,4676.0,11484.0,-53.0,870.0,-205.0
2887.0,2831.0,2898.0,3151.0,3045.0,0.897888,0.088989,-0.428101,-0.050659,-7.0,42.0,-12.0,5665.0,1722.0,4627.0,-558.0,57.0,-432.0,-13.0,199.0,-679.0,0.759757,0.203179,0.61758,11608.0,4366.0,11380.0,-149.0,973.0,-267.0
2883.0,2827.0,2905.0,3152.0,3045.0,0.902283,0.088806,-0.418457,-0.053162,-8.0,33.0,-9.0,5454.0,1673.0,5232.0,-654.0,-4.0,38.0,-450.0,103.0,-464.0,0.745691,0.204748,0.633947,9850.0,2734.0,11884.0,-168.0,759.0,-187.0
2886.0,2833.0,2897.0,3152.0,3051.0,0.90387,0.088745,-0.415039,-0.053711,-3.0,22.0,-5.0,5325.0,1572.0,5462.0,-743.0,-107.0,221.0,-653.0,-3.0,-430.0,0.740749,0.205012,0.639732,9972.0,2594.0,12268.0,-58.0,523.0,-111.0
2883.0,2831.0,2893.0,3143.0,3045.0,0.905518,0.089783,-0.411194,-0.053711,6.0,7.0,-3.0,5428.0,1670.0,5929.0,-593.0,-23.0,639.0,-871.0,3.0,-28.0,0.735042,0.206771,0.645706,11668.0,4170.0,13282.0,146.0,168.0,-46.0
2887.0,2830.0,2902.0,3157.0,3047.0,0.905884,0.090759,-0.410217,-0.05365,6.0,4.0,-3.0,5656.0,1831.0,6104.0,-352.0,123.0,803.0,-833.0,83.0,286.0,0.73348,0.208451,0.646988,12748.0,4680.0,13076.0,152.0,112.0,-57.0
2881.0,2829.0,2891.0,3151.0,3047.0,0.906372,0.092346,-0.408691,-0.053894,1.0,5.0,-3.0,6089.0,2106.0,6226.0,101.0,373.0,910.0,-608.0,234.0,743.0,0.730899,0.211452,0.648858,13360.0,4926.0,12696.0,43.0,119.0,-55.0
2883.0,2830.0,2897.0,3151.0,3055.0,0.906677,0.092651,-0.407837,-0.05426,-2.0,6.0,-3.0,6200.0,2145.0,6188.0,223.0,406.0,862.0,-489.0,251.0,809.0,0.729498,0.212268,0.650093,12862.0,4340.0,11996.0,-27.0,145.0,-58.0
2885.0,2832.0,2897.0,3143.0,3053.0,0.907227,0.092468,-0.406616,-0.054871,-2.0,2.0,-2.0,6151.0,1974.0,6002.0,190.0,234.0,659.0,-361.0,114.0,617.0,0.727638,0.212402,0.652184,12018.0,3210.0,11450.0,-45.0,53.0,-30.0
2879.0,2827.0,2895.0,3151.0,3047.0,0.907288,0.092285,-0.406494,-0.054871,0.0,-1.0,0.0,6100.0,1858.0,5899.0,140.0,120.0,554.0,-318.0,24.0,488.0,0.727487,0.212068,0.652428,11926.0,3044.0,11180.0,2.0,-16.0,3.0
2883.0,2832.0,2896.0,3155.0,3047.0,0.907043,0.092468,-0.407166,-0.05426,3.0,-4.0,2.0,6112.0,1744.0,5743.0,143.0,7.0,407.0,-209.0,-68.0,370.0,0.728599,0.211931,0.651338,12474.0,3388.0,11038.0,87.0,-82.0,53.0
2881.0,2832.0,2896.0,3147.0,3055.0,0.90686,0.092773,-0.407532,-0.053833,3.0,-3.0,2.0,6155.0,1759.0,5683.0,181.0,21.0,353.0,-144.0,-54.0,366.0,0.72916,0.212142,0.650605,12552.0,3644.0,11000.0,89.0,-52.0,47.0
2882.0,2829.0,2895.0,3143.0,3047.0,0.906738,0.093262,-0.407776,-0.053345,1.0,-1.0,0.0,6057.0,1792.0,5505.0,80.0,50.0,179.0,-80.0,12.0,185.0,0.729542,0.212633,0.650041,11586.0,3630.0,10392.0,36.0,-12.0,14.0
2882.0,2831.0,2899.0,3155.0,3045.0,0.906677,0.093384,-0.407898,-0.053284,0.0,-2.0,0.0,5951.0,1780.0,5408.0,-26.0,36.0,84.0,-79.0,29.0,43.0,0.729712,0.212807,0.649801,11260.0,3456.0,10306.0,5.0,-40.0,15.0
2887.0,2834.0,2899.0,3151.0,3051.0,0.90625,0.09314,-0.408813,-0.053162,0.0,-7.0,1.0,5684.0,1661.0,5188.0,-304.0,-78.0,-122.0,-110.0,-8.0,-317.0,0.731072,0.212282,0.648312,10500.0,2796.0,9692.0,11.0,-157.0,42.0
2883.0,2831.0,2895.0,3151.0,3051.0,0.905762,0.09314,-0.409912,-0.052856,3.0,-12.0,2.0,5538.0,1563.0,5092.0,-464.0,-174.0,-204.0,-155.0,-64.0,-508.0,0.732719,0.212058,0.646495,10206.0,2558.0,9654.0,72.0,-257.0,63.0
2887.0,2829.0,2897.0,3151.0,3045.0,0.904053,0.093994,-0.413696,-0.051575,9.0,-20.0,4.0,5455.0,1522.0,4997.0,-593.0,-219.0,-245.0,-204.0,-81.0,-641.0,0.738311,0.212624,0.639992,11290.0,3280.0,9940.0,214.0,-457.0,103.0
2887.0,2835.0,2898.0,3151.0,3047.0,0.902954,0.094727,-0.416077,-0.050781,9.0,-21.0,5.0,5583.0,1628.0,5000.0,-493.0,-119.0,-208.0,-163.0,-5.0,-523.0,0.741776,0.213325,0.635812,12030.0,4000.0,10032.0,228.0,-462.0,124.0
2883.0,2830.0,2899.0,3153.0,3051.0,0.901062,0.095825,-0.420044,-0.049316,4.0,-13.0,5.0,5982.0,1940.0,5020.0,-141.0,185.0,-130.0,10.0,221.0,-147.0,0.74752,0.214119,0.628726,13148.0,4728.0,9936.0,98.0,-292.0,118.0
2885.0,2831.0,2896.0,3151.0,3047.0,0.900513,0.096008,-0.421204,-0.049072,0.0,-8.0,3.0,6142.0,2021.0,4987.0,4.0,265.0,-146.0,116.0,277.0,-31.0,0.749176,0.214252,0.626701,13122.0,4380.0,9734.0,8.0,-166.0,76.0
2881.0,2827.0,2895.0,3151.0,3043.0,0.900146,0.095581,-0.422119,-0.049133,-3.0,-1.0,0.0,6210.0,1916.0,4861.0,61.0,166.0,-261.0,241.0,185.0,-81.0,0.750546,0.213554,0.625358,12402.0,3334.0,9356.0,-63.0,-11.0,5.0
2881.0,2832.0,2901.0,3155.0,3047.0,0.900146,0.095276,-0.42218,-0.049194,-3.0,0.0,0.0,6186.0,1829.0,4819.0,36.0,83.0,-304.0,257.0,114.0,-145.0,0.750674,0.213062,0.62537,12150.0,3136.0,9444.0,-64.0,13.0,1.0
2887.0,2833.0,2897.0,3151.0,3055.0,0.900146,0.094421,-0.422302,-0.049194,-3.0,0.0,1.0,6102.0,1683.0,4793.0,-50.0,-49.0,-330.0,221.0,2.0,-254.0,0.750978,0.211536,0.625429,12032.0,3010.0,9666.0,-57.0,4.0,37.0
2887.0,2831.0,2897.0,3151.0,3051.0,0.900208,0.094055,-0.422302,-0.049072,-3.0,0.0,1.0,6070.0,1640.0,4815.0,-82.0,-86.0,-309.0,184.0,-30.0,-273.0,0.751088,0.210785,0.625596,11928.0,3080.0,9748.0,-50.0,8.0,40.0
2886.0,2832.0,2891.0,3150.0,3051.0,0.90033,0.093262,-0.42218,-0.048889,-3.0,1.0,1.0,6044.0,1629.0,4881.0,-108.0,-84.0,-247.0,120.0,-32.0,-253.0,0.751084,0.209213,0.62605,12048.0,3340.0,10000.0,-68.0,28.0,33.0
2882.0,2831.0,2895.0,3152.0,3047.0,0.900513,0.092834,-0.421997,-0.049011,-4.0,2.0,0.0,6033.0,1640.0,4917.0,-118.0,-68.0,-216.0,90.0,-19.0,-238.0,0.750928,0.208562,0.626625,11958.0,3336.0,9992.0,-90.0,50.0,15.0
2883.0,2831.0,2899.0,3154.0,3047.0,0.900879,0.091919,-0.421265,-0.049316,-4.0,3.0,-1.0,5984.0,1586.0,4927.0,-159.0,-111.0,-218.0,64.0,-55.0,-279.0,0.749951,0.207166,0.628102,11758.0,2984.0,9814.0,-76.0,81.0,-9.0
2885.0,2831.0,2896.0,3150.0,3050.0,0.901123,0.091675,-0.420837,-0.049438,-3.0,3.0,-1.0,5932.0,1573.0,4932.0,-206.0,-121.0,-220.0,35.0,-56.0,-317.0,0.749388,0.206832,0.628959,11532.0,3126.0,9844.0,-46.0,81.0,-11.0
2883.0,2831.0,2895.0,3147.0,3047.0,0.901489,0.091431,-0.420105,-0.049622,-2.0,2.0,-1.0,5866.0,1614.0,4963.0,-264.0,-77.0,-200.0,-17.0,-6.0,-339.0,0.748366,0.20654,0.630297,11568.0,3352.0,10018.0,-31.0,63.0,-3.0
2883.0,2832.0,2901.0,3155.0,3039.0,0.901672,0.091309,-0.419739,-0.049622,-2.0,2.0,0.0,5843.0,1635.0,4965.0,-283.0,-55.0,-203.0,-27.0,18.0,-351.0,0.747872,0.206317,0.630957,11586.0,3398.0,9922.0,-33.0,55.0,10.0
2883.0,2832.0,2899.0,3151.0,3055.0,0.901917,0.091064,-0.419189,-0.049561,-1.0,2.0,0.0,5867.0,1641.0,4988.0,-253.0,-45.0,-188.0,-19.0,20.0,-317.0,0.747121,0.205816,0.631897,11882.0,3272.0,10028.0,-20.0,63.0,14.0
2883.0,2831.0,2898.0,3147.0,3051.0,0.9021,0.091003,-0.418823,-0.049561,-1.0,3.0,0.0,5893.0,1644.0,4994.0,-223.0,-41.0,-187.0,-1.0,19.0,-293.0,0.74662,0.205703,0.632545,11946.0,3324.0,10018.0,-16.0,84.0,5.0
2885.0,2831.0,2896.0,3143.0,3047.0,0.902588,0.090881,-0.417786,-0.049683,-2.0,5.0,-2.0,5901.0,1654.0,4999.0,-203.0,-30.0,-197.0,18.0,28.0,-282.0,0.745146,0.20557,0.634329,11812.0,3286.0,10028.0,-31.0,118.0,-24.0
2887.0,2831.0,2931.0,3155.0,3051.0,0.902893,0.090881,-0.417175,-0.049866,-2.0,5.0,-2.0,5893.0,1635.0,4999.0,-204.0,-50.0,-206.0,24.0,10.0,-293.0,0.744266,0.205718,0.635408,11682.0,3130.0,10000.0,-29.0,128.0,-38.0
2885.0,2831.0,2900.0,3153.0,3047.0,0.903381,0.091003,-0.416016,-0.050232,0.0,4.0,-3.0,5829.0,1601.0,4989.0,-253.0,-88.0,-231.0,10.0,-15.0,-353.0,0.742499,0.206216,0.63727,11534.0,3208.0,10038.0,5.0,101.0,-52.0
2887.0,2831.0,2897.0,3151.0,3051.0,0.903564,0.091187,-0.415527,-0.050354,0.0,3.0,-3.0,5828.0,1611.0,4993.0,-248.0,-81.0,-233.0,14.0,-9.0,-349.0,0.741728,0.206633,0.637986,11680.0,3256.0,10030.0,17.0,90.0,-52.0
2887.0,2831.0,2897.0,3143.0,3053.0,0.903809,0.091736,-0.414856,-0.050537,1.0,2.0,-2.0,5797.0,1624.0,4994.0,-270.0,-77.0,-239.0,4.0,0.0,-368.0,0.740629,0.207755,0.638903,11526.0,3370.0,10034.0,44.0,47.0,-29.0
2883.0,2831.0,2899.0,3154.0,3051.0,0.90387,0.092102,-0.414673,-0.050537,2.0,0.0,-1.0,5806.0,1665.0,5017.0,-258.0,-42.0,-218.0,-3.0,29.0,-339.0,0.740311,0.208409,0.639098,11714.0,3596.0,10188.0,54.0,22.0,-20.0
2883.0,2831.0,2899.0,3153.0,3054.0,0.90387,0.092773,-0.41449,-0.050476,1.0,0.0,-1.0,5834.0,1778.0,5080.0,-227.0,61.0,-155.0,-29.0,117.0,-254.0,0.739924,0.209554,0.63912,11690.0,3868.0,10346.0,35.0,15.0,-3.0
2883.0,2831.0,2896.0,3147.0,3055.0,0.903931,0.092957,-0.414368,-0.050476,0.0,0.0,0.0,5842.0,1834.0,5120.0,-217.0,114.0,-117.0,-51.0,162.0,-211.0,0.739735,0.209884,0.639297,11762.0,3946.0,10444.0,10.0,14.0,3.0
2885.0,2832.0,2897.0,3147.0,3047.0,0.904053,0.092957,-0.414062,-0.050537,-1.0,1.0,0.0,5862.0,1807.0,5122.0,-194.0,87.0,-119.0,-35.0,132.0,-201.0,0.739273,0.209926,0.639777,11712.0,3338.0,10152.0,-17.0,36.0,9.0
2886.0,2832.0,2896.0,3152.0,3051.0,0.904175,0.092896,-0.413879,-0.050476,0.0,1.0,0.0,5847.0,1753.0,5106.0,-207.0,34.0,-138.0,-29.0,85.0,-234.0,0.739061,0.20977,0.640154,11558.0,3216.0,10076.0,2.0,38.0,16.0
2887.0,2832.0,2902.0,3151.0,3047.0,0.904297,0.093018,-0.413635,-0.05011,0.0,0.0,1.0,5820.0,1719.0,5085.0,-232.0,1.0,-162.0,-28.0,60.0,-274.0,0.738776,0.209685,0.640517,11606.0,3350.0,10110.0,20.0,17.0,32.0
2886.0,2830.0,2895.0,3151.0,3055.0,0.904297,0.093018,-0.413574,-0.049866,0.0,0.0,1.0,5818.0,1708.0,5077.0,-233.0,-8.0,-170.0,-23.0,52.0,-282.0,0.738711,0.209477,0.640544,11624.0,3366.0,10130.0,17.0,11.0,44.0
2885.0,2831.0,2899.0,3149.0,3055.0,0.904419,0.092896,-0.413513,-0.049377,-1.0,0.0,2.0,5805.0,1680.0,5067.0,-247.0,-31.0,-182.0,-23.0,33.0,-305.0,0.738804,0.208869,0.640789,11610.0,3216.0,10104.0,0.0,10.0,50.0
2882.0,2831.0,2895.0,3153.0,3054.0,0.904419,0.092712,-0.413452,-0.049133,-1.0,0.0,2.0,5820.0,1663.0,5069.0,-231.0,-43.0,-180.0,-15.0,19.0,-294.0,0.738757,0.20833,0.640849,11750.0,3256.0,10172.0,-6.0,12.0,54.0
2883.0,2833.0,2898.0,3151.0,3051.0,0.904602,0.092346,-0.413269,-0.048645,-1.0,1.0,2.0,5827.0,1617.0,5051.0,-224.0,-81.0,-202.0,5.0,-16.0,-311.0,0.738704,0.20728,0.641352,11670.0,3034.0,10050.0,-17.0,32.0,49.0
2885.0,2832.0,2897.0,3151.0,3047.0,0.904663,0.092102,-0.413147,-0.048401,-1.0,1.0,1.0,5821.0,1584.0,5043.0,-229.0,-108.0,-212.0,9.0,-41.0,-327.0,0.738602,0.206636,0.641585,11620.0,2986.0,10060.0,-14.0,34.0,44.0
2886.0,2831.0,2897.0,3143.0,3051.0,0.904907,0.091858,-0.412781,-0.048035,-1.0,2.0,1.0,5841.0,1563.0,5047.0,-206.0,-123.0,-215.0,26.0,-59.0,-315.0,0.738232,0.205901,0.642339,11736.0,3160.0,10138.0,-3.0,52.0,25.0
2887.0,2832.0,2903.0,3154.0,3047.0,0.905029,0.091736,-0.412537,-0.047913,-1.0,2.0,0.0,5842.0,1567.0,5051.0,-203.0,-117.0,-214.0,27.0,-54.0,-311.0,0.737925,0.205579,0.642772,11676.0,3160.0,10156.0,-10.0,58.0,17.0
2891.0,2831.0,2899.0,3153.0,3053.0,0.905273,0.091492,-0.412048,-0.047791,-1.0,2.0,0.0,5850.0,1562.0,5081.0,-189.0,-117.0,-191.0,18.0,-59.0,-286.0,0.737288,0.205034,0.643649,11582.0,3238.0,10240.0,-15.0,64.0,6.0
2885.0,2831.0,2895.0,3147.0,3053.0,0.905457,0.091431,-0.411682,-0.047729,-1.0,2.0,0.0,5825.0,1568.0,5084.0,-210.0,-110.0,-194.0,7.0,-49.0,-302.0,0.736793,0.204872,0.644288,11566.0,3228.0,10438.0,-9.0,56.0,5.0
2886.0,2831.0,2898.0,3151.0,3047.0,0.90564,0.091309,-0.411255,-0.047668,-1.0,0.0,0.0,5752.0,1593.0,5122.0,-278.0,-83.0,-161.0,-62.0,-16.0,-325.0,0.736192,0.204593,0.644988,11428.0,3180.0,10398.0,-19.0,9.0,16.0
2883.0,2831.0,2901.0,3153.0,3051.0,0.905701,0.091187,-0.411194,-0.047668,-1.0,0.0,0.0,5776.0,1593.0,5149.0,-254.0,-81.0,-136.0,-65.0,-21.0,-291.0,0.736144,0.204377,0.645171,11714.0,3182.0,10462.0,-13.0,5.0,12.0
2891.0,2833.0,2897.0,3151.0,3055.0,0.905823,0.091125,-0.411011,-0.047546,0.0,0.0,0.0,5793.0,1580.0,5177.0,-235.0,-92.0,-111.0,-71.0,-38.0,-263.0,0.73594,0.204171,0.645542,11640.0,3128.0,10416.0,17.0,14.0,4.0
2887.0,2832.0,2894.0,3143.0,3047.0,0.905823,0.091248,-0.41095,-0.047424,1.0,0.0,0.0,5822.0,1592.0,5191.0,-206.0,-81.0,-97.0,-63.0,-33.0,-230.0,0.73584,0.204286,0.645558,11908.0,3314.0,10558.0,27.0,8.0,3.0
2883.0,2831.0,2896.0,3151.0,3051.0,0.906006,0.091614,-0.410461,-0.047485,0.0,1.0,-1.0,5796.0,1705.0,5230.0,-225.0,25.0,-63.0,-100.0,68.0,-200.0,0.73506,0.204987,0.64623,11300.0,3738.0,10530.0,3.0,40.0,-15.0
2887.0,2832.0,2901.0,3155.0,3055.0,0.906067,0.091675,-0.410278,-0.047607,-1.0,0.0,-1.0,5770.0,1724.0,5233.0,-249.0,43.0,-63.0,-116.0,90.0,-214.0,0.73475,0.205192,0.646491,11464.0,3502.0,10466.0,-22.0,11.0,-2.0
2887.0,2833.0,2898.0,3151.0,3055.0,0.906128,0.091492,-0.410156,-0.047668,-1.0,0.0,0.0,5782.0,1684.0,5226.0,-235.0,5.0,-72.0,-100.0,51.0,-218.0,0.734586,0.204909,0.646741,11508.0,3244.0,10400.0,-4.0,15.0,5.0
2887.0,2830.0,2895.0,3147.0,3045.0,0.906189,0.091492,-0.410034,-0.047607,0.0,0.0,0.0,5748.0,1670.0,5205.0,-268.0,-8.0,-94.0,-106.0,47.0,-259.0,0.734426,0.204859,0.646946,11252.0,3246.0,10280.0,7.0,3.0,14.0
2883.0,2831.0,2896.0,3146.0,3057.0,0.906067,0.091553,-0.410339,-0.047302,1.0,-3.0,1.0,5706.0,1637.0,5168.0,-314.0,-40.0,-127.0,-111.0,27.0,-321.0,0.734928,0.204726,0.646434,11566.0,3250.0,10350.0,24.0,-65.0,31.0
2887.0,2834.0,2901.0,3152.0,3055.0,0.905945,0.091614,-0.410645,-0.047119,1.0,-3.0,1.0,5747.0,1632.0,5162.0,-277.0,-44.0,-129.0,-85.0,17.0,-296.0,0.735409,0.204692,0.645934,11728.0,3240.0,10262.0,30.0,-53.0,25.0
2891.0,2833.0,2901.0,3153.0,3055.0,0.905762,0.091858,-0.411072,-0.046814,1.0,-2.0,0.0,5752.0,1596.0,5107.0,-277.0,-82.0,-178.0,-48.0,-13.0,-335.0,0.736066,0.204891,0.645178,11522.0,3032.0,10084.0,44.0,-39.0,14.0
2886.0,2829.0,2896.0,3147.0,3054.0,0.90564,0.092041,-0.411255,-0.046631,2.0,-2.0,0.0,5769.0,1581.0,5090.0,-262.0,-98.0,-191.0,-29.0,-29.0,-336.0,0.736314,0.205066,0.644755,11676.0,3122.0,10084.0,63.0,-35.0,9.0
2883.0,2830.0,2895.0,3147.0,3047.0,0.905457,0.09259,-0.411499,-0.046326,2.0,-1.0,0.0,5809.0,1628.0,5075.0,-225.0,-57.0,-201.0,3.0,6.0,-306.0,0.73661,0.205799,0.644093,11702.0,3454.0,10050.0,54.0,-12.0,6.0
2881.0,2827.0,2893.0,3143.0,3045.0,0.90741,0.080139,-0.409424,-0.050598,0.0,0.0,-2.0,5837.0,1462.0,5130.0,-183.0,-68.0,-210.0,35.0,-16.0,-284.0,0.734921,0.18687,0.651902,11668.0,2960.0,10242.0,18.0,16.0,-30.0
2883.0,2832.0,2899.0,3152.0,3051.0,0.90741,0.080322,-0.409302,-0.05072,0.0,0.0,-2.0,5826.0,1490.0,5121.0,-192.0,-44.0,-220.0,37.0,10.0,-292.0,0.734661,0.18729,0.651985,11610.0,3150.0,10232.0,16.0,21.0,-32.0
2887.0,2832.0,2899.0,3152.0,3054.0,0.907471,0.080566,-0.40918,-0.051025,-1.0,0.0,-2.0,5809.0,1524.0,5127.0,-207.0,-15.0,-215.0,24.0,40.0,-295.0,0.734415,0.18798,0.652188,11600.0,3088.0,10382.0,-8.0,9.0,-25.0
2882.0,2830.0,2895.0,3147.0,3047.0,0.907471,0.080627,-0.409119,-0.051147,-1.0,0.0,-1.0,5798.0,1520.0,5133.0,-217.0,-21.0,-210.0,13.0,35.0,-300.0,0.734279,0.188185,0.65224,11552.0,3002.0,10256.0,-7.0,4.0,-22.0
2885.0,2827.0,2894.0,3143.0,3047.0,0.90741,0.080688,-0.40918,-0.051331,0.0,-1.0,-1.0,5814.0,1528.0,5161.0,-201.0,-15.0,-180.0,2.0,36.0,-267.0,0.734304,0.188442,0.652089,11696.0,3096.0,10394.0,4.0,-9.0,-16.0
2883.0,2833.0,2897.0,3151.0,3051.0,0.90741,0.08075,-0.40918,-0.051453,0.0,-1.0,-1.0,5821.0,1540.0,5176.0,-194.0,-5.0,-165.0,-4.0,43.0,-250.0,0.734278,0.188653,0.652091,11684.0,3172.0,10400.0,4.0,-4.0,-13.0
2887.0,2833.0,2899.0,3151.0,3055.0,0.90741,0.080872,-0.40918,-0.051575,-1.0,-1.0,-1.0,5808.0,1557.0,5187.0,-206.0,8.0,-154.0,-20.0,56.0,-250.0,0.734245,0.188974,0.652084,11628.0,3106.0,10452.0,-2.0,-4.0,-8.0
2882.0,2827.0,2891.0,3143.0,3043.0,0.90741,0.080933,-0.40918,-0.051575,0.0,-1.0,-1.0,5816.0,1552.0,5191.0,-198.0,3.0,-150.0,-17.0,50.0,-242.0,0.734239,0.189085,0.652074,11674.0,3062.0,10408.0,5.0,0.0,-9.0
2883.0,2827.0,2891.0,3147.0,3045.0,0.90741,0.081177,-0.409058,-0.051575,1.0,0.0,-1.0,5797.0,1547.0,5189.0,-215.0,-5.0,-153.0,-27.0,45.0,-258.0,0.733992,0.189515,0.652135,11534.0,3130.0,10420.0,27.0,3.0,-3.0
2887.0,2831.0,2901.0,3153.0,3053.0,0.90741,0.08136,-0.409058,-0.051514,1.0,-1.0,0.0,5772.0,1569.0,5201.0,-240.0,14.0,-140.0,-52.0,66.0,-264.0,0.733983,0.189798,0.652098,11374.0,3288.0,10494.0,26.0,-5.0,2.0
2890.0,2832.0,2901.0,3151.0,3051.0,0.907288,0.081421,-0.409241,-0.051514,-1.0,-2.0,0.0,5767.0,1592.0,5206.0,-247.0,36.0,-132.0,-62.0,88.0,-260.0,0.734209,0.189907,0.651717,11592.0,3186.0,10434.0,-9.0,-38.0,16.0
2883.0,2826.0,2893.0,3143.0,3047.0,0.907227,0.08136,-0.409424,-0.051514,-1.0,-2.0,0.0,5793.0,1577.0,5212.0,-224.0,22.0,-124.0,-53.0,70.0,-241.0,0.734498,0.189806,0.651466,11760.0,3048.0,10464.0,-16.0,-38.0,15.0
2885.0,2823.0,2894.0,3146.0,3043.0,0.907166,0.081238,-0.409607,-0.051392,0.0,-1.0,0.0,5836.0,1536.0,5187.0,-183.0,-16.0,-147.0,-10.0,29.0,-233.0,0.734813,0.189493,0.651213,11752.0,2962.0,10342.0,8.0,-1.0,7.0
2887.0,2833.0,2899.0,3151.0,3055.0,0.907166,0.08136,-0.409607,-0.051331,1.0,0.0,0.0,5831.0,1529.0,5178.0,-188.0,-24.0,-156.0,-7.0,22.0,-244.0,0.73481,0.189664,0.651187,11600.0,3022.0,10320.0,26.0,14.0,2.0
2886.0,2835.0,2897.0,3155.0,3051.0,0.907227,0.081665,-0.409424,-0.051147,1.0,0.0,0.0,5805.0,1540.0,5175.0,-212.0,-16.0,-161.0,-19.0,35.0,-263.0,0.734526,0.190059,0.651379,11516.0,3152.0,10366.0,31.0,20.0,3.0
2883.0,2822.0,2894.0,3143.0,3043.0,0.907288,0.081848,-0.409302,-0.051086,0.0,0.0,0.0,5783.0,1559.0,5172.0,-232.0,0.0,-165.0,-29.0,54.0,-277.0,0.734346,0.190339,0.651554,11410.0,3220.0,10326.0,22.0,16.0,6.0
2885.0,2826.0,2895.0,3143.0,3047.0,0.907288,0.081909,-0.409241,-0.051025,-1.0,-1.0,0.0,5744.0,1557.0,5181.0,-270.0,-2.0,-156.0,-61.0,57.0,-300.0,0.734239,0.190394,0.651587,11444.0,3036.0,10368.0,-3.0,-13.0,16.0
2887.0,2831.0,2899.0,3151.0,3047.0,0.907288,0.081848,-0.409302,-0.050903,0.0,-1.0,0.0,5759.0,1530.0,5184.0,-257.0,-28.0,-153.0,-55.0,29.0,-293.0,0.734376,0.190189,0.651535,11618.0,2890.0,10404.0,1.0,-17.0,19.0
2887.0,2834.0,2897.0,3151.0,3051.0,0.907288,0.081848,-0.409363,-0.05072,0.0,-1.0,0.0,5781.0,1498.0,5198.0,-236.0,-58.0,-138.0,-53.0,-4.0,-274.0,0.734517,0.190046,0.651466,11648.0,2934.0,10432.0,11.0,0.0,12.0
2885.0,2827.0,2891.0,3147.0,3043.0,0.907288,0.081848,-0.409302,-0.050659,0.0,0.0,0.0,5788.0,1487.0,5196.0,-228.0,-69.0,-141.0,-46.0,-16.0,-272.0,0.734416,0.189989,0.65151,11566.0,2916.0,10332.0,9.0,13.0,5.0
