flex_1,flex_2,flex_3,flex_4,flex_5,Qw,Qx,Qy,Qz,GYRx,GYRy,GYRz,ACCx,ACCy,ACCz,ACCx_real,ACCy_real,ACCz_real,ACCx_world,ACCy_world,ACCz_world,GRAx,GRAy,GRAz,ACCx_raw,ACCy_raw,ACCz_raw,GYRx_raw,GYRy_raw,GYRz_raw
2847.0,2774.0,2831.0,3089.0,2987.0,1.0,0.0,0.0,0.0,0.0,0.0,0.0,0.0,0.0,0.0,0.0,0.0,0.0,0.0,0.0,0.0,0.0,0.0,0.0,0.0,0.0,0.0,0.0,0.0,0.0
2854.0,2795.0,2853.0,3071.0,2991.0,0.947327,0.131592,-0.28241,0.074158,-177.0,683.0,-272.0,7876.0,-1882.0,-4803.0,3332.0,-3581.0,-11404.0,9412.0,123.0,-8084.0,0.554586,0.207435,0.805856,-2540.0,-10376.0,-18714.0,-4041.0,15658.0,-6228.0
2833.0,2775.0,2861.0,3103.0,2991.0,0.987854,0.091614,-0.122009,0.027649,-173.0,634.0,-222.0,1441.0,-3197.0,-5752.0,-575.0,-4624.0,-13561.0,2999.0,-2011.0,-13875.0,0.246121,0.174255,0.953341,-14508.0,-8698.0,-8790.0,-3952.0,14539.0,-5083.0
2846.0,2763.0,2851.0,3071.0,3037.0,0.99823,0.050232,0.029175,-0.011047,-158.0,540.0,-172.0,-3311.0,-3264.0,-2982.0,-2824.0,-4080.0,-11118.0,-3555.0,-2882.0,-11281.0,-0.059356,0.099641,0.993211,-20568.0,-6032.0,3966.0,-3608.0,12391.0,-3925.0
2841.0,2767.0,2842.0,3093.0,2971.0,0.987976,0.012573,0.149719,-0.035889,-129.0,379.0,-100.0,-8059.0,-3280.0,721.0,-5628.0,-3395.0,-7100.0,-7708.0,-2754.0,-5156.0,-0.296741,0.014098,0.954811,-30632.0,-7474.0,12622.0,-2936.0,8698.0,-2279.0
2835.0,2766.0,2885.0,3091.0,2987.0,0.980225,-0.001526,0.192993,-0.042542,-94.0,278.0,-65.0,-10267.0,-3645.0,2421.0,-7168.0,-3485.0,-5159.0,-8848.0,-2800.0,-1995.0,-0.378223,-0.019412,0.925401,-32768.0,-9900.0,14772.0,-2134.0,6388.0,-1466.0
2845.0,2751.0,2805.0,3093.0,2991.0,0.969421,-0.012695,0.240173,-0.048035,6.0,79.0,-5.0,-13082.0,-4246.0,5319.0,-9277.0,-3855.0,-1924.0,-9397.0,-2918.0,2791.0,-0.464439,-0.047688,0.884241,-32768.0,-7814.0,18802.0,146.0,1821.0,-99.0
2843.0,2771.0,2855.0,3061.0,3015.0,0.968201,-0.002991,0.245789,-0.045593,46.0,-56.0,28.0,-14297.0,-2279.0,7808.0,-10400.0,-2047.0,606.0,-8988.0,-1114.0,5537.0,-0.475673,-0.028204,0.87907,-29516.0,3054.0,22314.0,1070.0,-1269.0,654.0
2866.0,2800.0,2854.0,3059.0,2999.0,0.969971,0.003845,0.239136,-0.043091,43.0,-90.0,29.0,-14031.0,-1081.0,8717.0,-10227.0,-973.0,1462.0,-8423.0,-174.0,6055.0,-0.464241,-0.01315,0.885499,-25786.0,4786.0,22426.0,992.0,-2049.0,665.0
2834.0,2749.0,2867.0,3093.0,2999.0,0.974854,0.014221,0.218628,-0.039734,25.0,-107.0,14.0,-12278.0,485.0,9841.0,-8776.0,400.0,2436.0,-6839.0,913.0,5956.0,-0.427391,0.010353,0.903918,-17524.0,4178.0,22218.0,592.0,-2443.0,328.0
2834.0,2774.0,2833.0,3071.0,3013.0,0.979309,0.018372,0.197632,-0.038208,6.0,-85.0,9.0,-9381.0,786.0,10290.0,-6198.0,614.0,2744.0,-4586.0,890.0,4948.0,-0.388489,0.020881,0.92111,-9524.0,1236.0,21230.0,153.0,-1940.0,210.0
2831.0,2751.0,2877.0,3099.0,3023.0,0.981079,0.018738,0.188965,-0.036987,1.0,-68.0,13.0,-7914.0,580.0,10297.0,-4865.0,393.0,2696.0,-3476.0,573.0,4320.0,-0.372165,0.022788,0.927825,-7278.0,-364.0,20400.0,42.0,-1553.0,307.0
2833.0,2754.0,2863.0,3067.0,2994.0,0.983521,0.019043,0.176758,-0.032104,6.0,-39.0,28.0,-5692.0,-252.0,9870.0,-2833.0,-465.0,2196.0,-1921.0,-411.0,3033.0,-0.348913,0.026109,0.936737,-6024.0,-3242.0,17858.0,139.0,-872.0,652.0
2837.0,2751.0,2837.0,3090.0,2975.0,0.984253,0.020142,0.172913,-0.028442,13.0,-29.0,36.0,-5008.0,-679.0,9526.0,-2210.0,-923.0,1831.0,-1510.0,-902.0,2447.0,-0.341525,0.029813,0.939258,-6306.0,-3818.0,16980.0,309.0,-651.0,838.0
2830.0,2767.0,2858.0,3110.0,3007.0,0.985352,0.025757,0.167297,-0.019043,30.0,-23.0,50.0,-4341.0,-1174.0,8867.0,-1632.0,-1537.0,1144.0,-1234.0,-1551.0,1549.0,-0.330674,0.044387,0.942629,-7550.0,-3228.0,15794.0,709.0,-525.0,1149.0
2864.0,2791.0,2843.0,3115.0,2979.0,0.986145,0.035461,0.161499,-0.007629,40.0,-31.0,58.0,-4311.0,-1038.0,8416.0,-1697.0,-1590.0,672.0,-1436.0,-1628.0,1069.0,-0.319064,0.067476,0.945201,-8988.0,-812.0,15980.0,923.0,-701.0,1342.0
2838.0,2743.0,2863.0,3055.0,3023.0,0.986633,0.041016,0.157654,-0.001221,38.0,-39.0,63.0,-4402.0,-743.0,8328.0,-1852.0,-1402.0,570.0,-1604.0,-1463.0,1003.0,-0.311193,0.08055,0.94691,-9362.0,394.0,16190.0,884.0,-873.0,1456.0
2843.0,2765.0,2857.0,3071.0,3019.0,0.987732,0.05127,0.146484,0.01416,30.0,-60.0,76.0,-4596.0,-199.0,8103.0,-2237.0,-1062.0,306.0,-2037.0,-1181.0,823.0,-0.287923,0.10543,0.951729,-9730.0,980.0,15394.0,694.0,-1374.0,1753.0
2833.0,2773.0,2864.0,3071.0,2961.0,0.988403,0.056152,0.138977,0.022766,28.0,-71.0,80.0,-4636.0,6.0,7987.0,-2406.0,-955.0,163.0,-2237.0,-1110.0,698.0,-0.272174,0.11733,0.954992,-9392.0,1190.0,15342.0,658.0,-1617.0,1849.0
2855.0,2774.0,2851.0,3119.0,3003.0,0.989624,0.066162,0.1203,0.040833,31.0,-89.0,87.0,-4484.0,318.0,7874.0,-2577.0,-835.0,-8.0,-2441.0,-1073.0,474.0,-0.232701,0.140776,0.962173,-8108.0,1382.0,15482.0,714.0,-2027.0,2000.0
2863.0,2775.0,2866.0,3099.0,2966.0,-1.21228,-1.347229,-0.940308,-1.486633,31251.0,10518.0,14591.0,20982.0,7938.0,6307.0,6843.0,23813.0,-1725.0,30498.0,3015.0,23406.0,1.725838,6.062223,0.980498,-7134.0,1442.0,15102.0,897.0,-2400.0,2275.0
2832.0,2729.0,2832.0,3088.0,3003.0,0.990173,0.085022,0.084167,0.071716,46.0,-113.0,106.0,-3936.0,545.0,7681.0,-2670.0,-933.0,-275.0,-2534.0,-1284.0,-22.0,-0.154486,0.180445,0.971274,-6630.0,1272.0,14816.0,1071.0,-2578.0,2445.0
2841.0,2772.0,2865.0,3071.0,2995.0,0.988403,0.103333,0.055237,0.095947,69.0,-128.0,124.0,-3478.0,687.0,7560.0,-2745.0,-1073.0,-406.0,-2538.0,-1503.0,-380.0,-0.089364,0.214868,0.972418,-5336.0,2056.0,14928.0,1603.0,-2920.0,2841.0
2863.0,2785.0,2832.0,3089.0,2992.0,0.983643,0.128174,0.022705,0.124146,94.0,-140.0,145.0,-2785.0,1087.0,7530.0,-2679.0,-1024.0,-383.0,-2378.0,-1534.0,-599.0,-0.012843,0.257792,0.966021,-3274.0,3862.0,15034.0,2160.0,-3198.0,3335.0
2853.0,2785.0,2865.0,3071.0,3014.0,0.979736,0.142883,0.00531,0.140076,104.0,-145.0,157.0,-2361.0,1445.0,7542.0,-2603.0,-860.0,-314.0,-2281.0,-1422.0,-620.0,0.029624,0.281464,0.959061,-2096.0,5154.0,15182.0,2393.0,-3314.0,3616.0
2843.0,2761.0,2835.0,3091.0,2999.0,0.967957,0.175964,-0.031799,0.176147,123.0,-155.0,186.0,-1459.0,2136.0,7403.0,-2471.0,-562.0,-264.0,-2114.0,-1214.0,-737.0,0.123552,0.329449,0.935993,-344.0,6102.0,14028.0,2829.0,-3538.0,4270.0
2847.0,2777.0,2863.0,3091.0,2983.0,0.949463,0.214661,-0.071106,0.21759,154.0,-164.0,211.0,-536.0,2592.0,6898.0,-2407.0,-493.0,-455.0,-1916.0,-1122.0,-1144.0,0.228441,0.376681,0.89769,2124.0,6358.0,11996.0,3548.0,-3736.0,4847.0
2851.0,2783.0,2826.0,3071.0,2995.0,0.936951,0.237,-0.091187,0.239868,176.0,-166.0,221.0,118.0,2746.0,6593.0,-2213.0,-533.0,-541.0,-1627.0,-1046.0,-1314.0,0.284572,0.400368,0.87093,4394.0,6356.0,11330.0,4038.0,-3798.0,5064.0
2851.0,2768.0,2826.0,3093.0,2995.0,0.904236,0.288208,-0.130005,0.286865,222.0,-160.0,235.0,1685.0,3120.0,5840.0,-1595.0,-538.0,-713.0,-909.0,-643.0,-1449.0,0.400464,0.446628,0.799969,8208.0,7446.0,9242.0,5100.0,-3661.0,5393.0
2848.0,2752.0,2833.0,3071.0,3023.0,0.860413,0.345276,-0.16333,0.337219,262.0,-139.0,250.0,3390.0,3346.0,4935.0,-820.0,-618.0,-866.0,-119.0,-103.0,-1333.0,0.51393,0.484003,0.708135,12032.0,7084.0,6928.0,6023.0,-3181.0,5749.0
2837.0,2763.0,2851.0,3098.0,2975.0,0.833984,0.374695,-0.177124,0.364197,281.0,-124.0,260.0,4218.0,3425.0,4393.0,-438.0,-637.0,-984.0,199.0,244.0,-1210.0,0.568363,0.495963,0.6564,13290.0,7432.0,5460.0,6444.0,-2832.0,5973.0
2863.0,2779.0,2839.0,3071.0,3003.0,0.7724,0.433167,-0.196533,0.420837,313.0,-86.0,271.0,5713.0,3798.0,3336.0,239.0,-328.0,-1148.0,334.0,984.0,-633.0,0.66819,0.503738,0.547447,15828.0,8668.0,3514.0,7188.0,-1952.0,6214.0
2857.0,2783.0,2837.0,3093.0,3007.0,0.737732,0.461182,-0.201538,0.449829,327.0,-64.0,271.0,6355.0,4023.0,2823.0,520.0,-65.0,-1218.0,179.0,1287.0,-262.0,0.712268,0.499141,0.493289,16284.0,9582.0,2560.0,7513.0,-1447.0,6219.0
2845.0,2783.0,2859.0,3091.0,2983.0,0.662781,0.513611,-0.201294,0.506287,345.0,-30.0,258.0,6931.0,4609.0,1714.0,484.0,701.0,-1491.0,-796.0,1515.0,131.0,0.786896,0.476998,0.391289,14558.0,11068.0,-70.0,7913.0,-665.0,5930.0
2855.0,2762.0,2834.0,3095.0,2993.0,0.583801,0.559448,-0.19342,0.555603,331.0,-26.0,244.0,6819.0,5209.0,718.0,-123.0,1618.0,-1732.0,-2123.0,1056.0,86.0,0.8475,0.438283,0.299125,13028.0,12042.0,-1162.0,7591.0,-589.0,5606.0
2859.0,2773.0,2834.0,3088.0,3003.0,0.544373,0.579163,-0.189575,0.576355,313.0,-31.0,236.0,6736.0,5304.0,358.0,-423.0,1928.0,-1748.0,-2550.0,665.0,-24.0,0.874006,0.412035,0.257158,13026.0,10730.0,-1296.0,7173.0,-695.0,5415.0
2857.0,2774.0,2864.0,3071.0,2975.0,0.468018,0.612366,-0.182068,0.610474,286.0,-31.0,205.0,6818.0,4786.0,37.0,-702.0,1911.0,-1466.0,-2496.0,-25.0,-243.0,0.918088,0.350901,0.183578,14218.0,7346.0,-326.0,6573.0,-705.0,4718.0
2851.0,2775.0,2875.0,3101.0,2987.0,0.431885,0.626099,-0.176392,0.624695,279.0,-22.0,184.0,6963.0,4425.0,74.0,-693.0,1800.0,-1184.0,-2223.0,-335.0,-252.0,0.934603,0.320423,0.153655,14868.0,6784.0,572.0,6394.0,-497.0,4225.0
2834.0,2767.0,2831.0,3071.0,2997.0,0.365967,0.647034,-0.160034,0.649414,249.0,0.0,142.0,7089.0,4059.0,184.0,-755.0,1882.0,-728.0,-1890.0,-987.0,-303.0,0.95752,0.265729,0.111407,13822.0,8482.0,590.0,5724.0,1.0,3257.0
2835.0,2779.0,2843.0,3071.0,3014.0,0.338135,0.654419,-0.150757,0.659241,225.0,7.0,122.0,7049.0,4062.0,366.0,-854.0,2064.0,-436.0,-1732.0,-1430.0,-363.0,0.964791,0.243794,0.097942,13890.0,8156.0,2036.0,5165.0,181.0,2804.0
2859.0,2779.0,2857.0,3087.0,2997.0,0.292236,0.662292,-0.132202,0.677063,172.0,27.0,93.0,6939.0,4118.0,802.0,-1040.0,2413.0,83.0,-1359.0,-2192.0,-503.0,0.974096,0.208073,0.087708,13322.0,8320.0,2666.0,3955.0,635.0,2146.0
2855.0,2759.0,2815.0,3071.0,2960.0,0.27478,0.663391,-0.124695,0.684692,137.0,32.0,80.0,6843.0,4129.0,933.0,-1160.0,2541.0,206.0,-1239.0,-2432.0,-622.0,0.976965,0.193818,0.088671,13140.0,8234.0,2636.0,3155.0,738.0,1854.0
2859.0,2773.0,2810.0,3103.0,2995.0,0.251282,0.660706,-0.11438,0.697998,73.0,45.0,52.0,6842.0,3876.0,1335.0,-1184.0,2463.0,509.0,-795.0,-2574.0,-684.0,0.979826,0.172373,0.100729,13728.0,6596.0,3818.0,1687.0,1039.0,1207.0
2855.0,2807.0,2834.0,3058.0,2990.0,0.240784,0.652405,-0.107788,0.710388,31.0,61.0,24.0,6868.0,2992.0,1476.0,-1150.0,1672.0,448.0,-377.0,-1880.0,-800.0,0.978829,0.161034,0.125378,13876.0,2596.0,3214.0,728.0,1409.0,551.0
2863.0,2781.0,2865.0,3089.0,2966.0,0.238281,0.646912,-0.104919,0.716675,23.0,67.0,14.0,6872.0,2484.0,1471.0,-1133.0,1190.0,316.0,-234.0,-1406.0,-874.0,0.977251,0.157908,0.140898,13718.0,2110.0,2808.0,530.0,1554.0,336.0
2854.0,2775.0,2870.0,3101.0,2993.0,0.23645,0.634766,-0.098572,0.728943,14.0,73.0,0.0,6741.0,1812.0,1478.0,-1221.0,530.0,47.0,-107.0,-749.0,-1095.0,0.97203,0.156475,0.174623,12592.0,2358.0,3400.0,332.0,1688.0,10.0
2862.0,2763.0,2838.0,3088.0,2963.0,0.236938,0.628479,-0.095032,0.73468,9.0,70.0,-5.0,6314.0,1845.0,1602.0,-1619.0,549.0,30.0,-72.0,-860.0,-1475.0,0.968495,0.158186,0.191878,9538.0,4336.0,4058.0,220.0,1620.0,-104.0
2839.0,2759.0,2827.0,3039.0,2987.0,0.242493,0.618774,-0.092346,0.741394,-32.0,18.0,-5.0,4924.0,2374.0,2624.0,-2959.0,1037.0,845.0,590.0,-1992.0,-2494.0,0.962298,0.163167,0.217058,6714.0,6116.0,9570.0,-714.0,422.0,-100.0
2839.0,2775.0,2858.0,3103.0,2990.0,0.24707,0.616638,-0.095459,0.741272,-50.0,-14.0,-2.0,5024.0,2396.0,3471.0,-2851.0,1059.0,1659.0,1260.0,-2359.0,-2201.0,0.961363,0.163184,0.221173,11776.0,4490.0,11978.0,-1128.0,-298.0,-40.0
2863.0,2780.0,2858.0,3071.0,3023.0,0.254456,0.614319,-0.104858,0.739441,-40.0,-16.0,2.0,6090.0,1623.0,4233.0,-1789.0,332.0,2405.0,2095.0,-1849.0,-1131.0,0.961869,0.157561,0.223138,15250.0,292.0,8786.0,-908.0,-347.0,60.0
2837.0,2769.0,2850.0,3063.0,3013.0,0.255981,0.61322,-0.107971,0.73938,-22.0,-5.0,2.0,6484.0,1122.0,4061.0,-1397.0,-141.0,2221.0,2126.0,-1276.0,-867.0,0.962083,0.154283,0.224512,15160.0,-798.0,6884.0,-497.0,-112.0,58.0
2846.0,2750.0,2860.0,3067.0,2999.0,0.254883,0.61145,-0.108032,0.741211,17.0,7.0,-2.0,6904.0,496.0,3496.0,-972.0,-745.0,1621.0,1878.0,-372.0,-676.0,0.961498,0.151547,0.228817,14512.0,166.0,5240.0,401.0,182.0,-43.0
2862.0,2787.0,2838.0,3088.0,2998.0,0.253235,0.611206,-0.105469,0.742371,27.0,7.0,-3.0,6989.0,622.0,3251.0,-882.0,-631.0,1362.0,1591.0,-316.0,-630.0,0.9609,0.152964,0.230545,14434.0,2546.0,5084.0,621.0,165.0,-67.0
2863.0,2785.0,2864.0,3071.0,3015.0,0.251221,0.611572,-0.100891,0.743347,10.0,-2.0,0.0,7179.0,1485.0,2962.0,-684.0,196.0,1065.0,902.0,-825.0,-379.0,0.959913,0.157285,0.231477,14964.0,5822.0,5120.0,240.0,-36.0,8.0
2851.0,2779.0,2854.0,3103.0,3007.0,0.251587,0.611877,-0.100708,0.742981,-6.0,-8.0,2.0,7221.0,1940.0,2764.0,-642.0,643.0,873.0,509.0,-1108.0,-313.0,0.9599,0.158232,0.230781,14526.0,6586.0,4148.0,-137.0,-165.0,65.0
2843.0,2783.0,2871.0,3063.0,3013.0,0.256165,0.61377,-0.105774,0.739197,-43.0,-27.0,1.0,7039.0,2639.0,2166.0,-838.0,1344.0,329.0,-306.0,-1500.0,-519.0,0.961584,0.158076,0.224131,13398.0,7156.0,2704.0,-973.0,-607.0,31.0
2851.0,2759.0,2869.0,3101.0,3003.0,0.260803,0.615356,-0.111206,0.735474,-65.0,-38.0,-2.0,6902.0,3006.0,1991.0,-988.0,1716.0,205.0,-614.0,-1783.0,-636.0,0.963163,0.157396,0.217909,12916.0,8400.0,3154.0,-1468.0,-870.0,-23.0
2867.0,2767.0,2859.0,3071.0,2993.0,0.277771,0.618713,-0.1297,0.723267,-133.0,-66.0,-7.0,6529.0,4199.0,2041.0,-1393.0,2920.0,397.0,-1203.0,-2917.0,-811.0,0.967043,0.156106,0.200643,11738.0,12902.0,4678.0,-3033.0,-1507.0,-146.0
2845.0,2770.0,2831.0,3071.0,3003.0,0.292053,0.619812,-0.144592,0.713867,-187.0,-82.0,-11.0,6245.0,5080.0,2107.0,-1696.0,3805.0,551.0,-1723.0,-3713.0,-947.0,0.969384,0.155597,0.189828,10606.0,15668.0,4440.0,-4269.0,-1865.0,-248.0
2863.0,2757.0,2833.0,3057.0,2983.0,0.337708,0.617981,-0.191895,0.683472,-344.0,-119.0,-24.0,5622.0,6882.0,1598.0,-2359.0,5611.0,267.0,-3711.0,-4628.0,-1384.0,0.974353,0.155085,0.162456,9842.0,18484.0,440.0,-7860.0,-2704.0,-549.0
2847.0,2754.0,2827.0,3071.0,2995.0,0.406311,0.603271,-0.268799,0.631348,-520.0,-141.0,-29.0,5575.0,7337.0,-340.0,-2454.0,6101.0,-1384.0,-6003.0,-2519.0,-1661.0,0.98018,0.150821,0.127499,11782.0,13870.0,-7618.0,-11895.0,-3219.0,-662.0
2847.0,2759.0,2859.0,3099.0,2999.0,0.445312,0.587463,-0.315796,0.59729,-586.0,-137.0,-26.0,5633.0,6958.0,-1878.0,-2419.0,5762.0,-2780.0,-6582.0,-212.0,-1843.0,0.983028,0.145966,0.110218,11478.0,11000.0,-13858.0,-13408.0,-3128.0,-575.0
2855.0,2783.0,2858.0,3095.0,2997.0,0.520386,0.538391,-0.41864,0.513855,-660.0,-139.0,-6.0,5279.0,4689.0,-5837.0,-2823.0,3623.0,-6408.0,-4666.0,5719.0,-2767.0,0.989019,0.130101,0.069724,8530.0,490.0,-23902.0,-15102.0,-3164.0,-122.0
2864.0,2768.0,2826.0,3111.0,2999.0,0.575317,0.470764,-0.522278,0.417725,-647.0,-157.0,28.0,4359.0,1050.0,-9237.0,-3785.0,187.0,-9327.0,1356.0,9202.0,-3846.0,0.994251,0.105341,0.011091,5904.0,-9668.0,-26646.0,-14806.0,-3578.0,644.0
2855.0,2771.0,2829.0,3050.0,2975.0,0.59198,0.433044,-0.570618,0.369263,-611.0,-166.0,43.0,3932.0,-956.0,-10262.0,-4222.0,-1703.0,-10046.0,4839.0,9025.0,-4093.0,0.995403,0.091292,-0.026337,5478.0,-13956.0,-25972.0,-13994.0,-3793.0,1005.0
2863.0,2768.0,2857.0,3067.0,3011.0,0.604675,0.358704,-0.652954,0.281616,-491.0,-166.0,58.0,3742.0,-4680.0,-10864.0,-4381.0,-5220.0,-9962.0,10126.0,5496.0,-3592.0,0.991684,0.066034,-0.110077,8124.0,-19662.0,-21714.0,-11238.0,-3785.0,1347.0
2843.0,2750.0,2833.0,3059.0,2973.0,0.601196,0.296509,-0.709229,0.218262,-330.0,-105.0,48.0,5570.0,-7443.0,-10147.0,-2476.0,-7827.0,-8657.0,11858.0,453.0,-1224.0,0.982204,0.046925,-0.181847,20382.0,-21348.0,-16222.0,-7556.0,-2394.0,1113.0
2865.0,2794.0,2853.0,3109.0,3011.0,0.602295,0.272339,-0.723694,0.198364,-254.0,-29.0,28.0,7663.0,-7772.0,-9097.0,-363.0,-8107.0,-7493.0,10901.0,-1600.0,779.0,0.979799,0.040947,-0.195794,28838.0,-15708.0,-11202.0,-5816.0,-651.0,664.0
2855.0,2791.0,2863.0,3095.0,2992.0,0.633057,0.238708,-0.716309,0.170776,-178.0,203.0,-55.0,11675.0,-4786.0,-6328.0,3577.0,-5257.0,-5179.0,6906.0,-1968.0,3958.0,0.988459,0.057575,-0.140154,32767.0,4010.0,-4572.0,-4061.0,4670.0,-1245.0
2862.0,2791.0,2850.0,3095.0,3007.0,0.707031,0.217834,-0.658997,0.13562,-203.0,432.0,-171.0,13841.0,-704.0,-4341.0,5723.0,-1763.0,-4640.0,5435.0,182.0,5273.0,0.990948,0.129285,0.036558,32767.0,7398.0,-3798.0,-4633.0,9899.0,-3896.0
2855.0,2771.0,2832.0,3093.0,2983.0,0.754272,0.207336,-0.612488,0.113708,-218.0,533.0,-211.0,14515.0,207.0,-3679.0,6559.0,-1214.0,-5020.0,6386.0,650.0,5337.0,0.971117,0.173486,0.163727,32767.0,4800.0,-3752.0,-4982.0,12229.0,-4827.0
2843.0,2758.0,2845.0,3071.0,2999.0,0.852234,0.179871,-0.486633,0.067505,-239.0,687.0,-240.0,14252.0,583.0,-3836.0,7258.0,-1390.0,-7618.0,10291.0,1113.0,2344.0,0.853735,0.240883,0.461694,21940.0,108.0,-11356.0,-5473.0,15748.0,-5488.0
2847.0,2753.0,2826.0,3071.0,2987.0,0.933716,0.145081,-0.326599,0.021179,-231.0,759.0,-245.0,9196.0,-555.0,-6014.0,4149.0,-2661.0,-12113.0,10930.0,673.0,-7146.0,0.616047,0.257094,0.744558,-376.0,-6084.0,-19542.0,-5285.0,17393.0,-5595.0
2854.0,2781.0,2859.0,3095.0,2991.0,0.96344,0.12561,-0.236511,-0.00116,-227.0,765.0,-235.0,5745.0,-1758.0,-7090.0,2014.0,-3745.0,-14106.0,8435.0,-344.0,-12073.0,0.455437,0.242585,0.856502,-9510.0,-11284.0,-19894.0,-5194.0,17532.0,-5378.0
2849.0,2774.0,2839.0,3093.0,2993.0,0.99469,0.081055,-0.050293,-0.03772,-207.0,710.0,-174.0,-680.0,-3645.0,-6686.0,-1449.0,-4997.0,-14728.0,-208.0,-2477.0,-15419.0,0.093937,0.165043,0.981732,-19142.0,-11132.0,-8002.0,-4727.0,16277.0,-3970.0
2851.0,2779.0,2847.0,3101.0,2989.0,0.990845,0.042236,0.115234,-0.055725,-142.0,538.0,-76.0,-7232.0,-4373.0,-3944.0,-5322.0,-4953.0,-11888.0,-8401.0,-3220.0,-10639.0,-0.233066,0.070856,0.969816,-32768.0,-10086.0,3030.0,-3245.0,12326.0,-1740.0
2853.0,2771.0,2835.0,3099.0,2999.0,0.974182,0.02356,0.217163,-0.056213,-35.0,255.0,2.0,-11443.0,-4277.0,1295.0,-7955.0,-4453.0,-6114.0,-10257.0,-3199.0,-2238.0,-0.425762,0.021488,0.904476,-32768.0,-6508.0,20012.0,-786.0,5857.0,53.0
2847.0,2775.0,2845.0,3089.0,2987.0,0.968933,0.024963,0.239929,-0.054199,20.0,119.0,22.0,-12753.0,-3484.0,4018.0,-8921.0,-3667.0,-3220.0,-9758.0,-2571.0,1244.0,-0.467657,0.022368,0.88358,-32768.0,-1318.0,23664.0,467.0,2730.0,508.0
2847.0,2767.0,2839.0,3095.0,2998.0,0.967896,0.039978,0.243347,-0.04834,53.0,-81.0,41.0,-14287.0,-555.0,7800.0,-10396.0,-996.0,604.0,-8946.0,-278.0,5414.0,-0.474934,0.053862,0.878342,-30856.0,8382.0,24232.0,1228.0,-1836.0,958.0
2847.0,2775.0,2847.0,3093.0,2995.0,0.974243,0.052551,0.214722,-0.043579,23.0,-164.0,23.0,-12946.0,1884.0,9559.0,-9481.0,1198.0,2168.0,-7544.0,1515.0,6066.0,-0.422963,0.083681,0.902182,-19172.0,9258.0,22566.0,549.0,-3754.0,547.0
2853.0,2779.0,2847.0,3091.0,2998.0,0.978149,0.054932,0.195618,-0.04303,8.0,-174.0,11.0,-11504.0,2402.0,9961.0,-8330.0,1659.0,2446.0,-6561.0,1860.0,5621.0,-0.387414,0.090628,0.917344,-13480.0,6876.0,22186.0,185.0,-3968.0,257.0
2847.0,2771.0,2855.0,3095.0,3003.0,0.984863,0.054565,0.158264,-0.044189,-3.0,-144.0,2.0,-7944.0,1935.0,10360.0,-5350.0,1169.0,2627.0,-4132.0,1211.0,4282.0,-0.31656,0.093492,0.943883,-4872.0,864.0,21526.0,-67.0,-3296.0,54.0
2847.0,2773.0,2845.0,3089.0,2999.0,0.989319,0.051331,0.129395,-0.042175,-5.0,-95.0,25.0,-4720.0,596.0,10422.0,-2587.0,-146.0,2548.0,-1863.0,-249.0,3109.0,-0.260355,0.09065,0.961153,-980.0,-3172.0,20412.0,-102.0,-2171.0,573.0
2841.0,2778.0,2849.0,3093.0,3003.0,0.990906,0.050232,0.118652,-0.038147,2.0,-74.0,43.0,-3614.0,-156.0,10221.0,-1656.0,-897.0,2301.0,-1150.0,-1034.0,2539.0,-0.238979,0.090498,0.966748,-1248.0,-4838.0,18978.0,57.0,-1695.0,985.0
2843.0,2771.0,2851.0,3089.0,2993.0,0.992859,0.053101,0.103455,-0.024597,32.0,-48.0,72.0,-2584.0,-1311.0,9505.0,-879.0,-2133.0,1535.0,-675.0,-2254.0,1462.0,-0.208044,0.100353,0.972851,-3546.0,-5140.0,16692.0,733.0,-1083.0,1662.0
2847.0,2773.0,2846.0,3094.0,3005.0,0.993408,0.057678,0.097656,-0.015869,47.0,-43.0,82.0,-2482.0,-1533.0,9120.0,-877.0,-2446.0,1138.0,-745.0,-2544.0,1007.0,-0.195856,0.111497,0.974248,-4690.0,-4002.0,15980.0,1089.0,-983.0,1888.0
2847.0,2775.0,2855.0,3095.0,3006.0,0.993591,0.07251,0.086548,0.003601,67.0,-48.0,93.0,-2694.0,-1156.0,8543.0,-1289.0,-2341.0,559.0,-1185.0,-2421.0,426.0,-0.171464,0.144713,0.974488,-6252.0,-126.0,15740.0,1555.0,-1080.0,2146.0
2849.0,2778.0,2849.0,3101.0,2995.0,0.992859,0.090942,0.072998,0.02478,70.0,-63.0,101.0,-2961.0,-209.0,8282.0,-1810.0,-1717.0,312.0,-1680.0,-1854.0,241.0,-0.140446,0.184204,0.972784,-6522.0,2476.0,16000.0,1610.0,-1435.0,2331.0
2843.0,2767.0,2831.0,3071.0,2998.0,0.992188,0.10022,0.064514,0.036255,68.0,-73.0,109.0,-3015.0,198.0,8197.0,-2025.0,-1469.0,238.0,-1883.0,-1653.0,176.0,-0.120753,0.203551,0.971544,-6300.0,2700.0,15848.0,1563.0,-1666.0,2506.0
2843.0,2779.0,2847.0,3089.0,2993.0,0.98999,0.118774,0.043091,0.0625,68.0,-95.0,130.0,-2966.0,756.0,7966.0,-2388.0,-1214.0,35.0,-2219.0,-1498.0,-89.0,-0.070472,0.240557,0.968023,-5274.0,2984.0,15342.0,1577.0,-2171.0,3000.0
2851.0,2771.0,2843.0,3089.0,2991.0,0.985596,0.139893,0.016418,0.093262,83.0,-111.0,153.0,-2477.0,1169.0,7753.0,-2425.0,-1115.0,-113.0,-2188.0,-1478.0,-404.0,-0.006271,0.278817,0.960257,-3060.0,3166.0,14536.0,1911.0,-2538.0,3505.0
2854.0,2769.0,2849.0,3098.0,2999.0,0.982056,0.152405,0.001404,0.110474,97.0,-118.0,165.0,-2133.0,1257.0,7528.0,-2386.0,-1197.0,-282.0,-2078.0,-1546.0,-701.0,0.030916,0.29965,0.953409,-2150.0,3024.0,13666.0,2225.0,-2696.0,3785.0
2855.0,2782.0,2852.0,3095.0,2975.0,0.971191,0.183655,-0.030762,0.148438,133.0,-128.0,187.0,-1313.0,1622.0,7165.0,-2249.0,-1225.0,-458.0,-1776.0,-1543.0,-1109.0,0.114274,0.347596,0.930571,128.0,4656.0,13466.0,3056.0,-2917.0,4288.0
2851.0,2783.0,2850.0,3090.0,2993.0,0.95343,0.223572,-0.065002,0.191406,174.0,-135.0,213.0,-284.0,1942.0,6681.0,-2000.0,-1346.0,-621.0,-1282.0,-1504.0,-1513.0,0.209537,0.401436,0.891456,2540.0,4756.0,11428.0,3993.0,-3089.0,4895.0
2851.0,2779.0,2845.0,3089.0,2997.0,0.941101,0.247253,-0.08252,0.215088,199.0,-138.0,226.0,249.0,2116.0,6281.0,-1894.0,-1405.0,-796.0,-1027.0,-1393.0,-1787.0,0.261681,0.429883,0.86399,3704.0,5430.0,10008.0,4577.0,-3158.0,5196.0
2847.0,2799.0,2854.0,3087.0,2994.0,0.907715,0.302917,-0.117188,0.265442,250.0,-144.0,246.0,1473.0,2849.0,5390.0,-1587.0,-1146.0,-1072.0,-630.0,-769.0,-1997.0,0.37356,0.487712,0.788914,6960.0,8650.0,8374.0,5746.0,-3276.0,5636.0
2843.0,2779.0,2847.0,3087.0,2995.0,0.861877,0.365173,-0.150146,0.318054,283.0,-138.0,262.0,2989.0,3779.0,4617.0,-1034.0,-595.0,-1019.0,-359.0,-30.0,-1526.0,0.491106,0.53396,0.688096,10682.0,10082.0,6798.0,6497.0,-3157.0,6008.0
2854.0,2787.0,2858.0,3071.0,2999.0,0.834412,0.396606,-0.164917,0.345215,295.0,-128.0,269.0,3798.0,4165.0,4212.0,-699.0,-324.0,-956.0,-263.0,285.0,-1164.0,0.549046,0.548002,0.630922,12480.0,10540.0,6074.0,6765.0,-2931.0,6166.0
2854.0,2773.0,2861.0,3094.0,3003.0,0.77124,0.457031,-0.188477,0.400818,314.0,-97.0,276.0,5375.0,4759.0,3369.0,-7.0,221.0,-817.0,-240.0,753.0,-299.0,0.657094,0.553872,0.511065,15020.0,10968.0,3654.0,7214.0,-2221.0,6336.0
2857.0,2775.0,2859.0,3103.0,2991.0,0.698425,0.513123,-0.202759,0.45575,331.0,-72.0,273.0,6322.0,5099.0,1925.0,170.0,741.0,-1278.0,-776.0,1267.0,22.0,0.750934,0.531941,0.3911,14784.0,10960.0,-894.0,7588.0,-1649.0,6259.0
2855.0,2766.0,2835.0,3088.0,2993.0,0.659058,0.539673,-0.206726,0.481262,337.0,-66.0,264.0,6635.0,5208.0,1151.0,147.0,1010.0,-1568.0,-1186.0,1441.0,113.0,0.791937,0.512372,0.331988,15100.0,10876.0,-2210.0,7723.0,-1511.0,6066.0
2851.0,2782.0,2855.0,3071.0,2994.0,0.576599,0.588074,-0.209473,0.526978,337.0,-56.0,247.0,7153.0,5164.0,25.0,96.0,1417.0,-1781.0,-1849.0,1285.0,338.0,0.861367,0.457391,0.220462,15544.0,10264.0,-2828.0,7731.0,-1267.0,5674.0
2849.0,2783.0,2853.0,3103.0,2999.0,0.534668,0.609009,-0.208984,0.547241,328.0,-51.0,240.0,7308.0,5281.0,-329.0,16.0,1819.0,-1728.0,-2288.0,905.0,487.0,0.890024,0.422505,0.170777,15486.0,11462.0,-2504.0,7516.0,-1153.0,5514.0
2851.0,2779.0,2854.0,3103.0,2991.0,0.454773,0.642151,-0.206177,0.581604,286.0,-38.0,218.0,7560.0,5433.0,-381.0,-95.0,2612.0,-1120.0,-2722.0,-411.0,709.0,0.934482,0.344239,0.090215,15896.0,10936.0,344.0,6566.0,-863.0,5009.0
2858.0,2786.0,2855.0,3107.0,2999.0,0.385986,0.66272,-0.201111,0.609375,232.0,-18.0,177.0,7500.0,5512.0,137.0,-388.0,3328.0,-196.0,-2648.0,-1997.0,505.0,0.962942,0.266498,0.04068,13954.0,11506.0,1696.0,5316.0,-398.0,4061.0
2850.0,2775.0,2853.0,3071.0,2967.0,0.358093,0.669189,-0.197571,0.6203,200.0,-9.0,151.0,7328.0,5378.0,501.0,-632.0,3459.0,286.0,-2350.0,-2622.0,203.0,0.971694,0.234158,0.026154,13650.0,9698.0,3332.0,4582.0,-184.0,3466.0
2845.0,2783.0,2849.0,3071.0,2995.0,0.314819,0.675354,-0.190308,0.63916,140.0,13.0,108.0,6996.0,4573.0,993.0,-1057.0,3082.0,867.0,-1504.0,-2980.0,-465.0,0.983144,0.181955,0.015317,13218.0,5920.0,2992.0,3221.0,303.0,2475.0
2863.0,2787.0,2855.0,3101.0,2990.0,0.298401,0.675781,-0.187561,0.647339,113.0,20.0,93.0,6993.0,3911.0,1190.0,-1091.0,2596.0,1057.0,-954.0,-2778.0,-642.0,0.986856,0.160476,0.016231,14246.0,3556.0,3696.0,2598.0,481.0,2141.0
2861.0,2779.0,2843.0,3107.0,3006.0,0.2724,0.671631,-0.183472,0.664062,81.0,44.0,74.0,7177.0,2430.0,1499.0,-949.0,1428.0,1249.0,72.0,-1990.0,-728.0,0.991965,0.122231,0.030431,14822.0,890.0,3478.0,1864.0,1027.0,1708.0
2855.0,2767.0,2831.0,3067.0,3007.0,0.262207,0.667603,-0.181396,0.672729,69.0,55.0,64.0,7235.0,1846.0,1552.0,-902.0,977.0,1202.0,357.0,-1592.0,-741.0,0.993359,0.106039,0.04272,14714.0,374.0,3360.0,1587.0,1275.0,1482.0
2847.0,2781.0,2831.0,3051.0,2999.0,0.249023,0.65741,-0.175598,0.689087,40.0,61.0,33.0,5819.0,1715.0,1788.0,-2319.0,1015.0,1183.0,412.0,-1760.0,-2129.0,0.993481,0.085416,0.073831,2702.0,5308.0,4164.0,921.0,1403.0,774.0
2864.0,2790.0,2835.0,3089.0,2999.0,0.24823,0.654053,-0.174805,0.69281,-7.0,16.0,21.0,4113.0,2157.0,2119.0,-4022.0,1481.0,1436.0,413.0,-2485.0,-3752.0,0.993052,0.082498,0.083262,-1364.0,7160.0,7168.0,-148.0,387.0,491.0
2859.0,2781.0,2847.0,3071.0,2975.0,0.256165,0.652649,-0.188477,0.687622,-85.0,-49.0,18.0,5306.0,1690.0,4223.0,-2837.0,1074.0,3592.0,2282.0,-3290.0,-2463.0,0.994114,0.07517,0.07697,17998.0,-1108.0,13300.0,-1939.0,-1115.0,432.0
2851.0,2765.0,2857.0,3071.0,3003.0,0.262329,0.647888,-0.20575,0.684814,-55.0,-9.0,19.0,6864.0,-149.0,4005.0,-1289.0,-625.0,3384.0,3058.0,-1737.0,-1063.0,0.995315,0.058119,0.075695,16908.0,-4868.0,5952.0,-1240.0,-206.0,440.0
2851.0,2773.0,2827.0,3071.0,3003.0,0.263428,0.645325,-0.210571,0.685364,-31.0,2.0,11.0,7163.0,-689.0,3604.0,-992.0,-1109.0,2962.0,3021.0,-1093.0,-812.0,0.995505,0.051357,0.078333,15744.0,-4312.0,4716.0,-694.0,60.0,267.0
2847.0,2783.0,2832.0,3087.0,3007.0,0.263245,0.642395,-0.212158,0.687744,8.0,7.0,-4.0,7384.0,-1009.0,2815.0,-769.0,-1389.0,2121.0,2546.0,-333.0,-650.0,0.995306,0.046393,0.084607,15230.0,-1374.0,3444.0,192.0,178.0,-73.0
2851.0,2765.0,2842.0,3095.0,3005.0,0.262695,0.641968,-0.210754,0.688782,12.0,5.0,-5.0,7459.0,-656.0,2499.0,-692.0,-1040.0,1787.0,2066.0,-380.0,-582.0,0.99508,0.046956,0.086889,15390.0,1216.0,3244.0,287.0,126.0,-102.0
2869.0,2766.0,2807.0,3103.0,2989.0,0.263794,0.641785,-0.208801,0.689087,-7.0,-2.0,-4.0,7491.0,454.0,1925.0,-657.0,37.0,1196.0,927.0,-840.0,-545.0,0.994652,0.050833,0.088942,14822.0,4176.0,2118.0,-160.0,-32.0,-84.0
2843.0,2791.0,2843.0,3071.0,3003.0,0.266052,0.641724,-0.209717,0.688049,-24.0,-6.0,-4.0,7443.0,883.0,1677.0,-705.0,449.0,952.0,473.0,-1014.0,-593.0,0.994666,0.052873,0.088405,14590.0,4042.0,1952.0,-538.0,-137.0,-83.0
2851.0,2779.0,2832.0,3071.0,2995.0,0.273987,0.640686,-0.216431,0.683716,-59.0,-14.0,-3.0,7302.0,1252.0,1475.0,-846.0,800.0,776.0,90.0,-1189.0,-731.0,0.994693,0.055125,0.085215,14140.0,2844.0,2872.0,-1340.0,-303.0,-63.0
2859.0,2778.0,2845.0,3071.0,2989.0,0.279785,0.639465,-0.222107,0.680725,-75.0,-16.0,-5.0,7183.0,1179.0,1537.0,-967.0,724.0,853.0,179.0,-1195.0,-850.0,0.994885,0.055438,0.083419,13554.0,1762.0,3612.0,-1700.0,-359.0,-99.0
2859.0,2782.0,2847.0,3103.0,3015.0,0.295715,0.635742,-0.238037,0.672058,-116.0,-28.0,-10.0,6675.0,1025.0,1826.0,-1478.0,565.0,1184.0,474.0,-1366.0,-1346.0,0.995294,0.056048,0.07828,11562.0,1820.0,4818.0,-2639.0,-621.0,-219.0
2850.0,2778.0,2845.0,3067.0,2993.0,0.306763,0.633118,-0.24884,0.665588,-144.0,-34.0,-14.0,6395.0,1130.0,2096.0,-1759.0,661.0,1486.0,564.0,-1688.0,-1602.0,0.995461,0.057183,0.074352,11138.0,3320.0,5872.0,-3283.0,-765.0,-300.0
2855.0,2783.0,2865.0,3071.0,2999.0,0.339417,0.624146,-0.27832,0.64624,-233.0,-43.0,-25.0,5944.0,1909.0,2514.0,-2212.0,1384.0,1974.0,110.0,-2598.0,-1983.0,0.995629,0.063967,0.06581,10764.0,6450.0,5730.0,-5320.0,-977.0,-568.0
2851.0,2775.0,2864.0,3059.0,3015.0,0.389893,0.606445,-0.320801,0.614197,-349.0,-44.0,-45.0,5731.0,2830.0,2071.0,-2420.0,2184.0,1591.0,-1204.0,-2667.0,-2142.0,0.995109,0.078827,0.058565,11182.0,7904.0,1296.0,-7975.0,-986.0,-1019.0
2867.0,2801.0,2815.0,3091.0,2975.0,0.421631,0.592773,-0.34668,0.592102,-405.0,-39.0,-57.0,5775.0,2912.0,1329.0,-2370.0,2180.0,863.0,-1769.0,-1875.0,-2112.0,0.994306,0.089324,0.05679,12040.0,5686.0,-2260.0,-9255.0,-884.0,-1283.0
2851.0,2769.0,2802.0,3069.0,2979.0,0.491516,0.553955,-0.403015,0.537659,-475.0,-16.0,-73.0,6183.0,1976.0,-830.0,-1942.0,1065.0,-1332.0,-1492.0,938.0,-1889.0,0.991854,0.111187,0.061378,13822.0,-86.0,-8696.0,-10876.0,-364.0,-1657.0
2855.0,2829.0,2885.0,3071.0,3007.0,0.562073,0.500977,-0.455566,0.474854,-495.0,23.0,-87.0,6936.0,687.0,-3049.0,-1156.0,-382.0,-3728.0,359.0,3605.0,-1500.0,0.987904,0.130516,0.082893,16950.0,-2380.0,-12676.0,-11324.0,531.0,-1988.0
2861.0,2771.0,2879.0,3071.0,3007.0,0.597107,0.470459,-0.476257,0.441833,-490.0,55.0,-104.0,7643.0,93.0,-3999.0,-421.0,-1061.0,-4847.0,1711.0,4552.0,-1066.0,0.984482,0.140976,0.103601,19912.0,-3192.0,-13246.0,-11218.0,1278.0,-2368.0
2851.0,2778.0,2850.0,3058.0,2963.0,0.6698,0.404053,-0.497192,0.375305,-464.0,155.0,-157.0,9778.0,-462.0,-5010.0,1837.0,-1838.0,-6476.0,4422.0,5387.0,312.0,0.969325,0.168071,0.179027,27040.0,-1868.0,-11654.0,-10614.0,3557.0,-3581.0
2855.0,2786.0,2858.0,3071.0,2998.0,0.749329,0.334595,-0.480225,0.30957,-416.0,293.0,-227.0,12192.0,-222.0,-4626.0,4599.0,-1894.0,-7204.0,6775.0,5303.0,1608.0,0.926853,0.204116,0.314758,30742.0,1604.0,-6230.0,-9514.0,6732.0,-5181.0
2843.0,2758.0,2851.0,3089.0,2971.0,0.8349,0.266235,-0.416199,0.242371,-370.0,452.0,-299.0,13370.0,1243.0,-2704.0,6619.0,-746.0,-6895.0,7916.0,5115.0,1744.0,0.824024,0.242811,0.511699,28266.0,7546.0,1268.0,-8455.0,10360.0,-6839.0
2839.0,2771.0,2815.0,3121.0,2951.0,0.877808,0.231384,-0.364746,0.206848,-356.0,538.0,-330.0,13007.0,1954.0,-1799.0,6977.0,-137.0,-6933.0,8371.0,5107.0,755.0,0.736077,0.255328,0.626754,22304.0,7718.0,1138.0,-8154.0,12333.0,-7548.0
2839.0,2771.0,2831.0,3089.0,2991.0,0.950562,0.158691,-0.231567,0.132446,-332.0,621.0,-346.0,9480.0,1924.0,-1913.0,5529.0,-44.0,-8813.0,8265.0,4144.0,-4767.0,0.482274,0.240351,0.842303,5454.0,-42.0,-6652.0,-7589.0,14241.0,-7907.0
2877.0,2747.0,2865.0,3101.0,2983.0,0.989563,0.079956,-0.094849,0.073242,-292.0,526.0,-213.0,2424.0,-1374.0,-2684.0,790.0,-2556.0,-10623.0,3046.0,-564.0,-10507.0,0.19943,0.144349,0.96921,-21612.0,-16584.0,-10754.0,-6667.0,12066.0,-4872.0
2851.0,2775.0,2875.0,2870.0,2982.0,0.996887,0.043823,-0.035828,0.054688,-222.0,422.0,-152.0,-2354.0,-4589.0,-2652.0,-2978.0,-5272.0,-10791.0,-1641.0,-4550.0,-11388.0,0.076225,0.083455,0.993571,-32768.0,-30088.0,-2014.0,-5077.0,9670.0,-3464.0
2851.0,2782.0,2847.0,3062.0,3015.0,0.997925,0.004883,0.055176,0.031494,-2.0,256.0,-83.0,-8550.0,-8190.0,2060.0,-7650.0,-8298.0,-6081.0,-7741.0,-8727.0,-5312.0,-0.109815,0.013221,0.993778,-29132.0,-17252.0,22612.0,-44.0,5872.0,-1894.0
2851.0,2783.0,2875.0,3111.0,2990.0,0.993896,0.017883,0.107849,0.01416,109.0,129.0,-54.0,-9619.0,-4678.0,7597.0,-7866.0,-4994.0,-399.0,-7644.0,-5227.0,1100.0,-0.213875,0.038603,0.976079,-19076.0,5672.0,29484.0,2513.0,2968.0,-1217.0
2873.0,2791.0,2807.0,3071.0,3025.0,0.991943,0.032104,0.121826,0.007751,109.0,77.0,-40.0,-9392.0,-1998.0,9431.0,-7416.0,-2535.0,1500.0,-6811.0,-2793.0,3074.0,-0.241192,0.06558,0.968139,-17204.0,12176.0,28806.0,2502.0,1783.0,-897.0
2849.0,2775.0,2835.0,3107.0,2959.0,0.989746,0.052673,0.132507,0.001831,30.0,0.0,-7.0,-8449.0,2315.0,11291.0,-6301.0,1456.0,3432.0,-5163.0,980.0,5096.0,-0.262104,0.104752,0.959268,-13028.0,14408.0,26062.0,700.0,12.0,-160.0
2874.0,2791.0,2851.0,3101.0,2987.0,0.990356,0.053223,0.127563,0.004578,-33.0,-39.0,15.0,-6671.0,3205.0,11569.0,-4605.0,2331.0,3690.0,-3509.0,1828.0,4958.0,-0.252179,0.106587,0.961722,-7320.0,5132.0,22674.0,-745.0,-885.0,364.0
2843.0,2767.0,2838.0,3105.0,3007.0,0.99115,0.049866,0.122559,0.007141,-32.0,-43.0,19.0,-5622.0,2574.0,11349.0,-3637.0,1749.0,3444.0,-2691.0,1309.0,4380.0,-0.242236,0.100599,0.964922,-4854.0,748.0,21142.0,-731.0,-965.0,452.0
2855.0,2791.0,2869.0,3066.0,2991.0,0.992493,0.046204,0.112488,0.012268,1.0,-35.0,23.0,-3719.0,951.0,10605.0,-1899.0,177.0,2655.0,-1256.0,-125.0,3015.0,-0.222153,0.094474,0.970404,-2482.0,-2302.0,18768.0,43.0,-800.0,530.0
2847.0,2782.0,2803.0,3067.0,3011.0,0.992859,0.047363,0.108032,0.014771,17.0,-32.0,25.0,-3068.0,460.0,10212.0,-1322.0,-336.0,2248.0,-798.0,-590.0,2434.0,-0.213122,0.097241,0.972073,-2584.0,-1574.0,18100.0,404.0,-715.0,578.0
2853.0,2767.0,2850.0,3102.0,2967.0,0.993286,0.053406,0.100403,0.020325,28.0,-29.0,28.0,-2395.0,206.0,9488.0,-778.0,-696.0,1508.0,-436.0,-885.0,1545.0,-0.197287,0.110176,0.974097,-3454.0,348.0,16880.0,650.0,-659.0,660.0
2832.0,2762.0,2844.0,3071.0,3003.0,0.993469,0.059753,0.09314,0.026489,22.0,-31.0,30.0,-2140.0,292.0,8821.0,-649.0,-721.0,830.0,-450.0,-850.0,838.0,-0.181897,0.123661,0.975437,-3690.0,904.0,15728.0,522.0,-693.0,692.0
2855.0,2767.0,2865.0,3057.0,2991.0,0.993591,0.062378,0.089355,0.029602,19.0,-32.0,29.0,-2039.0,320.0,8525.0,-614.0,-738.0,527.0,-472.0,-836.0,525.0,-0.173873,0.129247,0.976225,-3472.0,768.0,15336.0,450.0,-713.0,668.0
2847.0,2783.0,2847.0,3071.0,3011.0,0.993713,0.067017,0.081909,0.035095,18.0,-32.0,25.0,-1903.0,342.0,8056.0,-607.0,-796.0,48.0,-542.0,-841.0,32.0,-0.158085,0.13894,0.977498,-3564.0,798.0,14900.0,417.0,-714.0,579.0
2839.0,2767.0,2866.0,3063.0,2998.0,0.993774,0.069275,0.078186,0.037537,18.0,-33.0,23.0,-1897.0,393.0,7874.0,-666.0,-783.0,-138.0,-628.0,-811.0,-147.0,-0.150198,0.143557,0.978085,-3800.0,1138.0,14690.0,414.0,-748.0,541.0
2847.0,2775.0,2832.0,3071.0,3007.0,0.993896,0.074158,0.069702,0.04187,19.0,-42.0,22.0,-1927.0,544.0,7653.0,-842.0,-711.0,-368.0,-832.0,-727.0,-357.0,-0.132343,0.153247,0.979226,-3944.0,1602.0,14864.0,453.0,-946.0,511.0
2864.0,2782.0,2832.0,3071.0,2999.0,0.993958,0.076965,0.064331,0.044189,21.0,-50.0,25.0,-1931.0,601.0,7591.0,-939.0,-698.0,-435.0,-931.0,-714.0,-423.0,-0.121083,0.158686,0.979842,-3876.0,1476.0,14834.0,493.0,-1123.0,585.0
2843.0,2755.0,2831.0,3071.0,3007.0,0.993896,0.083679,0.050354,0.05072,28.0,-67.0,39.0,-1904.0,590.0,7568.0,-1153.0,-814.0,-467.0,-1116.0,-849.0,-491.0,-0.091605,0.171445,0.980865,-3580.0,1024.0,15328.0,652.0,-1528.0,903.0
2858.0,2781.0,2823.0,3071.0,3015.0,0.993652,0.088013,0.041748,0.055298,34.0,-75.0,48.0,-1845.0,584.0,7659.0,-1245.0,-886.0,-376.0,-1176.0,-948.0,-436.0,-0.073232,0.179525,0.980914,-3308.0,1174.0,15956.0,798.0,-1710.0,1114.0
2861.0,2783.0,2843.0,3089.0,3007.0,0.992371,0.099609,0.021484,0.068665,52.0,-91.0,76.0,-1711.0,532.0,7898.0,-1473.0,-1111.0,-123.0,-1317.0,-1261.0,-300.0,-0.028962,0.200649,0.979131,-3104.0,748.0,16408.0,1193.0,-2066.0,1749.0
2842.0,2759.0,2853.0,3071.0,2987.0,0.991028,0.107483,0.009766,0.078186,65.0,-100.0,95.0,-1697.0,472.0,8002.0,-1676.0,-1285.0,1.0,-1458.0,-1502.0,-270.0,-0.002549,0.214564,0.976601,-3374.0,556.0,16590.0,1499.0,-2276.0,2182.0
2851.0,2773.0,2835.0,3071.0,3003.0,0.985901,0.129761,-0.017639,0.104126,106.0,-123.0,136.0,-1564.0,392.0,8088.0,-2070.0,-1673.0,177.0,-1674.0,-2041.0,-378.0,0.061804,0.252189,0.965694,-2294.0,686.0,16448.0,2442.0,-2802.0,3131.0
2851.0,2774.0,2831.0,3103.0,2987.0,0.975037,0.165894,-0.049805,0.138733,174.0,-139.0,172.0,-951.0,547.0,8021.0,-2123.0,-1989.0,320.0,-1476.0,-2450.0,-619.0,0.143153,0.309685,0.939942,598.0,2008.0,15370.0,4002.0,-3168.0,3952.0
2843.0,2759.0,2834.0,3089.0,2987.0,0.96637,0.190735,-0.066528,0.158997,215.0,-142.0,188.0,-422.0,780.0,7789.0,-1972.0,-2066.0,265.0,-1185.0,-2470.0,-847.0,0.189234,0.347485,0.918344,2556.0,3230.0,13896.0,4935.0,-3235.0,4310.0
2847.0,2767.0,2855.0,3089.0,2999.0,0.939941,0.254456,-0.099182,0.204651,292.0,-140.0,214.0,1100.0,1947.0,6850.0,-1280.0,-1639.0,-119.0,-424.0,-1655.0,-1190.0,0.2906,0.437751,0.850787,7322.0,8422.0,10470.0,6690.0,-3193.0,4908.0
2851.0,2774.0,2831.0,3095.0,2979.0,0.899292,0.330566,-0.128601,0.255676,340.0,-128.0,237.0,2817.0,3657.0,5494.0,-462.0,-674.0,-635.0,20.0,-192.0,-1016.0,0.400336,0.528791,0.748284,10542.0,12578.0,6320.0,7788.0,-2923.0,5435.0
2862.0,2772.0,2832.0,3071.0,3007.0,0.873535,0.369995,-0.141541,0.282654,352.0,-120.0,248.0,3588.0,4475.0,4676.0,-151.0,-164.0,-943.0,13.0,533.0,-808.0,0.456442,0.566394,0.686027,11720.0,13734.0,4466.0,8066.0,-2733.0,5686.0
2839.0,2767.0,2859.0,3101.0,2991.0,0.812012,0.445984,-0.163818,0.338745,361.0,-98.0,268.0,5021.0,5838.0,3142.0,366.0,813.0,-1350.0,-352.0,1578.0,-33.0,0.568195,0.613303,0.548373,14188.0,15616.0,1826.0,8283.0,-2229.0,6155.0
2853.0,2783.0,2861.0,3102.0,3007.0,0.776978,0.481201,-0.172852,0.367188,360.0,-85.0,274.0,5675.0,6489.0,2471.0,579.0,1403.0,-1437.0,-767.0,1865.0,545.0,0.621986,0.620827,0.477089,15190.0,16944.0,1034.0,8261.0,-1934.0,6284.0
2861.0,2785.0,2855.0,3071.0,2989.0,0.701721,0.543213,-0.185669,0.421875,346.0,-58.0,269.0,6707.0,7551.0,1428.0,817.0,2589.0,-1364.0,-1855.0,1711.0,1690.0,0.718912,0.60571,0.340838,15886.0,17382.0,-78.0,7933.0,-1315.0,6165.0
2863.0,2769.0,2839.0,3063.0,2983.0,0.62439,0.592712,-0.191772,0.471069,320.0,-36.0,252.0,7036.0,8057.0,578.0,499.0,3473.0,-1254.0,-2991.0,825.0,2060.0,0.797899,0.559491,0.223684,14408.0,17176.0,-1142.0,7333.0,-816.0,5779.0
2863.0,2771.0,2831.0,3071.0,3015.0,0.586731,0.61261,-0.193542,0.492859,297.0,-31.0,243.0,7027.0,8145.0,281.0,219.0,3818.0,-1147.0,-3449.0,215.0,1998.0,0.830975,0.528096,0.174414,13896.0,16540.0,-1046.0,6817.0,-703.0,5587.0
2834.0,2755.0,2855.0,3093.0,2979.0,0.516418,0.641968,-0.198486,0.530701,241.0,-23.0,228.0,6995.0,7746.0,5.0,-266.0,4040.0,-788.0,-3714.0,-955.0,1515.0,0.886389,0.452374,0.096812,14020.0,13120.0,-314.0,5523.0,-525.0,5223.0
2847.0,2771.0,2807.0,3053.0,3005.0,0.484314,0.651978,-0.201416,0.547424,217.0,-16.0,215.0,7023.0,7174.0,53.0,-422.0,3807.0,-508.0,-3416.0,-1391.0,1146.0,0.908914,0.411004,0.06859,14200.0,10778.0,578.0,4987.0,-359.0,4938.0
2847.0,2775.0,2853.0,3061.0,3007.0,0.427307,0.665039,-0.20575,0.576782,170.0,-7.0,181.0,6779.0,6245.0,370.0,-946.0,3533.0,118.0,-2874.0,-2245.0,280.0,0.943002,0.331007,0.030659,12472.0,10362.0,1994.0,3896.0,-146.0,4162.0
2853.0,2767.0,2875.0,3071.0,2993.0,0.383972,0.670105,-0.209717,0.599548,123.0,7.0,143.0,6628.0,5276.0,1194.0,-1273.0,3120.0,1080.0,-1865.0,-2980.0,-391.0,0.964571,0.263133,0.013871,12634.0,7492.0,4356.0,2829.0,183.0,3280.0
2862.0,2766.0,2842.0,3071.0,2999.0,0.36676,0.670288,-0.210876,0.609619,103.0,15.0,124.0,6520.0,4627.0,1384.0,-1441.0,2705.0,1282.0,-1366.0,-2933.0,-750.0,0.971923,0.234561,0.012394,12438.0,5056.0,3710.0,2374.0,354.0,2848.0
2853.0,2777.0,2847.0,3115.0,3007.0,0.339233,0.667664,-0.212708,0.627563,75.0,27.0,92.0,6448.0,2940.0,1580.0,-1599.0,1416.0,1433.0,-205.0,-2220.0,-1281.0,0.982318,0.186013,0.017896,13068.0,534.0,3712.0,1720.0,624.0,2124.0
2855.0,2763.0,2853.0,3054.0,3003.0,0.327881,0.6651,-0.212646,0.636292,71.0,37.0,78.0,6525.0,2099.0,1661.0,-1551.0,742.0,1457.0,355.0,-1753.0,-1370.0,0.98584,0.165537,0.024796,13596.0,-696.0,3772.0,1629.0,851.0,1808.0
2854.0,2777.0,2815.0,3103.0,2979.0,0.308838,0.657898,-0.20813,0.654541,71.0,60.0,51.0,6677.0,876.0,1734.0,-1431.0,-220.0,1343.0,1052.0,-939.0,-1381.0,0.989799,0.133909,0.047657,13670.0,-1094.0,3550.0,1641.0,1383.0,1184.0
2865.0,2789.0,2842.0,3071.0,3006.0,0.30127,0.653381,-0.203552,0.66394,70.0,70.0,38.0,6691.0,533.0,1755.0,-1421.0,-477.0,1236.0,1188.0,-660.0,-1387.0,0.990261,0.123395,0.06324,13366.0,-738.0,3650.0,1608.0,1616.0,889.0
2861.0,2773.0,2857.0,3111.0,2998.0,0.290527,0.642822,-0.191772,0.682312,58.0,77.0,19.0,5606.0,568.0,1867.0,-2492.0,-348.0,1048.0,1038.0,-775.0,-2397.0,0.988641,0.111818,0.099959,3380.0,3366.0,3886.0,1334.0,1772.0,443.0
2863.0,2767.0,2809.0,3060.0,2997.0,0.289001,0.639038,-0.18689,0.687866,25.0,39.0,5.0,4093.0,1103.0,2162.0,-3993.0,183.0,1233.0,898.0,-1545.0,-3781.0,0.987168,0.112256,0.113384,-418.0,5358.0,7262.0,583.0,913.0,134.0
2851.0,2755.0,2869.0,3062.0,3007.0,0.294861,0.636292,-0.188843,0.687378,-43.0,-29.0,-5.0,4605.0,1098.0,4189.0,-3473.0,150.0,3214.0,2413.0,-2726.0,-3025.0,0.98611,0.115622,0.118903,14518.0,-548.0,13760.0,-970.0,-651.0,-106.0
2839.0,2774.0,2820.0,3047.0,2992.0,0.299133,0.633423,-0.196167,0.686096,-22.0,-9.0,1.0,6077.0,-260.0,4444.0,-2004.0,-1159.0,3456.0,3399.0,-1702.0,-1687.0,0.986538,0.109777,0.120503,15560.0,-4398.0,7828.0,-498.0,-199.0,31.0
2850.0,2787.0,2827.0,3103.0,2992.0,0.299255,0.631897,-0.197388,0.687134,-3.0,2.0,-3.0,6492.0,-650.0,4159.0,-1589.0,-1526.0,3147.0,3404.0,-1167.0,-1342.0,0.986534,0.106934,0.123451,15158.0,-3026.0,6504.0,-52.0,68.0,-49.0
2857.0,2766.0,2835.0,3091.0,3006.0,0.298584,0.630432,-0.193298,0.68988,23.0,9.0,-16.0,6960.0,-729.0,3461.0,-1111.0,-1628.0,2393.0,2902.0,-510.0,-961.0,0.985277,0.109768,0.130278,15184.0,-1146.0,4736.0,544.0,216.0,-363.0
2840.0,2739.0,2843.0,3091.0,2979.0,0.297852,0.630554,-0.189697,0.691162,28.0,8.0,-17.0,7157.0,-541.0,3133.0,-909.0,-1469.0,2044.0,2531.0,-357.0,-790.0,0.984634,0.1134,0.132837,15434.0,342.0,4434.0,656.0,189.0,-370.0
2847.0,2752.0,2823.0,3063.0,2975.0,0.29657,0.631287,-0.183777,0.692566,13.0,-1.0,-6.0,7357.0,492.0,2627.0,-699.0,-490.0,1518.0,1495.0,-709.0,-540.0,0.983421,0.119886,0.135304,14850.0,4780.0,3800.0,313.0,-18.0,-129.0
2847.0,2769.0,2834.0,3098.0,2995.0,0.297241,0.631836,-0.183289,0.691895,-6.0,-10.0,-2.0,7313.0,1140.0,2374.0,-742.0,140.0,1274.0,903.0,-1040.0,-541.0,0.983289,0.121983,0.134259,14230.0,6200.0,3256.0,-136.0,-221.0,-27.0
2845.0,2786.0,2827.0,3088.0,3003.0,0.303528,0.633057,-0.188965,0.686523,-57.0,-30.0,-2.0,6939.0,2294.0,1971.0,-1121.0,1271.0,930.0,-116.0,-1743.0,-826.0,0.983929,0.124843,0.126975,12356.0,7802.0,2986.0,-1289.0,-682.0,-45.0
2851.0,2787.0,2839.0,3095.0,3007.0,0.310364,0.633484,-0.19574,0.681152,-92.0,-44.0,-6.0,6667.0,2867.0,1897.0,-1398.0,1830.0,908.0,-547.0,-2180.0,-1035.0,0.984499,0.126564,0.120678,11722.0,9220.0,3512.0,-2105.0,-999.0,-126.0
2842.0,2799.0,2833.0,3071.0,3007.0,0.335266,0.632568,-0.220276,0.662476,-190.0,-72.0,-18.0,6358.0,4026.0,2003.0,-1717.0,2942.0,1162.0,-1367.0,-3111.0,-1184.0,0.985824,0.132303,0.102613,12130.0,11692.0,4404.0,-4331.0,-1647.0,-394.0
2859.0,2771.0,2847.0,3071.0,2983.0,0.379333,0.62439,-0.262512,0.630249,-327.0,-91.0,-30.0,6127.0,5304.0,1556.0,-1951.0,4134.0,881.0,-2945.0,-3376.0,-1261.0,0.986201,0.142808,0.082333,11766.0,14172.0,566.0,-7470.0,-2079.0,-676.0
2851.0,2775.0,2853.0,3071.0,2987.0,0.409241,0.615417,-0.291504,0.607239,-402.0,-97.0,-37.0,6089.0,5754.0,860.0,-1988.0,4527.0,266.0,-3922.0,-2743.0,-1263.0,0.986001,0.149683,0.072504,11974.0,13928.0,-3134.0,-9193.0,-2206.0,-831.0
2863.0,2778.0,2858.0,3088.0,2983.0,0.47937,0.584595,-0.362,0.545288,-526.0,-102.0,-46.0,6083.0,5780.0,-1806.0,-1982.0,4422.0,-2251.0,-5120.0,722.0,-1341.0,0.984609,0.165686,0.05434,12222.0,10270.0,-13188.0,-12042.0,-2328.0,-1048.0
2863.0,2775.0,2858.0,3103.0,3013.0,0.550293,0.535583,-0.441589,0.463928,-592.0,-107.0,-42.0,6161.0,4348.0,-5190.0,-1891.0,2875.0,-5486.0,-3227.0,5398.0,-1540.0,0.982952,0.179724,0.036201,12450.0,2432.0,-20320.0,-13553.0,-2443.0,-959.0
2855.0,2794.0,2863.0,3095.0,3007.0,0.606873,0.471313,-0.519592,0.373596,-581.0,-110.0,-22.0,5946.0,1495.0,-7981.0,-2105.0,-10.0,-8110.0,1887.0,7861.0,-2198.0,0.982814,0.183819,0.015756,10914.0,-6980.0,-22960.0,-13298.0,-2519.0,-483.0
2862.0,2781.0,2857.0,3051.0,3010.0,0.626709,0.436096,-0.555298,0.329712,-547.0,-112.0,-7.0,5749.0,-220.0,-8806.0,-2308.0,-1698.0,-8830.0,4747.0,7540.0,-2602.0,0.983593,0.180434,0.002939,10248.0,-10744.0,-21870.0,-12524.0,-2552.0,-158.0
2855.0,2751.0,2851.0,3039.0,2979.0,0.649597,0.367126,-0.615906,0.252747,-440.0,-107.0,15.0,5359.0,-3479.0,-9309.0,-2716.0,-4835.0,-9077.0,9044.0,4578.0,-3221.0,0.985761,0.165632,-0.028264,10098.0,-16408.0,-18764.0,-10065.0,-2430.0,359.0
2843.0,2767.0,2831.0,3039.0,3011.0,0.656982,0.309021,-0.658142,0.199463,-296.0,-62.0,25.0,6400.0,-5918.0,-8202.0,-1694.0,-7093.0,-7733.0,10386.0,240.0,-2248.0,0.988052,0.143493,-0.057234,19068.0,-16480.0,-10054.0,-6761.0,-1406.0,595.0
2855.0,2785.0,2859.0,3103.0,2991.0,0.661743,0.285706,-0.668457,0.183411,-230.0,-2.0,21.0,7973.0,-5948.0,-6797.0,-132.0,-7036.0,-6330.0,9326.0,-1449.0,-705.0,0.989497,0.132923,-0.056919,26342.0,-10676.0,-4808.0,-5256.0,-33.0,483.0
2862.0,2780.0,2847.0,3103.0,3013.0,0.690613,0.250244,-0.658569,0.163574,-161.0,187.0,-30.0,11722.0,-3347.0,-3693.0,3599.0,-4413.0,-3753.0,5842.0,-1891.0,2966.0,0.9915,0.130194,0.007367,32767.0,5062.0,1902.0,-3665.0,4299.0,-673.0
2857.0,2783.0,2853.0,3095.0,3011.0,0.752808,0.222534,-0.603638,0.138977,-188.0,390.0,-118.0,13866.0,700.0,-1387.0,5914.0,-670.0,-2797.0,4064.0,477.0,5147.0,0.9707,0.167267,0.172134,32767.0,11952.0,3038.0,-4291.0,8944.0,-2687.0
2851.0,2765.0,2834.0,3088.0,2991.0,0.792664,0.207275,-0.560242,0.121521,-214.0,479.0,-156.0,14534.0,1896.0,-653.0,6845.0,319.0,-2997.0,4720.0,1403.0,5627.0,0.938543,0.192437,0.286249,32767.0,9794.0,2454.0,-4883.0,10986.0,-3567.0
2855.0,2774.0,2839.0,3071.0,2999.0,0.874695,0.170105,-0.446655,0.080505,-244.0,608.0,-197.0,13594.0,2047.0,-1276.0,6968.0,198.0,-5725.0,8356.0,2221.0,2570.0,0.808763,0.225664,0.543136,19054.0,1162.0,-6848.0,-5572.0,13927.0,-4507.0
2847.0,2759.0,2864.0,3071.0,2999.0,0.943481,0.128235,-0.303345,0.036499,-225.0,667.0,-219.0,8188.0,-119.0,-3534.0,3422.0,-1919.0,-9948.0,8665.0,746.0,-6220.0,0.581761,0.219831,0.783027,-2266.0,-9460.0,-13870.0,-5137.0,15287.0,-5002.0
2859.0,2771.0,2850.0,3071.0,3003.0,0.968567,0.106506,-0.224304,0.014709,-209.0,664.0,-214.0,5151.0,-1932.0,-4058.0,1565.0,-3568.0,-11239.0,6527.0,-1122.0,-9880.0,0.437641,0.199718,0.876682,-7560.0,-14548.0,-9756.0,-4781.0,15224.0,-4901.0
2851.0,2767.0,2847.0,3095.0,2999.0,0.995422,0.065735,-0.064941,-0.022034,-153.0,598.0,-160.0,-74.0,-4325.0,-2802.0,-1109.0,-5420.0,-10853.0,144.0,-3919.0,-11531.0,0.126392,0.13373,0.982813,-15508.0,-14006.0,70.0,-3483.0,13710.0,-3652.0
2853.0,2774.0,2854.0,3099.0,2999.0,0.996277,0.037903,0.066223,-0.039978,-85.0,409.0,-58.0,-5811.0,-4564.0,378.0,-4705.0,-5139.0,-7718.0,-6078.0,-4132.0,-7353.0,-0.134984,0.070228,0.988344,-29008.0,-7198.0,12832.0,-1925.0,9383.0,-1319.0
2851.0,2777.0,2847.0,3054.0,2999.0,0.992371,0.030334,0.112061,-0.040955,-55.0,290.0,-12.0,-8422.0,-3898.0,2569.0,-6579.0,-4316.0,-5401.0,-7959.0,-3428.0,-3995.0,-0.224896,0.051027,0.972999,-31946.0,-3290.0,18402.0,-1239.0,6662.0,-252.0
2854.0,2771.0,2845.0,3055.0,2991.0,0.98584,0.027832,0.161377,-0.034668,10.0,79.0,32.0,-11879.0,-2449.0,6458.0,-9256.0,-2806.0,-1293.0,-9376.0,-2159.0,1616.0,-0.320113,0.043687,0.946265,-30354.0,-486.0,23302.0,230.0,1829.0,739.0
2847.0,2763.0,2843.0,3071.0,2999.0,0.984741,0.038696,0.167053,-0.029236,47.0,-51.0,24.0,-11965.0,-365.0,9079.0,-9251.0,-909.0,1368.0,-8335.0,-609.0,4291.0,-0.331271,0.066444,0.941166,-21186.0,6376.0,24720.0,1081.0,-1165.0,560.0
2853.0,2781.0,2851.0,3071.0,3006.0,0.985657,0.045532,0.15979,-0.028564,44.0,-88.0,12.0,-11227.0,793.0,9956.0,-8625.0,132.0,2216.0,-7468.0,272.0,4843.0,-0.317597,0.08063,0.944729,-17632.0,8286.0,24706.0,1029.0,-1999.0,297.0
2847.0,2787.0,2853.0,3071.0,2999.0,0.988586,0.054749,0.136597,-0.030945,17.0,-115.0,-10.0,-9089.0,2469.0,10954.0,-6848.0,1651.0,3117.0,-5621.0,1590.0,5019.0,-0.273464,0.099793,0.956605,-10812.0,8404.0,24008.0,406.0,-2616.0,-219.0
2855.0,2773.0,2847.0,3071.0,2995.0,0.991516,0.055359,0.111694,-0.035278,-11.0,-99.0,-12.0,-6234.0,2526.0,11188.0,-4387.0,1691.0,3251.0,-3419.0,1546.0,4310.0,-0.225399,0.101898,0.968809,-3518.0,3310.0,22220.0,-247.0,-2264.0,-256.0
2847.0,2783.0,2847.0,3071.0,2999.0,0.992798,0.052917,0.100586,-0.036133,-18.0,-85.0,-2.0,-4776.0,1973.0,11031.0,-3108.0,1171.0,3051.0,-2342.0,1008.0,3718.0,-0.203547,0.097804,0.974035,-982.0,206.0,20902.0,-409.0,-1937.0,-37.0
2847.0,2777.0,2847.0,3071.0,2993.0,0.994751,0.04834,0.083191,-0.03363,-3.0,-54.0,21.0,-2567.0,454.0,10289.0,-1184.0,-288.0,2249.0,-821.0,-445.0,2380.0,-0.16876,0.090577,0.981403,158.0,-3622.0,17762.0,-47.0,-1219.0,485.0
2851.0,2771.0,2850.0,3091.0,3003.0,0.995361,0.04834,0.077026,-0.030701,14.0,-41.0,29.0,-1918.0,-204.0,9756.0,-637.0,-953.0,1699.0,-438.0,-1084.0,1683.0,-0.156306,0.091502,0.983417,-368.0,-4104.0,16206.0,328.0,-936.0,676.0
2855.0,2777.0,2849.0,3089.0,2993.0,0.99585,0.054565,0.068176,-0.023438,43.0,-28.0,35.0,-1384.0,-778.0,8750.0,-250.0,-1642.0,683.0,-245.0,-1696.0,533.0,-0.138344,0.105482,0.98464,-2008.0,-1964.0,14878.0,1006.0,-638.0,817.0
2847.0,2783.0,2847.0,3089.0,2997.0,0.995728,0.066162,0.061523,-0.016663,51.0,-25.0,30.0,-1378.0,-381.0,8162.0,-356.0,-1443.0,104.0,-400.0,-1434.0,-40.0,-0.124726,0.129709,0.983588,-3004.0,1234.0,14976.0,1185.0,-567.0,708.0
2839.0,2770.0,2847.0,3087.0,2992.0,0.995544,0.072021,0.05835,-0.013733,46.0,-27.0,28.0,-1450.0,14.0,7981.0,-482.0,-1147.0,-69.0,-527.0,-1115.0,-173.0,-0.118157,0.141799,0.982706,-3378.0,2458.0,14954.0,1055.0,-601.0,642.0
2843.0,2767.0,2849.0,3071.0,2995.0,0.995361,0.080688,0.050842,-0.008423,23.0,-38.0,26.0,-1721.0,820.0,7835.0,-880.0,-488.0,-207.0,-908.0,-440.0,-190.0,-0.102572,0.159772,0.98172,-4440.0,3756.0,15206.0,540.0,-864.0,612.0
2847.0,2779.0,2860.0,3095.0,2991.0,0.995483,0.082825,0.045715,-0.005554,12.0,-48.0,28.0,-1863.0,1019.0,7732.0,-1109.0,-327.0,-313.0,-1138.0,-266.0,-259.0,-0.091938,0.164393,0.982068,-4488.0,2910.0,14830.0,277.0,-1092.0,657.0
2847.0,2783.0,2851.0,3095.0,2975.0,0.99585,0.084717,0.032227,0.000122,6.0,-65.0,29.0,-1911.0,1007.0,7621.0,-1385.0,-375.0,-435.0,-1411.0,-304.0,-402.0,-0.064165,0.168738,0.983501,-3430.0,1564.0,15192.0,152.0,-1478.0,673.0
2853.0,2783.0,2861.0,3101.0,2989.0,-0.109253,0.054321,0.466431,-1.21228,-12280.0,23987.0,16057.0,-597.0,19699.0,-20773.0,-352.0,29060.0,-31103.0,1629.0,-1430.0,-6884.0,-0.029787,-1.142759,1.261051,-2014.0,0.0,15354.0,465.0,-1771.0,877.0
2851.0,2768.0,2849.0,3071.0,2997.0,0.995789,0.090698,0.004883,0.011292,33.0,-83.0,49.0,-1391.0,414.0,7682.0,-1328.0,-1066.0,-374.0,-1308.0,-1011.0,-550.0,-0.007676,0.180743,0.983472,-1516.0,-814.0,15600.0,776.0,-1893.0,1126.0
2853.0,2779.0,2845.0,3071.0,2997.0,0.994141,0.103027,-0.0177,0.026001,73.0,-95.0,82.0,-975.0,-104.0,7754.0,-1307.0,-1774.0,-258.0,-1198.0,-1743.0,-667.0,0.040551,0.203927,0.978064,-566.0,-1628.0,15654.0,1692.0,-2166.0,1900.0
2845.0,2783.0,2853.0,3089.0,2995.0,0.989624,0.126892,-0.043884,0.050354,128.0,-105.0,124.0,-416.0,-249.0,7724.0,-1232.0,-2270.0,-171.0,-956.0,-2250.0,-847.0,0.099637,0.246731,0.963864,1036.0,-272.0,15202.0,2941.0,-2405.0,2850.0
2861.0,2783.0,2850.0,3133.0,2997.0,0.985596,0.143921,-0.058167,0.066589,157.0,-110.0,147.0,-60.0,-84.0,7637.0,-1156.0,-2344.0,-159.0,-775.0,-2311.0,-952.0,0.133825,0.275949,0.951737,2106.0,1108.0,14650.0,3605.0,-2500.0,3368.0
2847.0,2780.0,2847.0,3089.0,3003.0,0.972107,0.18866,-0.088257,0.107422,216.0,-112.0,190.0,853.0,740.0,7306.0,-884.0,-2109.0,-174.0,-316.0,-1998.0,-1079.0,0.212123,0.347833,0.91315,4654.0,4494.0,13300.0,4957.0,-2563.0,4357.0
2859.0,2789.0,2853.0,3094.0,2993.0,0.948853,0.246765,-0.117493,0.157776,276.0,-105.0,221.0,1952.0,2016.0,6639.0,-512.0,-1516.0,-328.0,117.0,-1213.0,-1086.0,0.300834,0.431212,0.850517,7438.0,8122.0,10874.0,6331.0,-2404.0,5074.0
2853.0,2770.0,2843.0,3089.0,2997.0,0.932617,0.280273,-0.13092,0.185547,305.0,-99.0,233.0,2599.0,2711.0,6160.0,-253.0,-1173.0,-463.0,330.0,-712.0,-1018.0,0.348205,0.474192,0.808509,9200.0,9628.0,9224.0,6990.0,-2264.0,5345.0
2855.0,2778.0,2839.0,3091.0,2995.0,0.889404,0.353333,-0.153992,0.245544,351.0,-82.0,255.0,3929.0,4129.0,4841.0,263.0,-400.0,-916.0,528.0,479.0,-747.0,0.447439,0.552887,0.702775,11828.0,12466.0,5244.0,8054.0,-1877.0,5861.0
2849.0,2782.0,2859.0,3095.0,3007.0,0.862244,0.390991,-0.163269,0.277283,366.0,-72.0,266.0,4559.0,4790.0,4030.0,476.0,8.0,-1219.0,451.0,1103.0,-539.0,0.498386,0.583716,0.640819,12794.0,13450.0,3066.0,8386.0,-1630.0,6102.0
2853.0,2779.0,2854.0,3089.0,2997.0,0.797546,0.464294,-0.176941,0.34198,381.0,-51.0,278.0,5550.0,6077.0,2416.0,636.0,1001.0,-1730.0,-324.0,2068.0,126.0,0.599796,0.619572,0.506153,13978.0,15992.0,308.0,8729.0,-1168.0,6371.0
2854.0,2768.0,2850.0,3071.0,2993.0,0.760864,0.498474,-0.181396,0.373596,381.0,-42.0,279.0,6027.0,6613.0,1731.0,714.0,1509.0,-1849.0,-841.0,2267.0,594.0,0.648492,0.623004,0.437107,14866.0,16132.0,-524.0,8742.0,-960.0,6397.0
2853.0,2783.0,2847.0,3071.0,2994.0,0.680237,0.560242,-0.186096,0.434326,384.0,-26.0,278.0,6800.0,6880.0,289.0,739.0,1960.0,-2192.0,-1669.0,2297.0,1059.0,0.739834,0.600541,0.302859,15628.0,13350.0,-4140.0,8801.0,-586.0,6376.0
2855.0,2774.0,2847.0,3059.0,3003.0,0.590576,0.61377,-0.184631,0.490234,392.0,-10.0,267.0,7416.0,6611.0,-945.0,699.0,2155.0,-2405.0,-2343.0,1920.0,1316.0,0.81986,0.54393,0.178308,16666.0,12388.0,-4550.0,8981.0,-228.0,6124.0
2847.0,2785.0,2865.0,3103.0,3006.0,0.544189,0.636353,-0.180664,0.51593,387.0,3.0,256.0,7698.0,6627.0,-1159.0,708.0,2480.0,-2180.0,-2680.0,1301.0,1587.0,0.853258,0.506173,0.124742,16996.0,13712.0,-3158.0,8878.0,78.0,5882.0
2851.0,2779.0,2859.0,3107.0,2987.0,0.456787,0.668579,-0.167053,0.562439,335.0,38.0,227.0,7822.0,7219.0,-889.0,410.0,3754.0,-1299.0,-3418.0,-820.0,1893.0,0.904685,0.422882,0.050087,15330.0,16414.0,-178.0,7678.0,874.0,5210.0
2853.0,2786.0,2853.0,3089.0,2995.0,0.419006,0.677429,-0.159302,0.58313,291.0,55.0,209.0,7715.0,7508.0,-477.0,149.0,4379.0,-733.0,-3526.0,-2025.0,1787.0,0.923555,0.381907,0.031319,14700.0,16732.0,1818.0,6683.0,1267.0,4794.0
2855.0,2775.0,2839.0,3071.0,2993.0,0.358765,0.682434,-0.144165,0.620239,202.0,82.0,159.0,7311.0,7442.0,239.0,-471.0,4895.0,18.0,-3217.0,-3559.0,1074.0,0.949987,0.310833,0.026909,13052.0,13908.0,1882.0,4629.0,1894.0,3658.0
2846.0,2763.0,2839.0,3071.0,2999.0,0.316956,0.676392,-0.129089,0.6521,155.0,109.0,106.0,7187.0,5978.0,875.0,-709.0,3844.0,452.0,-1980.0,-3382.0,340.0,0.963981,0.260414,0.051525,14188.0,6748.0,3038.0,3567.0,2503.0,2429.0
2843.0,2781.0,2845.0,3095.0,3007.0,0.299988,0.670898,-0.119324,0.667542,146.0,121.0,81.0,7071.0,5094.0,934.0,-853.0,3101.0,350.0,-1518.0,-2856.0,-45.0,0.967296,0.243216,0.071261,13346.0,4888.0,2010.0,3356.0,2780.0,1858.0
2851.0,2768.0,2829.0,3089.0,2992.0,0.273621,0.656555,-0.09729,0.696045,118.0,132.0,42.0,6759.0,3792.0,1140.0,-1164.0,1958.0,166.0,-867.0,-2004.0,-667.0,0.967225,0.223858,0.118817,12700.0,4772.0,3514.0,2722.0,3045.0,967.0
2850.0,2783.0,2836.0,3093.0,2993.0,0.264526,0.647766,-0.085815,0.709229,100.0,135.0,27.0,6471.0,3569.0,1472.0,-1427.0,1758.0,275.0,-585.0,-1990.0,-947.0,0.964229,0.220977,0.146014,10384.0,6336.0,5348.0,2308.0,3112.0,625.0
2853.0,2774.0,2835.0,3071.0,2999.0,0.259216,0.630371,-0.06781,0.728516,13.0,67.0,-3.0,2789.0,4419.0,2892.0,-5023.0,2551.0,1286.0,309.0,-4199.0,-3956.0,0.953625,0.228004,0.195962,-5352.0,13164.0,12890.0,316.0,1541.0,-50.0
2839.0,2775.0,2843.0,3099.0,3015.0,0.266541,0.625061,-0.067871,0.730469,-68.0,1.0,-11.0,2610.0,5009.0,4795.0,-5167.0,3091.0,3080.0,1630.0,-5528.0,-3537.0,0.949356,0.234053,0.209321,6902.0,12554.0,21626.0,-1541.0,33.0,-247.0
2855.0,2771.0,2835.0,3090.0,3021.0,0.290222,0.614685,-0.088013,0.728027,-141.0,-20.0,-13.0,4030.0,3290.0,5999.0,-3720.0,1416.0,4125.0,3011.0,-4325.0,-2252.0,0.946102,0.228639,0.228669,12474.0,-1328.0,11136.0,-3224.0,-455.0,-287.0
2851.0,2799.0,2846.0,3089.0,3014.0,0.307129,0.605652,-0.108276,0.725952,-78.0,0.0,-15.0,5219.0,-14.0,4778.0,-2529.0,-1773.0,2789.0,3486.0,-875.0,-2095.0,0.945858,0.214819,0.242797,13238.0,-9408.0,5390.0,-1782.0,19.0,-326.0
2838.0,2766.0,2846.0,3089.0,3007.0,0.309753,0.603149,-0.112793,0.726257,-27.0,4.0,-13.0,5641.0,-1117.0,4230.0,-2108.0,-2835.0,2207.0,3610.0,370.0,-2044.0,0.945959,0.209822,0.246885,13718.0,-7686.0,5510.0,-601.0,113.0,-285.0
2853.0,2780.0,2842.0,3095.0,2995.0,0.307251,0.602539,-0.111633,0.728027,26.0,-3.0,-3.0,6197.0,-997.0,3729.0,-1552.0,-2698.0,1689.0,3067.0,735.0,-1608.0,0.945929,0.207717,0.248912,13812.0,1408.0,6816.0,612.0,-59.0,-46.0
2849.0,2783.0,2819.0,3111.0,3007.0,0.305298,0.603638,-0.110107,0.728149,20.0,-13.0,3.0,6368.0,-137.0,3661.0,-1384.0,-1842.0,1638.0,2510.0,156.0,-1288.0,0.946308,0.208229,0.246906,13656.0,5308.0,6882.0,479.0,-295.0,85.0
2865.0,2770.0,2839.0,3059.0,2992.0,0.305115,0.607544,-0.11261,0.724609,-22.0,-39.0,6.0,6555.0,1478.0,3346.0,-1220.0,-222.0,1409.0,1364.0,-949.0,-871.0,0.949182,0.207545,0.236363,13494.0,6906.0,5352.0,-486.0,-888.0,154.0
2844.0,2754.0,2861.0,3063.0,3013.0,-0.003174,0.000305,0.402161,0.120117,3128.0,-19862.0,-2098.0,17510.0,12459.0,5695.0,17488.0,11667.0,6901.0,-3085.0,2376.0,156.0,0.002626,0.096611,-0.147295,12570.0,7600.0,5096.0,-1487.0,-1405.0,66.0
2855.0,2774.0,2838.0,3071.0,3007.0,0.317383,0.615295,-0.133423,0.709045,-95.0,-72.0,0.0,6328.0,2972.0,2908.0,-1513.0,1322.0,1211.0,204.0,-2143.0,-931.0,0.957237,0.201363,0.207087,11182.0,9526.0,5582.0,-2154.0,-1636.0,1.0
2841.0,2777.0,2827.0,3051.0,2975.0,0.340271,0.618347,-0.161804,0.689636,-188.0,-101.0,-10.0,5644.0,4250.0,2802.0,-2244.0,2630.0,1304.0,-783.0,-3326.0,-1402.0,0.962984,0.197639,0.182849,9344.0,12204.0,5260.0,-4299.0,-2307.0,-222.0
2859.0,2790.0,2847.0,3071.0,2983.0,-0.183228,0.67511,-0.015503,-0.007324,-16.0,5381.0,4937.0,2700.0,-19862.0,-22385.0,2827.0,-17837.0,-18924.0,1883.0,2789.0,12358.0,-0.01557,-0.24717,-0.422388,9752.0,15080.0,2926.0,-7479.0,-3040.0,-525.0
2834.0,2778.0,2855.0,3135.0,2991.0,0.41095,0.609436,-0.242615,0.632996,-402.0,-140.0,-33.0,5187.0,6153.0,1854.0,-2766.0,4565.0,712.0,-3540.0,-3681.0,-1702.0,0.970946,0.193747,0.139289,10302.0,15342.0,-408.0,-9196.0,-3192.0,-741.0
2843.0,2778.0,2831.0,3149.0,3005.0,0.481323,0.582947,-0.321167,0.570312,-542.0,-139.0,-48.0,5512.0,6211.0,-626.0,-2467.0,4614.0,-1559.0,-5168.0,-508.0,-1681.0,0.974094,0.194841,0.113953,12372.0,10268.0,-10544.0,-12408.0,-3164.0,-1082.0
2851.0,2781.0,2867.0,3149.0,3003.0,0.553955,0.534607,-0.408997,0.489929,-607.0,-122.0,-44.0,5919.0,4372.0,-4158.0,-2084.0,2802.0,-4926.0,-3480.0,4527.0,-1961.0,0.976971,0.191538,0.093814,12618.0,1886.0,-18904.0,-13889.0,-2790.0,-998.0
2855.0,2783.0,2853.0,3055.0,3011.0,0.585938,0.50354,-0.451904,0.445923,-609.0,-115.0,-37.0,6010.0,3111.0,-5798.0,-2007.0,1578.0,-6489.0,-1409.0,6459.0,-2216.0,0.978655,0.187057,0.0844,12518.0,-1580.0,-21026.0,-13936.0,-2622.0,-839.0
2831.0,2770.0,2862.0,3051.0,3023.0,0.635925,0.433105,-0.529236,0.357666,-565.0,-100.0,-20.0,6086.0,301.0,-8040.0,-1966.0,-1110.0,-8569.0,3765.0,7561.0,-2677.0,0.982923,0.172266,0.064655,12292.0,-8104.0,-21330.0,-12933.0,-2268.0,-436.0
2855.0,2786.0,2875.0,3039.0,3011.0,0.666504,0.361511,-0.588867,0.279663,-462.0,-69.0,-9.0,6577.0,-2624.0,-8772.0,-1509.0,-3873.0,-9140.0,8192.0,5240.0,-2491.0,0.987167,0.152528,0.044984,16472.0,-13514.0,-17808.0,-10576.0,-1572.0,-188.0
2861.0,2775.0,2829.0,3051.0,2990.0,0.688904,0.298523,-0.621216,0.224426,-326.0,28.0,-13.0,9027.0,-5025.0,-7358.0,917.0,-6110.0,-7767.0,9879.0,898.0,-289.0,0.989909,0.132473,0.049931,27064.0,-15678.0,-7900.0,-7461.0,654.0,-291.0
2867.0,2783.0,2831.0,3110.0,3011.0,0.703369,0.2724,-0.622925,0.207397,-256.0,107.0,-24.0,10720.0,-5251.0,-5985.0,2615.0,-6273.0,-6603.0,9359.0,-690.0,1305.0,0.989282,0.124809,0.075505,31954.0,-10366.0,-3372.0,-5849.0,2457.0,-547.0
2843.0,2749.0,2851.0,3107.0,2970.0,0.749207,0.233948,-0.591675,0.18396,-171.0,294.0,-86.0,13325.0,-2949.0,-3136.0,5357.0,-4037.0,-4695.0,7232.0,-660.0,3780.0,0.972647,0.132861,0.190341,32767.0,3992.0,1784.0,-3897.0,6753.0,-1958.0
2835.0,2769.0,2860.0,3095.0,2975.0,0.81665,0.205688,-0.516174,0.155884,-168.0,464.0,-170.0,14377.0,-118.0,-1290.0,6945.0,-1551.0,-4423.0,7075.0,1146.0,4337.0,0.907195,0.175025,0.382474,29070.0,6198.0,752.0,-3846.0,10633.0,-3873.0
2849.0,2771.0,2866.0,3071.0,3007.0,0.853882,0.191345,-0.463928,0.138062,-174.0,533.0,-202.0,13808.0,414.0,-1085.0,6884.0,-1213.0,-5150.0,7967.0,1665.0,3020.0,0.845115,0.198671,0.496333,23096.0,2632.0,-1704.0,-3967.0,12219.0,-4615.0
2853.0,2775.0,2862.0,3119.0,3047.0,0.923218,0.15918,-0.335205,0.099243,-166.0,627.0,-231.0,10199.0,-300.0,-2040.0,4869.0,-2162.0,-7974.0,8988.0,1237.0,-3101.0,0.65053,0.227381,0.72448,6530.0,-3532.0,-8700.0,-3797.0,14366.0,-5291.0
2839.0,2767.0,2869.0,3103.0,3007.0,0.973572,0.124451,-0.18219,0.058533,-146.0,659.0,-232.0,5110.0,-2021.0,-3484.0,2084.0,-3831.0,-10877.0,6241.0,-675.0,-9894.0,0.369319,0.220995,0.902587,-5028.0,-9728.0,-10324.0,-3330.0,15101.0,-5310.0
2855.0,2787.0,2846.0,3091.0,2982.0,0.988403,0.10614,-0.10083,0.039185,-136.0,654.0,-217.0,2631.0,-2813.0,-3787.0,930.0,-4467.0,-11627.0,3570.0,-1768.0,-11836.0,0.20764,0.201917,0.957044,-9570.0,-10078.0,-8804.0,-3107.0,14986.0,-4970.0
2832.0,2735.0,2834.0,3095.0,2979.0,0.995544,0.071228,0.060547,0.004822,-107.0,603.0,-180.0,-2281.0,-3459.0,-2798.0,-1299.0,-4625.0,-10845.0,-2599.0,-3069.0,-11156.0,-0.119867,0.142405,0.982393,-19272.0,-7206.0,562.0,-2449.0,13834.0,-4106.0
2835.0,2775.0,2839.0,3107.0,2951.0,0.978699,0.042603,0.199646,-0.019653,-86.0,457.0,-112.0,-7627.0,-2805.0,202.0,-4411.0,-3423.0,-7306.0,-7088.0,-2646.0,-5223.0,-0.392461,0.075543,0.916564,-32466.0,-3230.0,10676.0,-1956.0,10479.0,-2552.0
2861.0,2778.0,2839.0,3055.0,3007.0,0.967529,0.032288,0.249268,-0.026062,-63.0,331.0,-70.0,-9949.0,-2611.0,2050.0,-5983.0,-3016.0,-5106.0,-7886.0,-2414.0,-1713.0,-0.48403,0.049486,0.873615,-32768.0,-4572.0,15422.0,-1421.0,7596.0,-1603.0
2843.0,2789.0,2859.0,3089.0,2975.0,0.954285,0.026123,0.296143,-0.030151,12.0,65.0,3.0,-12910.0,-2201.0,5649.0,-8266.0,-2463.0,-1094.0,-7597.0,-2033.0,3705.0,-0.566784,0.031999,0.823186,-32768.0,-1328.0,21614.0,283.0,1499.0,80.0
2845.0,2787.0,2875.0,3103.0,2998.0,0.956238,0.035522,0.289307,-0.024902,27.0,-108.0,42.0,-13870.0,-4.0,8585.0,-9322.0,-442.0,1785.0,-6795.0,-334.0,6632.0,-0.555061,0.053527,0.830051,-26620.0,7142.0,24568.0,632.0,-2471.0,977.0
2823.0,2737.0,2822.0,3071.0,3024.0,0.960449,0.040344,0.274597,-0.020996,18.0,-146.0,40.0,-13228.0,990.0,9507.0,-8893.0,449.0,2577.0,-6160.0,379.0,6915.0,-0.529167,0.065966,0.845872,-21884.0,7464.0,23926.0,419.0,-3339.0,934.0
2832.0,2767.0,2855.0,3095.0,2991.0,0.969788,0.045227,0.239075,-0.016357,2.0,-156.0,17.0,-10923.0,1817.0,10433.0,-7112.0,1162.0,3211.0,-4748.0,921.0,6231.0,-0.465183,0.0799,0.881553,-13762.0,4266.0,22608.0,49.0,-3573.0,397.0
2838.0,2775.0,2831.0,3070.0,3005.0,0.977173,0.0448,0.206848,-0.015747,-5.0,-120.0,5.0,-7948.0,1293.0,10595.0,-4624.0,629.0,3137.0,-2930.0,387.0,4782.0,-0.405664,0.08104,0.910322,-6806.0,-70.0,21024.0,-99.0,-2743.0,128.0
2847.0,2773.0,2827.0,3071.0,3006.0,0.979858,0.043823,0.19397,-0.015381,-3.0,-97.0,8.0,-6500.0,739.0,10441.0,-3374.0,84.0,2897.0,-2016.0,-138.0,3961.0,-0.381474,0.079914,0.920814,-4460.0,-2070.0,19704.0,-64.0,-2211.0,204.0
2852.0,2787.0,2839.0,3099.0,2983.0,0.983398,0.04364,0.175415,-0.01239,11.0,-57.0,24.0,-4305.0,-378.0,9704.0,-1469.0,-1045.0,2048.0,-715.0,-1211.0,2337.0,-0.346087,0.081484,0.934551,-3340.0,-3632.0,16686.0,272.0,-1305.0,553.0
2834.0,2765.0,2823.0,3071.0,2995.0,0.984497,0.045227,0.169006,-0.009583,20.0,-45.0,31.0,-3652.0,-729.0,9205.0,-918.0,-1431.0,1515.0,-411.0,-1561.0,1605.0,-0.333639,0.085813,0.938718,-3828.0,-3268.0,15372.0,476.0,-1027.0,728.0
2847.0,2762.0,2851.0,3090.0,2986.0,0.985779,0.052185,0.159363,-0.002319,35.0,-34.0,41.0,-3038.0,-884.0,8238.0,-462.0,-1720.0,507.0,-315.0,-1768.0,448.0,-0.314435,0.102147,0.943645,-4964.0,-1482.0,13716.0,818.0,-775.0,941.0
2847.0,2765.0,2835.0,3071.0,3021.0,0.986511,0.062439,0.151123,0.00531,41.0,-35.0,39.0,-2921.0,-433.0,7490.0,-483.0,-1455.0,-263.0,-551.0,-1425.0,-286.0,-0.297506,0.124798,0.946496,-5844.0,992.0,13088.0,949.0,-787.0,902.0
2845.0,2771.0,2842.0,3071.0,2990.0,0.986755,0.067871,0.146973,0.008545,40.0,-37.0,34.0,-2932.0,-87.0,7222.0,-565.0,-1204.0,-540.0,-701.0,-1142.0,-512.0,-0.288892,0.136456,0.947552,-5914.0,1914.0,12970.0,926.0,-844.0,780.0
2831.0,2771.0,2864.0,3095.0,3013.0,0.987305,0.077515,0.137878,0.012695,30.0,-42.0,19.0,-2903.0,633.0,6909.0,-688.0,-649.0,-872.0,-898.0,-542.0,-743.0,-0.270288,0.156562,0.949913,-5520.0,3264.0,13234.0,693.0,-942.0,454.0
2835.0,2739.0,2847.0,3095.0,2975.0,0.987671,0.081055,0.133179,0.013733,22.0,-42.0,14.0,-2812.0,936.0,6851.0,-675.0,-405.0,-942.0,-898.0,-285.0,-786.0,-0.260847,0.163769,0.951376,-4936.0,3578.0,13402.0,513.0,-954.0,321.0
2853.0,2777.0,2839.0,3088.0,3021.0,0.988586,0.084778,0.123535,0.015259,4.0,-41.0,11.0,-2527.0,1345.0,6903.0,-547.0,-59.0,-921.0,-756.0,64.0,-757.0,-0.241663,0.17139,0.955088,-4170.0,3668.0,14202.0,106.0,-935.0,258.0
2851.0,2759.0,2815.0,3063.0,2991.0,0.989136,0.085144,0.118408,0.016663,-4.0,-43.0,16.0,-2416.0,1422.0,6955.0,-520.0,9.0,-887.0,-715.0,127.0,-727.0,-0.231406,0.172384,0.957397,-4284.0,3116.0,14192.0,-70.0,-982.0,379.0
2843.0,2759.0,2847.0,3103.0,2999.0,0.990417,0.084656,0.106567,0.021973,-5.0,-54.0,30.0,-2400.0,1218.0,7064.0,-701.0,-194.0,-823.0,-856.0,-100.0,-680.0,-0.207372,0.172372,0.962886,-4948.0,1540.0,14642.0,-96.0,-1216.0,704.0
2841.0,2775.0,2858.0,3071.0,3011.0,0.991028,0.085083,0.099731,0.025513,3.0,-59.0,36.0,-2428.0,1056.0,7196.0,-844.0,-367.0,-714.0,-957.0,-301.0,-590.0,-0.193332,0.173728,0.965602,-5038.0,1130.0,15264.0,75.0,-1349.0,825.0
2836.0,2773.0,2855.0,3095.0,2986.0,0.991821,0.089783,0.083374,0.03418,26.0,-75.0,50.0,-2508.0,791.0,7580.0,-1203.0,-714.0,-365.0,-1208.0,-737.0,-293.0,-0.159247,0.183796,0.969866,-5308.0,848.0,16426.0,603.0,-1711.0,1149.0
2855.0,2765.0,2843.0,3071.0,2997.0,0.991699,0.101562,0.06189,0.047485,58.0,-100.0,81.0,-2604.0,519.0,7994.0,-1677.0,-1179.0,34.0,-1555.0,-1334.0,-21.0,-0.113106,0.207317,0.971577,-5346.0,144.0,17184.0,1339.0,-2271.0,1860.0
2855.0,2771.0,2838.0,3071.0,3015.0,0.990906,0.111084,0.048767,0.057312,80.0,-112.0,103.0,-2577.0,386.0,8189.0,-1889.0,-1463.0,238.0,-1691.0,-1703.0,59.0,-0.083914,0.225737,0.970461,-4876.0,24.0,17522.0,1844.0,-2555.0,2373.0
2853.0,2787.0,2863.0,3071.0,3015.0,0.986267,0.140259,0.018311,0.084717,141.0,-129.0,151.0,-2240.0,247.0,8385.0,-2138.0,-2044.0,521.0,-1743.0,-2444.0,-45.0,-0.012354,0.279768,0.959892,-2936.0,292.0,16826.0,3231.0,-2951.0,3478.0
2855.0,2783.0,2851.0,3071.0,2983.0,0.981506,0.161438,0.001648,0.102295,181.0,-134.0,174.0,-1844.0,248.0,8250.0,-2088.0,-2350.0,485.0,-1555.0,-2751.0,-348.0,0.029794,0.317242,0.947754,-1044.0,620.0,15426.0,4159.0,-3067.0,4001.0
2851.0,2786.0,2899.0,3091.0,2991.0,0.963928,0.220459,-0.033752,0.145142,277.0,-144.0,220.0,-478.0,783.0,7398.0,-1535.0,-2618.0,21.0,-695.0,-2668.0,-1266.0,0.129065,0.415215,0.900482,3984.0,4024.0,11336.0,6347.0,-3276.0,5060.0
2863.0,2795.0,2843.0,3061.0,2982.0,0.929626,0.301331,-0.071106,0.199524,368.0,-145.0,274.0,1450.0,2044.0,5739.0,-618.0,-2313.0,-881.0,405.0,-1392.0,-2098.0,0.252449,0.531875,0.808159,9010.0,8904.0,5700.0,8442.0,-3299.0,6292.0
2853.0,2779.0,2839.0,3091.0,2982.0,0.904236,0.347717,-0.089355,0.230957,403.0,-139.0,300.0,2496.0,2986.0,4625.0,-143.0,-1827.0,-1454.0,752.0,-266.0,-2198.0,0.322212,0.587562,0.742092,11344.0,11922.0,2324.0,9240.0,-3166.0,6884.0
2855.0,2783.0,2864.0,3099.0,3003.0,0.835571,0.443909,-0.121887,0.299622,446.0,-109.0,337.0,4784.0,5272.0,2529.0,936.0,-206.0,-2189.0,729.0,2063.0,-959.0,0.4697,0.668795,0.576041,16680.0,17506.0,-614.0,10217.0,-2493.0,7725.0
2861.0,2781.0,2862.0,3090.0,2991.0,0.746887,0.53241,-0.143127,0.371582,459.0,-55.0,345.0,6831.0,7210.0,666.0,1838.0,1566.0,-2545.0,-315.0,3280.0,1201.0,0.609468,0.688933,0.391968,18968.0,18786.0,-4398.0,10524.0,-1258.0,7919.0
2832.0,2726.0,2853.0,3099.0,3007.0,0.697144,0.571289,-0.148193,0.40686,461.0,-28.0,339.0,7511.0,7711.0,-324.0,2010.0,2173.0,-2807.0,-1069.0,3409.0,1967.0,0.671494,0.675953,0.303212,18720.0,18046.0,-6592.0,10582.0,-624.0,7784.0
2830.0,2719.0,2847.0,3089.0,2962.0,0.591492,0.636536,-0.147095,0.472473,455.0,17.0,309.0,8067.0,8128.0,-2127.0,1714.0,3097.0,-3325.0,-2857.0,2807.0,2744.0,0.775503,0.614015,0.146279,16644.0,16888.0,-9006.0,10428.0,412.0,7098.0
2851.0,2769.0,2827.0,3071.0,2993.0,0.485962,0.683716,-0.134399,0.527466,419.0,44.0,268.0,7882.0,8073.0,-2948.0,903.0,3790.0,-3184.0,-4152.0,1001.0,2658.0,0.851899,0.522738,0.028849,14648.0,15532.0,-7132.0,9620.0,1022.0,6155.0
2847.0,2787.0,2843.0,3101.0,2999.0,0.436401,0.700012,-0.126099,0.550964,389.0,53.0,249.0,7640.0,7966.0,-2958.0,419.0,4099.0,-2860.0,-4434.0,-134.0,2338.0,0.881423,0.472021,-0.01191,13690.0,15416.0,-5514.0,8915.0,1233.0,5723.0
2847.0,2769.0,2847.0,3071.0,2991.0,0.350037,0.718384,-0.109741,0.591003,300.0,69.0,211.0,7137.0,8005.0,-2040.0,-448.0,4947.0,-1578.0,-4169.0,-2731.0,1520.0,0.925961,0.373206,-0.056308,12678.0,16246.0,-384.0,6890.0,1587.0,4849.0
2867.0,2787.0,2832.0,3051.0,2983.0,0.31543,0.72113,-0.102783,0.608093,250.0,76.0,187.0,6855.0,7978.0,-1338.0,-860.0,5275.0,-835.0,-3689.0,-3831.0,981.0,0.941871,0.329928,-0.06132,12002.0,15626.0,1606.0,5734.0,1749.0,4291.0
2821.0,2751.0,2829.0,3063.0,2983.0,0.263977,0.717773,-0.090332,0.637878,167.0,90.0,125.0,6391.0,7077.0,90.0,-1501.0,4916.0,473.0,-2137.0,-4694.0,-171.0,0.963396,0.26371,-0.046786,11310.0,10062.0,3928.0,3839.0,2078.0,2868.0
2864.0,2791.0,2806.0,3059.0,2991.0,0.23175,0.706909,-0.078125,0.663574,107.0,100.0,69.0,5955.0,5222.0,1118.0,-2027.0,3387.0,1214.0,-537.0,-3904.0,-1230.0,0.974384,0.22397,-0.011785,10908.0,4528.0,5188.0,2464.0,2306.0,1582.0
2859.0,2775.0,2835.0,3103.0,2987.0,0.221008,0.699524,-0.072021,0.675659,87.0,106.0,47.0,5826.0,4151.0,1529.0,-2178.0,2415.0,1440.0,184.0,-3170.0,-1600.0,0.977114,0.211877,0.010839,10998.0,1844.0,5454.0,1998.0,2440.0,1098.0
2847.0,2767.0,2837.0,3103.0,2999.0,0.206238,0.682007,-0.059021,0.699158,63.0,116.0,17.0,5542.0,2587.0,2191.0,-2469.0,958.0,1677.0,1167.0,-1993.0,-2119.0,0.978005,0.198781,0.062739,9358.0,1886.0,6698.0,1454.0,2662.0,408.0
2841.0,2782.0,2843.0,3089.0,2983.0,0.202332,0.672241,-0.051758,0.710205,50.0,113.0,3.0,4703.0,2475.0,2686.0,-3290.0,848.0,1942.0,1557.0,-2161.0,-2865.0,0.975803,0.198514,0.090742,3206.0,5154.0,8648.0,1163.0,2610.0,87.0
2839.0,2767.0,2822.0,3062.0,2979.0,0.206116,0.656067,-0.041931,0.724731,-18.0,38.0,-15.0,2903.0,3020.0,4705.0,-5028.0,1302.0,3594.0,3166.0,-3602.0,-4108.0,0.96823,0.209674,0.135537,5406.0,7594.0,18180.0,-401.0,889.0,-337.0
2838.0,2757.0,2843.0,3071.0,2981.0,0.217529,0.648132,-0.046814,0.72821,-51.0,-16.0,-7.0,4057.0,2452.0,6605.0,-3842.0,700.0,5332.0,4910.0,-3481.0,-2726.0,0.96432,0.213795,0.155342,12036.0,2046.0,15518.0,-1156.0,-359.0,-150.0
2850.0,2779.0,2864.0,3103.0,3005.0,0.221619,0.646057,-0.05127,0.728577,-44.0,-15.0,-2.0,4681.0,1762.0,6484.0,-3217.0,28.0,5173.0,4956.0,-2718.0,-2268.0,0.964129,0.211649,0.15992,13056.0,-856.0,11386.0,-1005.0,-333.0,-24.0
2847.0,2779.0,2851.0,3088.0,2981.0,0.223694,0.643372,-0.05603,0.729919,2.0,-1.0,-3.0,5594.0,380.0,5171.0,-2305.0,-1307.0,3813.0,4172.0,-828.0,-1859.0,0.964286,0.206041,0.165755,13314.0,-2724.0,5588.0,50.0,-4.0,-65.0
2855.0,2763.0,2837.0,3063.0,2975.0,0.221863,0.643372,-0.054443,0.730652,28.0,-1.0,-8.0,5851.0,113.0,4383.0,-2048.0,-1573.0,3021.0,3538.0,-214.0,-1796.0,0.964319,0.205922,0.166184,13028.0,-586.0,4078.0,644.0,-1.0,-170.0
2847.0,2779.0,2833.0,3094.0,2990.0,0.217896,0.646667,-0.046997,0.729431,31.0,-18.0,-12.0,6155.0,1123.0,3239.0,-1741.0,-623.0,1935.0,2141.0,-564.0,-1502.0,0.96388,0.21325,0.159161,13060.0,7388.0,4008.0,732.0,-412.0,-268.0
2855.0,2774.0,2843.0,3071.0,2997.0,0.218628,0.64917,-0.044556,0.727112,6.0,-29.0,-13.0,6202.0,2141.0,2933.0,-1691.0,346.0,1678.0,1525.0,-1336.0,-1296.0,0.963521,0.219059,0.153083,12558.0,10672.0,4196.0,138.0,-656.0,-295.0
2845.0,2787.0,2847.0,3071.0,2989.0,0.231262,0.653748,-0.049377,0.71875,-84.0,-55.0,-19.0,6151.0,4254.0,2916.0,-1734.0,2358.0,1766.0,749.0,-3217.0,-875.0,0.9626,0.231394,0.14026,11886.0,14744.0,6346.0,-1912.0,-1238.0,-414.0
2854.0,2775.0,2847.0,3099.0,2970.0,0.264343,0.65564,-0.072144,0.703552,-205.0,-80.0,-36.0,5997.0,5845.0,3159.0,-1873.0,3837.0,2095.0,63.0,-4718.0,-586.0,0.960695,0.245114,0.129795,11576.0,15714.0,6860.0,-4684.0,-1822.0,-816.0
2832.0,2791.0,2863.0,3071.0,3011.0,0.289734,0.654175,-0.090759,0.692627,-272.0,-88.0,-49.0,5921.0,6460.0,3106.0,-1933.0,4384.0,2061.0,-567.0,-5161.0,-479.0,0.95879,0.253349,0.127496,11312.0,16572.0,5478.0,-6216.0,-1996.0,-1110.0
2847.0,2755.0,2829.0,3055.0,3018.0,0.360046,0.643494,-0.143494,0.660034,-425.0,-103.0,-79.0,5785.0,7379.0,1951.0,-2020.0,5134.0,881.0,-2907.0,-4753.0,-403.0,0.952784,0.273954,0.130604,11680.0,16486.0,-1108.0,-9726.0,-2347.0,-1792.0
2864.0,2771.0,2847.0,3027.0,2999.0,0.451416,0.61615,-0.214478,0.608704,-561.0,-100.0,-108.0,6128.0,7610.0,-533.0,-1603.0,5191.0,-1750.0,-5466.0,-1624.0,-240.0,0.943743,0.295173,0.148655,13710.0,15602.0,-10320.0,-12832.0,-2272.0,-2460.0
2834.0,2747.0,2827.0,3045.0,2971.0,0.55188,0.566528,-0.295044,0.536011,-658.0,-84.0,-128.0,6899.0,6930.0,-4251.0,-744.0,4398.0,-5757.0,-5880.0,4276.0,-393.0,0.932988,0.309018,0.183874,16536.0,9834.0,-20090.0,-15063.0,-1916.0,-2925.0
2853.0,2767.0,2850.0,3101.0,3011.0,0.600098,0.532837,-0.335632,0.493225,-679.0,-71.0,-130.0,7381.0,6012.0,-6049.0,-224.0,3485.0,-7743.0,-4324.0,7273.0,-734.0,0.928441,0.308424,0.206824,17702.0,6148.0,-22578.0,-15545.0,-1613.0,-2973.0
2847.0,2769.0,2852.0,3111.0,3007.0,0.683838,0.450806,-0.40918,0.402039,-668.0,-37.0,-120.0,8162.0,3462.0,-8784.0,608.0,1106.0,-10902.0,1340.0,10717.0,-1940.0,0.922108,0.287544,0.258616,18350.0,-1704.0,-23970.0,-15291.0,-826.0,-2736.0
2859.0,2787.0,2854.0,3071.0,2992.0,0.746948,0.358459,-0.463501,0.314209,-593.0,15.0,-109.0,8925.0,685.0,-9457.0,1407.0,-1315.0,-12023.0,7195.0,9415.0,-2797.0,0.917685,0.244229,0.313333,21030.0,-6046.0,-17982.0,-13564.0,354.0,-2479.0
2847.0,2771.0,2859.0,3071.0,2994.0,0.797607,0.268616,-0.484558,0.238403,-480.0,125.0,-125.0,10936.0,-1423.0,-7640.0,3554.0,-3040.0,-10802.0,10394.0,5295.0,-1568.0,0.901052,0.197459,0.386063,29388.0,-9016.0,-7282.0,-10976.0,2873.0,-2855.0
2851.0,2762.0,2833.0,3071.0,3003.0,0.82251,0.228333,-0.478149,0.206726,-409.0,203.0,-142.0,12056.0,-2395.0,-6075.0,4839.0,-3852.0,-9667.0,11055.0,3009.0,-661.0,0.88097,0.17792,0.438495,30252.0,-10470.0,-2568.0,-9351.0,4660.0,-3243.0
2838.0,2763.0,2846.0,3067.0,2999.0,0.874146,0.16571,-0.429504,0.154663,-256.0,352.0,-181.0,12441.0,-3747.0,-3117.0,5869.0,-5031.0,-7836.0,10981.0,-451.0,-595.0,0.802157,0.156853,0.576117,22966.0,-10496.0,1646.0,-5841.0,8065.0,-4125.0
2845.0,2766.0,2845.0,3091.0,2991.0,0.925293,0.12677,-0.339294,0.112061,-141.0,474.0,-204.0,10365.0,-4171.0,-973.0,4988.0,-5469.0,-7014.0,9523.0,-2371.0,-2766.0,0.656305,0.158556,0.737533,12112.0,-8290.0,3034.0,-3225.0,10879.0,-4663.0
2847.0,2779.0,2844.0,3071.0,2999.0,0.948486,0.113647,-0.280945,0.092102,-106.0,521.0,-212.0,8593.0,-3982.0,-389.0,4055.0,-5324.0,-7075.0,8238.0,-2754.0,-4401.0,0.553879,0.163835,0.816263,5922.0,-6572.0,2286.0,-2408.0,11949.0,-4846.0
2855.0,2751.0,2833.0,3095.0,2995.0,0.983521,0.093689,-0.145569,0.051514,-69.0,573.0,-218.0,4352.0,-3577.0,-28.0,1927.0,-4963.0,-7728.0,4611.0,-3166.0,-7534.0,0.295992,0.169292,0.939998,-4282.0,-6532.0,310.0,-1560.0,13136.0,-4989.0
2853.0,2771.0,2847.0,3095.0,3039.0,0.99707,0.074951,0.000183,0.012573,-60.0,561.0,-195.0,-180.0,-3066.0,336.0,-192.0,-4290.0,-7763.0,-101.0,-3084.0,-8316.0,0.00152,0.149468,0.98869,-13456.0,-3772.0,2972.0,-1363.0,12860.0,-4463.0
2839.0,2771.0,2844.0,3088.0,2997.0,0.9953,0.065979,0.070557,-0.004883,-59.0,528.0,-177.0,-2357.0,-2577.0,828.0,-1201.0,-3647.0,-7210.0,-2266.0,-2662.0,-7382.0,-0.141094,0.130649,0.981315,-17988.0,-2016.0,4766.0,-1335.0,12101.0,-4034.0
2847.0,2775.0,2847.0,3093.0,2998.0,0.979919,0.045898,0.191284,-0.030457,-78.0,401.0,-116.0,-6988.0,-1335.0,2752.0,-3894.0,-1976.0,-4804.0,-5541.0,-1311.0,-3115.0,-0.377682,0.078302,0.922473,-27514.0,622.0,12596.0,-1778.0,9188.0,-2653.0
2843.0,2771.0,2839.0,3071.0,2994.0,0.960754,0.027405,0.272522,-0.042603,-57.0,232.0,-55.0,-10916.0,-1043.0,5257.0,-6607.0,-1284.0,-1704.0,-6613.0,-705.0,1989.0,-0.525988,0.029438,0.849845,-32202.0,-2796.0,17714.0,-1295.0,5321.0,-1257.0
2847.0,2778.0,2822.0,3091.0,2997.0,0.953796,0.022461,0.296082,-0.045105,-26.0,142.0,-27.0,-12315.0,-1313.0,6349.0,-7671.0,-1445.0,-397.0,-6661.0,-851.0,3997.0,-0.566829,0.016137,0.823593,-32402.0,-4382.0,19048.0,-573.0,3263.0,-610.0
2847.0,2786.0,2843.0,3087.0,2993.0,0.948181,0.025513,0.313354,-0.045349,32.0,-2.0,21.0,-13551.0,-961.0,8160.0,-8664.0,-1124.0,1587.0,-6101.0,-633.0,6419.0,-0.596548,0.019961,0.802262,-28366.0,1734.0,21502.0,749.0,-29.0,485.0
2847.0,2769.0,2843.0,3071.0,2997.0,0.951416,0.037048,0.302917,-0.0401,29.0,-82.0,35.0,-12747.0,788.0,9651.0,-8000.0,409.0,2985.0,-4753.0,554.0,7082.0,-0.579372,0.046203,0.813669,-21366.0,6572.0,23012.0,674.0,-1860.0,823.0
2845.0,2775.0,2847.0,3088.0,2995.0,0.95459,0.041504,0.29248,-0.03717,19.0,-98.0,31.0,-11882.0,1397.0,10068.0,-7282.0,925.0,3306.0,-4091.0,925.0,6870.0,-0.561483,0.057495,0.825356,-18272.0,5910.0,22264.0,441.0,-2223.0,720.0
2843.0,2768.0,2847.0,3071.0,2993.0,0.961304,0.045898,0.26947,-0.033081,5.0,-98.0,18.0,-9711.0,1594.0,10255.0,-5441.0,1017.0,3287.0,-2855.0,873.0,5702.0,-0.521122,0.070416,0.850478,-12506.0,2450.0,20272.0,115.0,-2235.0,431.0
2847.0,2769.0,2842.0,3088.0,2991.0,0.967041,0.04657,0.248352,-0.030212,2.0,-81.0,18.0,-7399.0,883.0,9856.0,-3441.0,268.0,2710.0,-1694.0,103.0,4046.0,-0.483147,0.075063,0.872234,-8126.0,-914.0,17942.0,56.0,-1843.0,417.0
2839.0,2783.0,2853.0,3099.0,3003.0,0.96936,0.046936,0.239258,-0.028381,5.0,-71.0,22.0,-6425.0,404.0,9477.0,-2603.0,-230.0,2259.0,-1276.0,-380.0,3186.0,-0.466518,0.077415,0.881018,-7304.0,-2086.0,16558.0,137.0,-1620.0,525.0
2847.0,2789.0,2863.0,3087.0,2992.0,0.973083,0.049744,0.223755,-0.023254,19.0,-58.0,33.0,-5007.0,-383.0,8581.0,-1420.0,-1090.0,1250.0,-808.0,-1184.0,1646.0,-0.437778,0.086403,0.894892,-6548.0,-2614.0,14426.0,451.0,-1308.0,762.0
2847.0,2768.0,2851.0,3071.0,2991.0,0.974487,0.052734,0.217041,-0.020264,27.0,-53.0,36.0,-4550.0,-585.0,8144.0,-1067.0,-1354.0,769.0,-726.0,-1413.0,1018.0,-0.425145,0.093982,0.900148,-6600.0,-2112.0,13716.0,636.0,-1209.0,825.0
2841.0,2771.0,2843.0,3071.0,2997.0,0.976807,0.061279,0.204529,-0.014221,36.0,-51.0,37.0,-3988.0,-475.0,7476.0,-700.0,-1408.0,31.0,-703.0,-1398.0,148.0,-0.401313,0.113899,0.908766,-6876.0,138.0,13262.0,847.0,-1159.0,861.0
2845.0,2780.0,2843.0,3089.0,2991.0,0.978882,0.071045,0.191284,-0.007629,32.0,-59.0,40.0,-3823.0,133.0,7136.0,-746.0,-982.0,-373.0,-871.0,-928.0,-195.0,-0.375573,0.13617,0.916631,-7442.0,2360.0,13602.0,733.0,-1347.0,932.0
2854.0,2771.0,2843.0,3099.0,2999.0,0.980103,0.075317,0.183411,-0.00354,25.0,-69.0,46.0,-3793.0,443.0,7034.0,-843.0,-755.0,-513.0,-996.0,-687.0,-279.0,-0.360056,0.146339,0.921301,-7396.0,2616.0,13474.0,573.0,-1565.0,1055.0
2850.0,2783.0,2855.0,3095.0,3006.0,0.983093,0.082336,0.163269,0.007324,18.0,-94.0,61.0,-3717.0,667.0,6792.0,-1097.0,-678.0,-851.0,-1321.0,-578.0,-554.0,-0.319811,0.16428,0.93309,-7098.0,1404.0,12986.0,417.0,-2136.0,1414.0
2845.0,2778.0,2839.0,3071.0,2995.0,0.984619,0.08606,0.151123,0.013794,22.0,-104.0,67.0,-3600.0,632.0,6733.0,-1181.0,-790.0,-962.0,-1414.0,-681.0,-692.0,-0.295223,0.173641,0.939421,-6338.0,1000.0,13150.0,526.0,-2363.0,1557.0
2851.0,2771.0,2847.0,3071.0,2992.0,0.987183,0.096924,0.123474,0.027893,45.0,-116.0,79.0,-3086.0,466.0,6764.0,-1133.0,-1158.0,-1023.0,-1315.0,-1035.0,-932.0,-0.238376,0.198251,0.950667,-4386.0,426.0,13766.0,1049.0,-2653.0,1812.0
2849.0,2781.0,2851.0,3071.0,2992.0,0.988037,0.114868,0.09259,0.044495,77.0,-127.0,96.0,-2479.0,402.0,6828.0,-1063.0,-1524.0,-1007.0,-1133.0,-1373.0,-1137.0,-0.172743,0.235228,0.956429,-3308.0,930.0,13844.0,1775.0,-2893.0,2217.0
2851.0,2751.0,2847.0,3093.0,2999.0,0.987488,0.127014,0.07605,0.054138,93.0,-132.0,106.0,-2222.0,512.0,6875.0,-1104.0,-1610.0,-957.0,-1100.0,-1455.0,-1181.0,-0.136444,0.259084,0.956147,-2908.0,1930.0,14078.0,2150.0,-3016.0,2440.0
2851.0,2790.0,2859.0,3093.0,2999.0,0.983765,0.156982,0.040527,0.076233,119.0,-144.0,126.0,-1623.0,1179.0,7073.0,-1165.0,-1401.0,-687.0,-1026.0,-1297.0,-1027.0,-0.055804,0.315047,0.947318,-1272.0,4896.0,14928.0,2729.0,-3290.0,2891.0
2857.0,2773.0,2851.0,3091.0,2999.0,0.975891,0.192261,0.001709,0.102844,137.0,-152.0,149.0,-838.0,1964.0,7234.0,-1134.0,-1112.0,-351.0,-902.0,-1102.0,-783.0,0.03621,0.375603,0.925973,910.0,6048.0,14690.0,3155.0,-3472.0,3435.0
2847.0,2757.0,2847.0,3091.0,2999.0,0.969971,0.211548,-0.018372,0.118225,149.0,-152.0,162.0,-420.0,2312.0,7196.0,-1121.0,-1014.0,-256.0,-852.0,-1037.0,-740.0,0.08566,0.406046,0.90973,1634.0,6720.0,13992.0,3422.0,-3471.0,3730.0
2851.0,2771.0,2847.0,3091.0,2999.0,0.953003,0.254883,-0.058167,0.152954,182.0,-149.0,184.0,486.0,2977.0,6867.0,-1060.0,-856.0,-204.0,-721.0,-879.0,-776.0,0.188836,0.468015,0.863261,3996.0,7706.0,12420.0,4185.0,-3400.0,4236.0
2846.0,2783.0,2851.0,3095.0,2994.0,0.927002,0.306702,-0.09668,0.19281,235.0,-142.0,207.0,1657.0,3335.0,6159.0,-780.0,-1017.0,-338.0,-262.0,-777.0,-1040.0,0.297515,0.531344,0.793095,7236.0,7224.0,9684.0,5387.0,-3245.0,4742.0
2850.0,2773.0,2846.0,3095.0,2983.0,0.909363,0.33667,-0.114868,0.215393,268.0,-135.0,221.0,2336.0,3420.0,5566.0,-563.0,-1190.0,-551.0,97.0,-622.0,-1280.0,0.353946,0.562827,0.746794,8746.0,7484.0,7294.0,6146.0,-3092.0,5065.0
2855.0,2771.0,2842.0,3101.0,2995.0,0.862488,0.405029,-0.146729,0.265381,333.0,-116.0,240.0,3674.0,4138.0,3954.0,-160.0,-947.0,-1196.0,461.0,371.0,-1414.0,0.468077,0.620788,0.628734,11306.0,11624.0,2946.0,7628.0,-2655.0,5511.0
2851.0,2783.0,2845.0,3071.0,3002.0,0.833252,0.441895,-0.159546,0.291321,353.0,-107.0,243.0,4311.0,4872.0,3236.0,23.0,-399.0,-1338.0,279.0,942.0,-991.0,0.52335,0.643461,0.558451,12372.0,14416.0,2378.0,8103.0,-2429.0,5567.0
2843.0,2768.0,2842.0,3071.0,3003.0,0.766602,0.513062,-0.179382,0.341736,358.0,-91.0,243.0,5125.0,6501.0,1944.0,0.0,1061.0,-1406.0,-857.0,1532.0,129.0,0.625693,0.664025,0.409051,11876.0,17938.0,-48.0,8218.0,-2070.0,5567.0
2850.0,2775.0,2839.0,3071.0,2995.0,0.694275,0.574585,-0.197021,0.385925,324.0,-95.0,238.0,5647.0,7742.0,798.0,-227.0,2451.0,-1348.0,-2239.0,1312.0,1066.0,0.717068,0.645769,0.261991,13390.0,17822.0,-988.0,7442.0,-2172.0,5464.0
2847.0,2777.0,2859.0,3087.0,3015.0,0.657898,0.600159,-0.206177,0.405334,305.0,-91.0,233.0,6085.0,7866.0,508.0,-123.0,2766.0,-1084.0,-2465.0,866.0,1417.0,0.757817,0.622545,0.194426,14916.0,15934.0,-474.0,7000.0,-2083.0,5352.0
2854.0,2779.0,2851.0,3090.0,2994.0,0.586304,0.641846,-0.221069,0.441895,282.0,-64.0,216.0,6787.0,7562.0,89.0,16.0,2996.0,-551.0,-2564.0,-116.0,1639.0,0.826484,0.557254,0.078185,14886.0,14322.0,-804.0,6471.0,-1464.0,4957.0
2850.0,2762.0,2843.0,3071.0,3003.0,0.551941,0.65863,-0.226074,0.458618,266.0,-54.0,206.0,6856.0,7535.0,-7.0,-137.0,3277.0,-253.0,-2789.0,-737.0,1578.0,0.853679,0.519687,0.030066,13838.0,15216.0,-388.0,6096.0,-1224.0,4723.0
2847.0,2770.0,2839.0,3053.0,3007.0,0.492493,0.682739,-0.236084,0.485291,185.0,-55.0,185.0,6351.0,8161.0,282.0,-982.0,4529.0,640.0,-3759.0,-2556.0,1100.0,0.895193,0.44335,-0.043813,10238.0,19252.0,1972.0,4239.0,-1249.0,4240.0
2849.0,2791.0,2847.0,3029.0,2982.0,0.456787,0.692627,-0.256104,0.495911,35.0,-80.0,154.0,5595.0,8980.0,826.0,-1949.0,5877.0,1569.0,-4771.0,-4235.0,288.0,0.920932,0.378757,-0.090739,10050.0,18646.0,3262.0,818.0,-1828.0,3538.0
2853.0,2769.0,2843.0,3155.0,3007.0,0.44928,0.692139,-0.271606,0.495239,-35.0,-84.0,135.0,5774.0,8428.0,991.0,-1841.0,5536.0,1856.0,-4391.0,-4264.0,46.0,0.929603,0.352907,-0.105712,13366.0,12072.0,2700.0,-787.0,-1906.0,3111.0
2853.0,2799.0,2863.0,3088.0,2991.0,0.441772,0.682861,-0.306213,0.494629,-59.0,-41.0,115.0,7244.0,4266.0,391.0,-506.0,1805.0,1376.0,-1149.0,-2018.0,-101.0,0.946079,0.300415,-0.120246,19916.0,-8248.0,-2326.0,-1337.0,-923.0,2655.0
2863.0,2767.0,2843.0,3103.0,2998.0,0.417908,0.675659,-0.325684,0.512512,99.0,24.0,104.0,8613.0,-810.0,-1001.0,709.0,-2701.0,25.0,2542.0,1153.0,57.0,0.964779,0.230893,-0.12527,19956.0,-13748.0,-6678.0,2274.0,555.0,2405.0
2851.0,2783.0,2864.0,3088.0,2979.0,0.397095,0.676941,-0.323486,0.528564,185.0,49.0,89.0,8859.0,-2087.0,-1686.0,892.0,-3689.0,-655.0,3070.0,2313.0,228.0,0.972523,0.195653,-0.125828,18814.0,-10304.0,-7204.0,4255.0,1140.0,2043.0
2847.0,2773.0,2845.0,3103.0,2995.0,0.347778,0.685547,-0.296265,0.566772,285.0,86.0,47.0,8603.0,-2274.0,-2518.0,548.0,-3429.0,-1571.0,1947.0,3267.0,236.0,0.983167,0.141007,-0.115566,14782.0,-3196.0,-7278.0,6533.0,1979.0,1080.0
2853.0,2771.0,2863.0,3067.0,2979.0,0.322998,0.690674,-0.276245,0.585022,288.0,86.0,30.0,8094.0,-1648.0,-2780.0,12.0,-2655.0,-1905.0,818.0,3161.0,-111.0,0.986572,0.122954,-0.106763,13156.0,602.0,-6378.0,6612.0,1984.0,693.0
2847.0,2778.0,2861.0,3071.0,2999.0,0.276855,0.698792,-0.230774,0.617798,282.0,88.0,10.0,6933.0,-378.0,-2547.0,-1186.0,-1211.0,-1865.0,-721.0,2126.0,-1143.0,0.991206,0.101785,-0.083243,10104.0,4284.0,-4164.0,6464.0,2029.0,241.0
2845.0,2767.0,2847.0,3088.0,3006.0,0.238892,0.703186,-0.188904,0.642456,212.0,65.0,13.0,6238.0,1721.0,-1549.0,-1903.0,957.0,-1054.0,-1601.0,-248.0,-1738.0,0.993787,0.093246,-0.060336,11876.0,9640.0,1192.0,4871.0,1493.0,305.0
2859.0,2779.0,2823.0,3095.0,3007.0,0.225281,0.702881,-0.173218,0.651978,164.0,60.0,17.0,6357.0,2511.0,-702.0,-1790.0,1766.0,-306.0,-1365.0,-1404.0,-1605.0,0.99457,0.090823,-0.04822,13766.0,9348.0,3836.0,3771.0,1388.0,409.0
2853.0,2775.0,2859.0,3071.0,2991.0,0.209229,0.696533,-0.153259,0.668884,72.0,60.0,20.0,5827.0,3560.0,957.0,-2331.0,2851.0,1100.0,-587.0,-3167.0,-2094.0,0.995933,0.086444,-0.017464,6472.0,10408.0,6362.0,1660.0,1377.0,478.0
2859.0,2771.0,2853.0,3059.0,2989.0,0.207947,0.692871,-0.149475,0.674011,14.0,31.0,16.0,4823.0,3904.0,1804.0,-3337.0,3194.0,1843.0,-105.0,-3921.0,-3056.0,0.996172,0.086665,-0.00488,3954.0,9214.0,9028.0,333.0,723.0,387.0
2847.0,2770.0,2853.0,3063.0,2993.0,0.214966,0.688782,-0.156677,0.674316,-61.0,-28.0,13.0,5259.0,2753.0,3864.0,-2902.0,2058.0,3848.0,2154.0,-3934.0,-2709.0,0.996274,0.084829,0.001945,14926.0,-914.0,12356.0,-1390.0,-639.0,308.0
2859.0,2769.0,2861.0,3071.0,2991.0,1.784363,0.146545,-0.781616,0.219788,11229.0,-2763.0,11033.0,-34.0,-12.0,10.0,-23412.0,-1481.0,-21288.0,-101.0,-69.0,8648.0,2.853791,0.179401,2.599858,16262.0,-5046.0,6806.0,-764.0,-268.0,245.0
2855.0,2783.0,2827.0,3071.0,2991.0,0.219849,0.683899,-0.171204,0.674255,-10.0,-2.0,4.0,6918.0,-228.0,3705.0,-1253.0,-800.0,3656.0,3480.0,-1345.0,-1284.0,0.997523,0.069839,0.005925,15600.0,-3958.0,5256.0,-208.0,-32.0,98.0
2847.0,2779.0,2829.0,3071.0,3007.0,0.217529,0.68219,-0.16925,0.677124,22.0,5.0,-6.0,7308.0,-553.0,2996.0,-863.0,-1106.0,2899.0,3023.0,-642.0,-901.0,0.997488,0.067585,0.011787,15744.0,-770.0,4112.0,507.0,134.0,-132.0
2855.0,2781.0,2800.0,3063.0,2995.0,0.216187,0.681702,-0.166565,0.678772,24.0,7.0,-8.0,7467.0,-306.0,2744.0,-704.0,-868.0,2621.0,2672.0,-673.0,-722.0,0.997458,0.06863,0.015007,15844.0,1252.0,4086.0,564.0,171.0,-161.0
2865.0,2775.0,2882.0,3095.0,3007.0,0.216248,0.68042,-0.161743,0.681213,3.0,6.0,-8.0,7573.0,730.0,2390.0,-594.0,124.0,2212.0,1820.0,-1288.0,-535.0,0.996975,0.073915,0.021683,15110.0,5042.0,3808.0,85.0,139.0,-164.0
2863.0,2790.0,2839.0,3065.0,3011.0,0.21875,0.679565,-0.161255,0.681396,-18.0,2.0,-8.0,7539.0,1219.0,2239.0,-625.0,583.0,2039.0,1430.0,-1600.0,-528.0,0.996656,0.077553,0.02434,14886.0,4974.0,3642.0,-409.0,57.0,-171.0
2846.0,2781.0,2847.0,3087.0,2991.0,0.228088,0.676514,-0.165283,0.680359,-51.0,1.0,-11.0,7484.0,1303.0,2158.0,-674.0,617.0,1912.0,1273.0,-1597.0,-562.0,0.995942,0.083706,0.029923,14616.0,1920.0,4508.0,-1158.0,38.0,-237.0
2867.0,2799.0,2846.0,3067.0,2967.0,0.234314,0.674316,-0.168762,0.679565,-61.0,2.0,-15.0,7315.0,1173.0,2280.0,-840.0,463.0,2005.0,1409.0,-1555.0,-728.0,0.995571,0.086634,0.033529,13384.0,1650.0,5454.0,-1397.0,46.0,-321.0
2838.0,2751.0,2807.0,3117.0,2965.0,0.252075,0.669128,-0.178101,0.675964,-99.0,-10.0,-27.0,6495.0,1299.0,2773.0,-1651.0,507.0,2436.0,1653.0,-1987.0,-1492.0,0.994403,0.096562,0.041017,10028.0,3826.0,7344.0,-2253.0,-210.0,-599.0
2830.0,2751.0,2837.0,3071.0,2995.0,0.265381,0.666382,-0.185425,0.671631,-134.0,-22.0,-35.0,6017.0,1660.0,3096.0,-2122.0,802.0,2743.0,1639.0,-2519.0,-1906.0,0.993542,0.104616,0.043068,9242.0,5658.0,8178.0,-3066.0,-485.0,-783.0
2862.0,2767.0,2843.0,3063.0,2983.0,0.304688,0.659363,-0.208557,0.654846,-227.0,-47.0,-56.0,5235.0,2575.0,3528.0,-2880.0,1521.0,3172.0,1151.0,-3604.0,-2519.0,0.990652,0.128654,0.043403,8304.0,8450.0,7644.0,-5199.0,-1072.0,-1279.0
2854.0,2787.0,2842.0,3039.0,3013.0,0.366272,0.646851,-0.246948,0.621582,-375.0,-74.0,-83.0,4697.0,4735.0,2993.0,-3372.0,3368.0,2656.0,-1309.0,-4585.0,-2650.0,0.985042,0.166849,0.04112,8470.0,16630.0,2288.0,-8589.0,-1680.0,-1879.0
2823.0,2751.0,2842.0,3103.0,2951.0,0.407532,0.635681,-0.273987,0.595581,-466.0,-82.0,-98.0,4729.0,5585.0,1940.0,-3303.0,4014.0,1598.0,-2957.0,-3880.0,-2402.0,0.980516,0.191758,0.04164,10002.0,15356.0,-3380.0,-10673.0,-1867.0,-2227.0
2831.0,2766.0,2835.0,3119.0,2983.0,0.502075,0.597046,-0.340576,0.52478,-607.0,-76.0,-118.0,5276.0,5752.0,-1613.0,-2658.0,3768.0,-2063.0,-4682.0,660.0,-1775.0,0.968625,0.242069,0.055018,12592.0,10078.0,-15550.0,-13889.0,-1733.0,-2701.0
2847.0,2768.0,2875.0,3091.0,2990.0,0.597473,0.534729,-0.410034,0.43457,-667.0,-44.0,-133.0,6286.0,4429.0,-6016.0,-1535.0,2113.0,-6767.0,-2292.0,6717.0,-1489.0,0.954724,0.282595,0.091762,16910.0,3814.0,-24880.0,-15259.0,-985.0,-3028.0
2846.0,2793.0,2845.0,3067.0,2995.0,0.641846,0.495972,-0.439087,0.386169,-664.0,-8.0,-145.0,7317.0,3542.0,-7722.0,-438.0,1104.0,-8723.0,408.0,8716.0,-1153.0,0.94671,0.297551,0.122308,21488.0,1606.0,-24586.0,-15207.0,-174.0,-3316.0
2855.0,2765.0,2837.0,3071.0,2991.0,0.724365,0.407776,-0.471924,0.293762,-610.0,115.0,-170.0,10413.0,1806.0,-8932.0,2849.0,-762.0,-10750.0,6480.0,9070.0,4.0,0.923269,0.313491,0.222008,31234.0,-456.0,-17794.0,-13972.0,2647.0,-3875.0
2852.0,2783.0,2868.0,3115.0,2983.0,0.803772,0.313904,-0.457214,0.215088,-527.0,288.0,-197.0,13160.0,1680.0,-7195.0,6032.0,-842.0,-10346.0,9691.0,7011.0,1008.0,0.870026,0.307932,0.384732,32767.0,4828.0,-7612.0,-12053.0,6599.0,-4510.0
2835.0,2751.0,2863.0,3039.0,3002.0,0.842957,0.268311,-0.430176,0.179749,-485.0,374.0,-216.0,13909.0,1952.0,-6042.0,7177.0,-486.0,-10022.0,10617.0,6216.0,883.0,0.821696,0.297701,0.485844,31284.0,5302.0,-5150.0,-11101.0,8577.0,-4940.0
2865.0,2757.0,2815.0,3091.0,2983.0,0.915527,0.183533,-0.33905,0.114502,-392.0,524.0,-247.0,12582.0,1085.0,-4012.0,7151.0,-1031.0,-9768.0,11317.0,3715.0,-2389.0,0.662849,0.258415,0.702662,15944.0,-2470.0,-3030.0,-8966.0,12004.0,-5657.0
2839.0,2787.0,2863.0,3071.0,2975.0,0.969238,0.112122,-0.210938,0.059204,-270.0,569.0,-226.0,6990.0,-2119.0,-2924.0,3531.0,-3694.0,-10180.0,7818.0,-870.0,-8237.0,0.422174,0.192368,0.885862,-6770.0,-17024.0,-3262.0,-6165.0,13055.0,-5160.0
2839.0,2757.0,2862.0,3071.0,2999.0,0.985474,0.083252,-0.142822,0.037903,-202.0,541.0,-192.0,3259.0,-4006.0,-2120.0,901.0,-5261.0,-9863.0,4093.0,-3401.0,-9870.0,0.287806,0.153258,0.945266,-16124.0,-18318.0,1630.0,-4606.0,12392.0,-4384.0
2839.0,2783.0,2851.0,3088.0,2973.0,0.998779,0.045471,-0.015808,0.006287,-83.0,435.0,-127.0,-2881.0,-5372.0,1289.0,-3144.0,-6114.0,-6864.0,-2843.0,-5497.0,-7486.0,0.032149,0.090633,0.995282,-20754.0,-11722.0,14660.0,-1901.0,9977.0,-2900.0
2854.0,2768.0,2864.0,3101.0,2991.0,0.996094,0.033447,0.080505,-0.011536,-11.0,297.0,-63.0,-6818.0,-3756.0,5066.0,-5497.0,-4286.0,-3000.0,-6024.0,-3972.0,-2345.0,-0.161153,0.064776,0.984736,-23552.0,-384.0,21112.0,-239.0,6810.0,-1432.0
2851.0,2779.0,2815.0,3091.0,2991.0,0.992615,0.033142,0.115295,-0.015991,1.0,231.0,-38.0,-8123.0,-2444.0,6732.0,-6239.0,-2952.0,-1223.0,-6464.0,-2708.0,63.0,-0.229948,0.062107,0.971148,-23408.0,3116.0,23020.0,44.0,5309.0,-866.0
2838.0,2762.0,2855.0,3091.0,3003.0,0.986023,0.035706,0.161438,-0.019226,4.0,121.0,-10.0,-9395.0,-191.0,9140.0,-6775.0,-716.0,1396.0,-6009.0,-641.0,3439.0,-0.319736,0.064205,0.945274,-20598.0,5304.0,24278.0,113.0,2773.0,-212.0
2843.0,2767.0,2847.0,3091.0,2987.0,0.982239,0.039062,0.182434,-0.019165,6.0,41.0,0.0,-9227.0,1130.0,10547.0,-6278.0,558.0,2925.0,-4782.0,457.0,5019.0,-0.359885,0.069745,0.930352,-16866.0,5356.0,24294.0,147.0,941.0,10.0
2855.0,2787.0,2832.0,3088.0,2990.0,0.981445,0.040771,0.186218,-0.019043,6.0,12.0,0.0,-8803.0,1508.0,10947.0,-5795.0,910.0,3350.0,-4121.0,743.0,5299.0,-0.367079,0.072938,0.927258,-14722.0,5008.0,24038.0,155.0,286.0,18.0
2847.0,2764.0,2839.0,3071.0,3025.0,0.981628,0.043152,0.184753,-0.018555,4.0,-24.0,5.0,-7433.0,1645.0,11248.0,-4448.0,1007.0,3646.0,-2771.0,759.0,5082.0,-0.36432,0.077862,0.927943,-10262.0,2782.0,22704.0,97.0,-546.0,125.0
2843.0,2767.0,2833.0,3055.0,3007.0,0.982239,0.044006,0.181213,-0.017639,5.0,-33.0,11.0,-6667.0,1410.0,11176.0,-3738.0,754.0,3554.0,-2191.0,490.0,4703.0,-0.357542,0.080057,0.930329,-8744.0,1140.0,21708.0,115.0,-753.0,260.0
2843.0,2773.0,2839.0,3071.0,2994.0,0.983948,0.046204,0.171753,-0.013489,13.0,-41.0,27.0,-5274.0,613.0,10654.0,-2494.0,-93.0,2980.0,-1346.0,-350.0,3629.0,-0.339238,0.08629,0.936701,-6768.0,-1402.0,19228.0,306.0,-924.0,636.0
2855.0,2787.0,2847.0,3091.0,2983.0,0.984741,0.04834,0.166565,-0.010193,20.0,-42.0,35.0,-4749.0,207.0,10254.0,-2053.0,-545.0,2555.0,-1122.0,-786.0,3026.0,-0.329032,0.091809,0.939739,-6512.0,-1948.0,18058.0,472.0,-952.0,824.0
2839.0,2771.0,2849.0,3071.0,2991.0,0.986145,0.055481,0.156067,-0.001831,35.0,-43.0,45.0,-3984.0,-304.0,9466.0,-1460.0,-1195.0,1724.0,-883.0,-1397.0,1948.0,-0.308012,0.108853,0.94505,-6022.0,-1636.0,16844.0,812.0,-968.0,1052.0
2843.0,2768.0,2843.0,3091.0,2993.0,0.987183,0.065552,0.14502,0.008179,41.0,-47.0,55.0,-3503.0,-352.0,8882.0,-1166.0,-1431.0,1105.0,-803.0,-1599.0,1192.0,-0.285249,0.131795,0.949269,-5890.0,-512.0,16140.0,955.0,-1062.0,1278.0
2837.0,2749.0,2851.0,3071.0,2981.0,0.98761,0.071167,0.138672,0.014343,42.0,-53.0,64.0,-3396.0,-305.0,8612.0,-1168.0,-1489.0,819.0,-883.0,-1641.0,881.0,-0.271866,0.144548,0.951284,-6292.0,-296.0,15630.0,975.0,-1206.0,1470.0
2843.0,2782.0,2855.0,3093.0,2991.0,0.988342,0.084045,0.123413,0.029236,52.0,-69.0,78.0,-3270.0,-244.0,8085.0,-1311.0,-1664.0,258.0,-1142.0,-1781.0,271.0,-0.239034,0.173347,0.955381,-6104.0,-208.0,14786.0,1212.0,-1563.0,1805.0
2851.0,2791.0,2837.0,3095.0,3007.0,0.98822,0.101562,0.10498,0.045349,72.0,-80.0,84.0,-2991.0,88.0,7830.0,-1366.0,-1634.0,-12.0,-1221.0,-1742.0,-84.0,-0.198276,0.210254,0.9573,-4904.0,1592.0,15156.0,1665.0,-1815.0,1929.0
2839.0,2770.0,2823.0,3087.0,3021.0,0.987671,0.112244,0.094543,0.053833,80.0,-86.0,89.0,-2792.0,334.0,7726.0,-1361.0,-1565.0,-112.0,-1217.0,-1666.0,-232.0,-0.174671,0.231899,0.956855,-4372.0,2144.0,14774.0,1845.0,-1957.0,2051.0
2839.0,2765.0,2842.0,3090.0,2979.0,0.985291,0.13678,0.071106,0.073242,96.0,-99.0,108.0,-2381.0,812.0,7468.0,-1397.0,-1481.0,-334.0,-1236.0,-1551.0,-564.0,-0.120084,0.279952,0.952397,-3484.0,3038.0,14296.0,2207.0,-2254.0,2483.0
2843.0,2759.0,2827.0,3071.0,2991.0,0.983154,0.15094,0.058105,0.084778,107.0,-104.0,121.0,-2126.0,1023.0,7396.0,-1399.0,-1489.0,-366.0,-1198.0,-1552.0,-679.0,-0.088661,0.306647,0.947621,-2642.0,3212.0,14434.0,2456.0,-2377.0,2785.0
2843.0,2759.0,2847.0,3071.0,2987.0,0.975708,0.185181,0.030396,0.112854,147.0,-107.0,155.0,-1500.0,1189.0,7290.0,-1356.0,-1827.0,-324.0,-969.0,-1854.0,-950.0,-0.017518,0.368225,0.929526,-880.0,2502.0,14012.0,3389.0,-2447.0,3557.0
2847.0,2783.0,2837.0,3071.0,2991.0,0.960815,0.233276,0.002747,0.149353,223.0,-101.0,194.0,-566.0,1249.0,6850.0,-1093.0,-2429.0,-449.0,-383.0,-2170.0,-1561.0,0.064403,0.449091,0.891047,2300.0,2954.0,11826.0,5112.0,-2308.0,4450.0
2854.0,2803.0,2863.0,3067.0,3015.0,0.948975,0.264648,-0.010376,0.171082,269.0,-96.0,214.0,114.0,1444.0,6390.0,-789.0,-2641.0,-652.0,83.0,-2038.0,-1964.0,0.110246,0.498739,0.859675,4502.0,4380.0,9732.0,6163.0,-2186.0,4915.0
2847.0,2791.0,2837.0,3088.0,3005.0,0.912598,0.341736,-0.034485,0.221558,354.0,-82.0,254.0,1805.0,2472.0,4939.0,48.0,-2512.0,-1319.0,1001.0,-817.0,-2525.0,0.21437,0.608454,0.76395,9034.0,8778.0,4840.0,8121.0,-1874.0,5834.0
2862.0,2795.0,2815.0,3111.0,2992.0,0.855835,0.430786,-0.055054,0.280762,409.0,-61.0,296.0,3759.0,4219.0,3014.0,1005.0,-1568.0,-2086.0,1360.0,1299.0,-2068.0,0.33613,0.70645,0.622673,13540.0,14446.0,212.0,9388.0,-1382.0,6799.0
2851.0,2735.0,2858.0,3071.0,3007.0,0.819519,0.475769,-0.063354,0.312927,425.0,-44.0,312.0,4728.0,5249.0,2080.0,1438.0,-814.0,-2336.0,1158.0,2279.0,-1284.0,0.401603,0.740153,0.539165,15132.0,16734.0,-1354.0,9743.0,-999.0,7156.0
2845.0,2755.0,2865.0,3039.0,3031.0,0.733337,0.559814,-0.073425,0.378601,439.0,-5.0,324.0,6375.0,7179.0,289.0,2020.0,908.0,-2679.0,-7.0,3382.0,798.0,0.531584,0.765468,0.362339,17100.0,19380.0,-4818.0,10068.0,-100.0,7427.0
2833.0,2773.0,2855.0,3071.0,2961.0,0.684875,0.597229,-0.075012,0.410583,441.0,13.0,321.0,6932.0,7827.0,-607.0,2072.0,1630.0,-2862.0,-822.0,3414.0,1674.0,0.593173,0.756457,0.275324,16898.0,19210.0,-6616.0,10110.0,304.0,7374.0
2847.0,2778.0,2851.0,3071.0,2999.0,0.58136,0.660645,-0.072388,0.469299,429.0,35.0,307.0,7509.0,8655.0,-2164.0,1739.0,2918.0,-3118.0,-2587.0,2474.0,2904.0,0.704247,0.700201,0.11653,16242.0,19270.0,-8056.0,9841.0,821.0,7043.0
2844.0,2790.0,2871.0,3091.0,2995.0,0.477417,0.705933,-0.06665,0.518799,383.0,45.0,289.0,7573.0,9196.0,-2805.0,1051.0,4240.0,-2758.0,-3868.0,202.0,3417.0,0.796114,0.604892,-0.005704,14660.0,20178.0,-6460.0,8794.0,1048.0,6639.0
2850.0,2763.0,2862.0,3099.0,2963.0,0.428833,0.721558,-0.064148,0.539612,348.0,46.0,276.0,7429.0,9405.0,-2731.0,599.0,4902.0,-2324.0,-4159.0,-1237.0,3309.0,0.83374,0.549625,-0.049682,13940.0,19778.0,-4538.0,7990.0,1069.0,6329.0
2850.0,2795.0,2819.0,3088.0,3015.0,0.344727,0.739868,-0.061829,0.57428,266.0,51.0,235.0,7054.0,9405.0,-1885.0,-256.0,5807.0,-1044.0,-3758.0,-3852.0,2428.0,0.892411,0.439091,-0.102594,13276.0,19086.0,250.0,6114.0,1173.0,5390.0
2832.0,2768.0,2832.0,3089.0,2999.0,0.284424,0.74408,-0.061401,0.601318,167.0,59.0,176.0,6519.0,8977.0,-784.0,-1097.0,6114.0,157.0,-2810.0,-5431.0,1098.0,0.929785,0.349424,-0.114944,11944.0,15930.0,2810.0,3828.0,1367.0,4044.0
2861.0,2799.0,2865.0,3091.0,2987.0,0.263428,0.74176,-0.060913,0.613647,126.0,71.0,142.0,6343.0,8633.0,-95.0,-1377.0,6043.0,789.0,-2136.0,-5846.0,526.0,0.942451,0.316042,-0.107961,11576.0,15206.0,3838.0,2888.0,1643.0,3269.0
2859.0,2774.0,2847.0,3071.0,2979.0,0.240662,0.730652,-0.061035,0.635925,31.0,84.0,83.0,6007.0,7711.0,828.0,-1846.0,5465.0,1444.0,-1199.0,-5810.0,-380.0,0.958658,0.274052,-0.075258,11274.0,11950.0,3774.0,725.0,1938.0,1903.0
2835.0,2770.0,2862.0,3071.0,3003.0,0.23761,0.722656,-0.063049,0.645935,-9.0,88.0,61.0,5924.0,6968.0,1037.0,-1969.0,4821.0,1467.0,-903.0,-5286.0,-711.0,0.96354,0.261969,-0.052517,11420.0,9056.0,3046.0,-203.0,2038.0,1420.0
2859.0,2769.0,2847.0,3071.0,2987.0,0.24054,0.704041,-0.070679,0.664368,-54.0,93.0,34.0,5898.0,4792.0,1034.0,-2044.0,2786.0,1045.0,-444.0,-3337.0,-1301.0,0.969486,0.244786,-0.001425,11844.0,2588.0,1726.0,-1219.0,2135.0,794.0
2859.0,2739.0,2853.0,3103.0,2981.0,0.24823,0.684387,-0.078735,0.680969,-58.0,91.0,14.0,5900.0,2783.0,1049.0,-2055.0,878.0,633.0,50.0,-1515.0,-1759.0,0.971182,0.232538,0.050752,11780.0,366.0,2550.0,-1321.0,2101.0,329.0
2865.0,2775.0,2874.0,3099.0,2995.0,0.252869,0.674622,-0.081726,0.688599,-56.0,89.0,6.0,5856.0,2071.0,1144.0,-2093.0,198.0,518.0,289.0,-903.0,-1946.0,0.970419,0.228628,0.076317,11378.0,156.0,2884.0,-1280.0,2060.0,139.0
2864.0,2775.0,2859.0,3071.0,2982.0,0.263672,0.655945,-0.085876,0.701965,-56.0,80.0,-8.0,5567.0,1276.0,1508.0,-2348.0,-570.0,486.0,701.0,-349.0,-2336.0,0.966187,0.225344,0.12464,9176.0,1254.0,4572.0,-1281.0,1842.0,-176.0
2867.0,2759.0,2839.0,3057.0,2979.0,0.270325,0.647461,-0.088074,0.707031,-65.0,63.0,-11.0,4804.0,1345.0,1799.0,-3086.0,-502.0,602.0,819.0,-692.0,-2997.0,0.963167,0.225508,0.146006,4476.0,3630.0,5622.0,-1481.0,1459.0,-233.0
2861.0,2742.0,2831.0,3069.0,2983.0,0.288879,0.63562,-0.100159,0.70874,-114.0,-10.0,-10.0,3946.0,1461.0,3228.0,-3908.0,-384.0,1821.0,1838.0,-1717.0,-3520.0,0.958847,0.225262,0.171719,8964.0,1736.0,11534.0,-2597.0,-212.0,-220.0
2847.0,2786.0,2855.0,3089.0,2999.0,0.298767,0.631531,-0.111023,0.706726,-122.0,-26.0,-4.0,4555.0,933.0,3952.0,-3300.0,-872.0,2497.0,2631.0,-1570.0,-2913.0,0.958979,0.220436,0.177566,13184.0,-1942.0,11702.0,-2775.0,-573.0,-84.0
2853.0,2801.0,2863.0,3091.0,3007.0,0.31134,0.624268,-0.13092,0.704346,-71.0,-11.0,3.0,5679.0,-703.0,4106.0,-2192.0,-2376.0,2580.0,3547.0,-248.0,-2111.0,0.960922,0.204293,0.186186,13980.0,-6092.0,7318.0,-1626.0,-241.0,82.0
2847.0,2797.0,2863.0,3071.0,2994.0,0.313599,0.620789,-0.138306,0.705017,-3.0,-2.0,-4.0,6222.0,-1481.0,3548.0,-1659.0,-3073.0,1984.0,3504.0,742.0,-1814.0,0.962078,0.194341,0.190886,13708.0,-3570.0,5338.0,-66.0,-35.0,-75.0
2838.0,2769.0,2837.0,3087.0,2987.0,0.312317,0.62085,-0.137939,0.705627,16.0,-4.0,-4.0,6413.0,-1288.0,3303.0,-1470.0,-2870.0,1738.0,3179.0,792.0,-1637.0,0.962339,0.193136,0.19097,13938.0,-844.0,5252.0,376.0,-73.0,-88.0
2855.0,2763.0,2833.0,3046.0,2991.0,0.309143,0.622986,-0.135681,0.705566,14.0,-15.0,1.0,6753.0,-57.0,2937.0,-1135.0,-1643.0,1406.0,2149.0,154.0,-1148.0,0.963006,0.193719,0.186873,14534.0,3924.0,4698.0,328.0,-337.0,44.0
2850.0,2794.0,2860.0,3095.0,2999.0,0.308289,0.624573,-0.135925,0.704529,2.0,-21.0,4.0,6911.0,499.0,2711.0,-985.0,-1086.0,1213.0,1651.0,-120.0,-937.0,0.963867,0.193571,0.182836,14726.0,4074.0,4080.0,66.0,-467.0,103.0
2855.0,2779.0,2839.0,3103.0,3007.0,0.308289,0.627808,-0.139587,0.700867,-14.0,-29.0,4.0,7078.0,1141.0,2334.0,-836.0,-427.0,919.0,1006.0,-421.0,-730.0,0.966085,0.191428,0.172629,14316.0,3540.0,3576.0,-319.0,-655.0,95.0
2847.0,2751.0,2839.0,3057.0,2987.0,0.309082,0.629578,-0.142578,0.698364,-22.0,-33.0,3.0,7060.0,1223.0,2164.0,-865.0,-333.0,799.0,849.0,-432.0,-767.0,0.967486,0.190039,0.166548,13958.0,2660.0,3350.0,-493.0,-746.0,73.0
2859.0,2758.0,2854.0,3057.0,3003.0,0.311829,0.632629,-0.150513,0.692627,-31.0,-35.0,0.0,7085.0,954.0,2157.0,-863.0,-570.0,894.0,1058.0,-314.0,-805.0,0.970221,0.186046,0.154095,14232.0,784.0,4984.0,-708.0,-793.0,10.0
2859.0,2788.0,2855.0,3107.0,2999.0,0.313721,0.633728,-0.154602,0.68988,-33.0,-34.0,-3.0,7034.0,795.0,2301.0,-923.0,-714.0,1081.0,1289.0,-339.0,-867.0,0.971397,0.184313,0.148843,13592.0,790.0,5586.0,-739.0,-776.0,-60.0
2855.0,2777.0,2851.0,3091.0,2999.0,0.319885,0.635498,-0.163086,0.683411,-48.0,-39.0,-12.0,6600.0,644.0,2615.0,-1370.0,-860.0,1476.0,1665.0,-606.0,-1285.0,0.97295,0.183664,0.138922,11350.0,1236.0,6028.0,-1082.0,-893.0,-262.0
2847.0,2763.0,2837.0,3045.0,3009.0,0.325012,0.636475,-0.168335,0.678894,-62.0,-47.0,-19.0,6269.0,639.0,2776.0,-1706.0,-877.0,1685.0,1810.0,-827.0,-1599.0,0.973619,0.185161,0.133093,10548.0,1260.0,6534.0,-1401.0,-1066.0,-415.0
2846.0,2755.0,2843.0,3047.0,2994.0,0.340637,0.63916,-0.182129,0.664978,-99.0,-72.0,-36.0,5507.0,688.0,2851.0,-2473.0,-894.0,1896.0,1867.0,-1202.0,-2360.0,0.974135,0.19322,0.116533,8802.0,1098.0,5596.0,-2253.0,-1629.0,-814.0
2851.0,2753.0,2815.0,3055.0,3006.0,0.363037,0.643921,-0.201416,0.642578,-129.0,-100.0,-58.0,4884.0,106.0,2554.0,-3093.0,-1603.0,1820.0,2116.0,-912.0,-3183.0,0.973782,0.208683,0.0895,8224.0,-2450.0,3912.0,-2934.0,-2287.0,-1322.0
2858.0,2769.0,2854.0,3101.0,2991.0,0.375427,0.647583,-0.211487,0.628357,-129.0,-113.0,-74.0,4658.0,-425.0,2359.0,-3309.0,-2231.0,1771.0,2424.0,-584.0,-3583.0,0.972622,0.220462,0.071688,8000.0,-4110.0,3588.0,-2951.0,-2579.0,-1688.0
2855.0,2773.0,2845.0,3103.0,3003.0,0.401794,0.659119,-0.226685,0.593872,-113.0,-136.0,-123.0,4160.0,-1134.0,2055.0,-3745.0,-3267.0,1823.0,2912.0,-248.0,-4413.0,0.965026,0.260417,0.0283,6658.0,-3240.0,3378.0,-2577.0,-3115.0,-2797.0
2859.0,2771.0,2851.0,3103.0,2991.0,0.434204,0.676392,-0.231689,0.547913,-120.0,-159.0,-189.0,3611.0,-297.0,1975.0,-4109.0,-3028.0,2158.0,2354.0,-921.0,-4930.0,0.942408,0.333493,-0.022444,5636.0,4880.0,4170.0,-2736.0,-3641.0,-4325.0
2858.0,2774.0,2851.0,3111.0,2993.0,0.486877,0.690918,-0.228638,0.48291,-218.0,-167.0,-274.0,3610.0,3437.0,1964.0,-3680.0,-265.0,2450.0,-280.0,-2645.0,-3540.0,0.88994,0.451962,-0.059391,8684.0,20290.0,3348.0,-4977.0,-3817.0,-6275.0
2853.0,2765.0,2829.0,3031.0,2991.0,0.525452,0.691467,-0.226013,0.441162,-302.0,-160.0,-318.0,4151.0,5619.0,1576.0,-2792.0,1299.0,2055.0,-1662.0,-2773.0,-1801.0,0.847616,0.527248,-0.058486,12154.0,24002.0,272.0,-6901.0,-3650.0,-7281.0
2845.0,2782.0,2839.0,3039.0,2995.0,0.622131,0.669373,-0.218506,0.342163,-458.0,-111.0,-393.0,6081.0,8880.0,-507.0,101.0,3282.0,-575.0,-2396.0,150.0,2311.0,0.729948,0.683346,0.008319,18764.0,25112.0,-8776.0,-10490.0,-2540.0,-8993.0
2859.0,2773.0,2839.0,3043.0,2992.0,0.726257,0.615417,-0.195923,0.235291,-527.0,-8.0,-449.0,8180.0,10318.0,-2735.0,3476.0,3750.0,-4092.0,617.0,4878.0,4324.0,0.574185,0.801705,0.165687,21988.0,22998.0,-10112.0,-12057.0,-168.0,-10262.0
2855.0,2783.0,2845.0,3103.0,3002.0,0.775085,0.578857,-0.173218,0.184509,-526.0,65.0,-468.0,8848.0,10380.0,-3133.0,4898.0,3552.0,-5342.0,2835.0,6483.0,3880.0,0.482126,0.833407,0.269721,21216.0,20404.0,-7944.0,-12030.0,1491.0,-10700.0
2855.0,2773.0,2846.0,3103.0,2999.0,0.858093,0.494507,-0.099731,0.095398,-478.0,224.0,-474.0,8727.0,9826.0,-2282.0,6551.0,3029.0,-6303.0,5990.0,7387.0,1157.0,0.265508,0.829638,0.490941,14066.0,17526.0,128.0,-10932.0,5136.0,-10855.0
2861.0,2783.0,2849.0,3099.0,2999.0,0.915039,0.402222,0.004517,0.028687,-440.0,334.0,-411.0,5949.0,9593.0,-1037.0,5827.0,3560.0,-6577.0,5436.0,7568.0,-1740.0,0.014811,0.736356,0.676317,426.0,19618.0,182.0,-10074.0,7659.0,-9404.0
2849.0,2775.0,2851.0,3055.0,3003.0,0.933411,0.353699,0.060059,0.003723,-438.0,342.0,-364.0,3733.0,9546.0,-847.0,4629.0,4133.0,-6930.0,3947.0,7900.0,-2921.0,-0.109485,0.66074,0.742559,-6162.0,18036.0,-678.0,-10032.0,7855.0,-8317.0
2855.0,2782.0,2837.0,3053.0,2990.0,0.953552,0.253174,0.1604,-0.028687,-414.0,291.0,-239.0,-1491.0,7337.0,-336.0,1133.0,3457.0,-7055.0,-513.0,6509.0,-4512.0,-0.320426,0.473626,0.82026,-19750.0,5930.0,1512.0,-9469.0,6680.0,-5471.0
2847.0,2762.0,2846.0,3063.0,2995.0,0.957336,0.162231,0.235779,-0.039429,-315.0,196.0,-122.0,-6586.0,3072.0,1000.0,-2783.0,679.0,-5849.0,-4927.0,2563.0,-3400.0,-0.464232,0.292027,0.836137,-26172.0,-8922.0,8166.0,-7200.0,4492.0,-2794.0
2846.0,2785.0,2853.0,3099.0,2995.0,0.95575,0.128845,0.260986,-0.041565,-217.0,140.0,-84.0,-8126.0,703.0,2452.0,-3951.0,-1136.0,-4351.0,-5689.0,119.0,-1855.0,-0.509586,0.224592,0.83047,-24168.0,-12018.0,14190.0,-4949.0,3222.0,-1912.0
2843.0,2779.0,2849.0,3088.0,2993.0,0.952148,0.100403,0.284424,-0.048462,-11.0,27.0,-34.0,-9132.0,-1452.0,5608.0,-4615.0,-2792.0,-1092.0,-4844.0,-2321.0,1194.0,-0.551359,0.163629,0.817958,-19160.0,-4158.0,19792.0,-237.0,619.0,-772.0
2847.0,2783.0,2847.0,3095.0,2999.0,0.952881,0.108826,0.277771,-0.054382,60.0,-64.0,10.0,-8613.0,150.0,7830.0,-4179.0,-1301.0,1096.0,-3155.0,-1342.0,2932.0,-0.541202,0.177184,0.82194,-14194.0,6820.0,21104.0,1386.0,-1459.0,230.0
2839.0,2774.0,2845.0,3089.0,3003.0,0.955017,0.11615,0.267212,-0.05481,54.0,-90.0,24.0,-7987.0,1158.0,8524.0,-3701.0,-419.0,1723.0,-2362.0,-680.0,3285.0,-0.523116,0.192559,0.830169,-12042.0,8048.0,20802.0,1247.0,-2057.0,555.0
2851.0,2768.0,2846.0,3089.0,2995.0,0.960876,0.12616,0.240662,-0.05249,23.0,-108.0,31.0,-6519.0,2225.0,9245.0,-2621.0,445.0,2263.0,-1214.0,-72.0,3272.0,-0.475736,0.217183,0.852205,-8458.0,5988.0,19792.0,537.0,-2454.0,725.0
2853.0,2775.0,2849.0,3091.0,2999.0,0.963928,0.128052,0.227417,-0.050903,10.0,-101.0,28.0,-5746.0,2213.0,9374.0,-2047.0,380.0,2299.0,-786.0,-173.0,2994.0,-0.451464,0.223713,0.863633,-6888.0,3830.0,19340.0,233.0,-2313.0,648.0
2851.0,2777.0,2842.0,3102.0,2998.0,0.969116,0.127014,0.205688,-0.047668,-7.0,-70.0,23.0,-4263.0,1535.0,9378.0,-897.0,-321.0,2144.0,-34.0,-843.0,2188.0,-0.410781,0.226573,0.883018,-4244.0,448.0,18366.0,-145.0,-1597.0,540.0
2851.0,2789.0,2847.0,3099.0,2993.0,0.972351,0.123901,0.193054,-0.043274,-4.0,-30.0,25.0,-3186.0,496.0,8952.0,-22.0,-1340.0,1622.0,394.0,-1710.0,1159.0,-0.386156,0.224243,0.894718,-3918.0,-2104.0,16138.0,-71.0,-671.0,576.0
2847.0,2782.0,2846.0,3071.0,2995.0,0.973083,0.123413,0.190186,-0.040771,5.0,-13.0,26.0,-2872.0,41.0,8608.0,242.0,-1799.0,1258.0,449.0,-2067.0,632.0,-0.380196,0.224674,0.897152,-4060.0,-2472.0,15036.0,126.0,-280.0,602.0
2851.0,2768.0,2846.0,3071.0,2995.0,0.973083,0.126465,0.18927,-0.035339,25.0,8.0,28.0,-2691.0,-299.0,7864.0,399.0,-2205.0,521.0,299.0,-2272.0,-196.0,-0.377289,0.232744,0.896324,-5460.0,-660.0,13588.0,576.0,188.0,649.0
2858.0,2783.0,2847.0,3089.0,2999.0,0.972534,0.129944,0.190063,-0.032776,32.0,11.0,27.0,-2795.0,-173.0,7532.0,303.0,-2141.0,209.0,113.0,-2123.0,-442.0,-0.378204,0.240291,0.893887,-6408.0,680.0,13108.0,750.0,256.0,633.0
2850.0,2783.0,2847.0,3095.0,2991.0,0.971069,0.139221,0.191589,-0.02887,37.0,3.0,20.0,-3250.0,589.0,7034.0,-135.0,-1535.0,-238.0,-379.0,-1405.0,-558.0,-0.380132,0.259325,0.88772,-8080.0,4036.0,12888.0,861.0,91.0,464.0
2850.0,2781.0,2843.0,3071.0,2992.0,0.970459,0.143799,0.191467,-0.027893,33.0,-5.0,14.0,-3494.0,1080.0,6906.0,-383.0,-1118.0,-345.0,-601.0,-970.0,-460.0,-0.379644,0.268421,0.885231,-8430.0,5150.0,13106.0,769.0,-97.0,341.0
2850.0,2771.0,2847.0,3089.0,2999.0,0.970093,0.150696,0.188171,-0.027161,19.0,-25.0,9.0,-3875.0,1889.0,6857.0,-817.0,-422.0,-382.0,-940.0,-289.0,-151.0,-0.373273,0.282156,0.8837,-8562.0,5708.0,13808.0,448.0,-569.0,215.0
2847.0,2779.0,2861.0,3089.0,2999.0,0.970459,0.152893,0.184631,-0.026978,14.0,-36.0,10.0,-3967.0,2100.0,6877.0,-963.0,-249.0,-373.0,-1053.0,-126.0,-48.0,-0.366604,0.286791,0.885053,-8338.0,5230.0,13888.0,326.0,-807.0,245.0
2850.0,2777.0,2855.0,3095.0,3011.0,0.971802,0.156616,0.174072,-0.025513,15.0,-52.0,21.0,-3974.0,2164.0,7069.0,-1136.0,-256.0,-223.0,-1165.0,-178.0,119.0,-0.346319,0.295518,0.89022,-7726.0,4240.0,15042.0,347.0,-1171.0,500.0
2842.0,2783.0,2852.0,3071.0,2993.0,0.972656,0.159058,0.167297,-0.023499,19.0,-57.0,33.0,-3916.0,2135.0,7260.0,-1188.0,-335.0,-58.0,-1171.0,-308.0,242.0,-0.332921,0.301554,0.893325,-7430.0,4052.0,15740.0,438.0,-1305.0,764.0
2843.0,2787.0,2851.0,3071.0,3003.0,0.974243,0.166931,0.150513,-0.014038,37.0,-67.0,72.0,-3633.0,1893.0,7697.0,-1192.0,-736.0,333.0,-1098.0,-831.0,418.0,-0.297959,0.321037,0.898827,-6208.0,2812.0,16644.0,860.0,-1516.0,1652.0
2845.0,2781.0,2859.0,3071.0,2987.0,0.974487,0.182983,0.129517,0.005188,75.0,-74.0,122.0,-3306.0,1625.0,7985.0,-1253.0,-1307.0,617.0,-1102.0,-1510.0,400.0,-0.250526,0.357974,0.899395,-5556.0,2920.0,16564.0,1720.0,-1688.0,2802.0
2850.0,2782.0,2858.0,3103.0,2999.0,0.97345,0.195312,0.117798,0.018616,96.0,-75.0,146.0,-3098.0,1730.0,8067.0,-1278.0,-1420.0,727.0,-1083.0,-1689.0,388.0,-0.222069,0.38464,0.895928,-4880.0,4494.0,16648.0,2221.0,-1703.0,3350.0
2855.0,2763.0,2851.0,3103.0,3007.0,0.967773,0.227905,0.092163,0.053772,128.0,-76.0,197.0,-2534.0,2649.0,8080.0,-1273.0,-1045.0,878.0,-1000.0,-1494.0,496.0,-0.153876,0.451033,0.879042,-3176.0,8652.0,15652.0,2935.0,-1732.0,4523.0
2851.0,2782.0,2855.0,3095.0,3003.0,0.956055,0.268372,0.062439,0.099487,156.0,-87.0,242.0,-2005.0,3955.0,7592.0,-1464.0,-350.0,645.0,-1257.0,-943.0,459.0,-0.065991,0.52558,0.848016,-2530.0,12042.0,13714.0,3578.0,-1978.0,5546.0
2847.0,2787.0,2847.0,3089.0,3011.0,0.947205,0.291931,0.045837,0.124329,178.0,-95.0,254.0,-1690.0,4447.0,7312.0,-1573.0,-176.0,550.0,-1393.0,-851.0,376.0,-0.014244,0.564435,0.825329,-1334.0,11408.0,12790.0,4080.0,-2162.0,5836.0
2839.0,2779.0,2842.0,3093.0,2993.0,0.920715,0.347717,0.009949,0.176697,244.0,-104.0,281.0,-580.0,4684.0,6279.0,-1436.0,-590.0,70.0,-1148.0,-932.0,-476.0,0.104561,0.643813,0.757932,3176.0,9738.0,8694.0,5596.0,-2372.0,6446.0
2859.0,2793.0,2847.0,3101.0,3011.0,0.901428,0.381165,-0.008606,0.204956,284.0,-103.0,298.0,315.0,4781.0,5548.0,-1092.0,-819.0,-261.0,-728.0,-728.0,-932.0,0.171759,0.683657,0.709219,6350.0,10222.0,6522.0,6513.0,-2347.0,6842.0
2839.0,2775.0,2855.0,3103.0,2995.0,0.84729,0.456177,-0.044922,0.268127,346.0,-82.0,343.0,2589.0,5505.0,3788.0,-38.0,-630.0,-960.0,117.0,472.0,-1040.0,0.320751,0.748938,0.579678,12236.0,14274.0,1978.0,7944.0,-1868.0,7863.0
2845.0,2774.0,2855.0,3117.0,2999.0,0.7724,0.531738,-0.075867,0.338806,377.0,-46.0,372.0,4638.0,6830.0,1868.0,726.0,521.0,-1596.0,-151.0,1821.0,72.0,0.477511,0.770021,0.42289,14820.0,17400.0,-2028.0,8651.0,-1038.0,8526.0
2839.0,2779.0,2839.0,3095.0,3007.0,0.728394,0.566956,-0.087769,0.374512,389.0,-26.0,372.0,5409.0,7371.0,924.0,882.0,1143.0,-1874.0,-672.0,2151.0,715.0,0.552523,0.760193,0.341674,15048.0,17842.0,-3794.0,8922.0,-589.0,8524.0
2851.0,2767.0,2842.0,3089.0,2987.0,0.631409,0.629944,-0.101135,0.440674,405.0,6.0,341.0,6284.0,8112.0,-796.0,689.0,2325.0,-2318.0,-2173.0,1922.0,1682.0,0.682915,0.706369,0.185813,14658.0,17680.0,-6120.0,9282.0,148.0,7816.0
2851.0,2759.0,2833.0,3099.0,3022.0,0.580811,0.656616,-0.103027,0.469849,401.0,18.0,320.0,6589.0,8208.0,-1391.0,553.0,2752.0,-2344.0,-2743.0,1405.0,1967.0,0.736699,0.665925,0.116339,14908.0,16706.0,-6058.0,9193.0,421.0,7344.0
2858.0,2762.0,2859.0,3095.0,2979.0,0.480957,0.697937,-0.101501,0.520752,369.0,35.0,284.0,6927.0,8104.0,-2072.0,172.0,3470.0,-2113.0,-3484.0,-89.0,2093.0,0.82454,0.565641,0.005084,14312.0,15698.0,-5458.0,8453.0,817.0,6528.0
2850.0,2767.0,2853.0,3131.0,2987.0,0.388977,0.723267,-0.096313,0.562317,320.0,50.0,247.0,6929.0,7765.0,-1990.0,-348.0,4042.0,-1458.0,-3529.0,-1868.0,1621.0,0.888337,0.454351,-0.064887,13534.0,16068.0,-3242.0,7340.0,1151.0,5676.0
2847.0,2771.0,2823.0,3055.0,3003.0,0.349792,0.730591,-0.093994,0.578796,264.0,42.0,225.0,6629.0,7795.0,-1917.0,-837.0,4499.0,-1218.0,-3651.0,-2787.0,1150.0,0.911484,0.402303,-0.085238,11464.0,15264.0,-2762.0,6064.0,970.0,5165.0
2858.0,2775.0,2830.0,3071.0,2991.0,0.286804,0.735718,-0.088745,0.607056,198.0,61.0,166.0,6418.0,7438.0,-504.0,-1316.0,4863.0,301.0,-2400.0,-4431.0,256.0,0.944148,0.314267,-0.098383,11668.0,13572.0,2734.0,4547.0,1416.0,3811.0
2859.0,2783.0,2833.0,3071.0,2991.0,0.245605,0.731506,-0.082458,0.630615,115.0,66.0,108.0,5865.0,6603.0,447.0,-2024.0,4511.0,1134.0,-1327.0,-4813.0,-892.0,0.963103,0.255325,-0.083903,10328.0,9906.0,3442.0,2642.0,1534.0,2477.0
2855.0,2759.0,2835.0,3115.0,2987.0,0.233093,0.727234,-0.08075,0.640442,76.0,68.0,83.0,5735.0,5940.0,878.0,-2204.0,4009.0,1458.0,-731.0,-4564.0,-1294.0,0.969146,0.235596,-0.070891,10898.0,7722.0,4342.0,1744.0,1559.0,1916.0
2843.0,2781.0,2859.0,3103.0,2975.0,0.220337,0.714905,-0.079224,0.658813,18.0,78.0,45.0,5695.0,4588.0,1607.0,-2307.0,2862.0,1891.0,284.0,-3749.0,-1716.0,0.97689,0.210653,-0.034782,11436.0,5260.0,5100.0,425.0,1795.0,1032.0
2839.0,2767.0,2863.0,3051.0,3023.0,0.218994,0.70697,-0.07959,0.667664,-7.0,83.0,32.0,5718.0,4020.0,1885.0,-2301.0,2354.0,1986.0,632.0,-3338.0,-1798.0,0.978896,0.203366,-0.012408,11586.0,4830.0,5400.0,-145.0,1917.0,741.0
2846.0,2781.0,2845.0,3067.0,2981.0,0.224426,0.688599,-0.082947,0.684509,-49.0,88.0,13.0,5513.0,3258.0,2289.0,-2514.0,1656.0,1978.0,969.0,-2787.0,-2064.0,0.979935,0.195524,0.037872,8862.0,4962.0,5670.0,-1112.0,2027.0,319.0
2847.0,2773.0,2853.0,3119.0,2971.0,0.230835,0.679016,-0.085999,0.691467,-70.0,77.0,5.0,4615.0,3141.0,2477.0,-3402.0,1547.0,1961.0,991.0,-2895.0,-2905.0,0.978738,0.194551,0.062953,2850.0,5794.0,6184.0,-1603.0,1766.0,128.0
2859.0,2781.0,2851.0,3095.0,3003.0,0.250427,0.665955,-0.100708,0.695374,-121.0,-9.0,-1.0,3374.0,2111.0,3568.0,-4626.0,525.0,2809.0,2148.0,-2769.0,-4156.0,0.976614,0.193487,0.092621,7728.0,-1232.0,11960.0,-2760.0,-195.0,-7.0
2846.0,2790.0,2851.0,3114.0,2991.0,0.264832,0.659668,-0.122437,0.692566,-82.0,-27.0,8.0,4922.0,-256.0,4568.0,-3094.0,-1729.0,3751.0,4064.0,-1147.0,-2964.0,0.978577,0.179811,0.099631,14208.0,-7550.0,9478.0,-1872.0,-604.0,206.0
2862.0,2758.0,2819.0,3103.0,2999.0,0.266724,0.657715,-0.129639,0.692383,-41.0,-16.0,10.0,5557.0,-1183.0,4386.0,-2470.0,-2586.0,3557.0,4371.0,-246.0,-2503.0,0.979936,0.171337,0.10114,14742.0,-7300.0,7386.0,-930.0,-345.0,236.0
2839.0,2755.0,2865.0,3051.0,3003.0,0.263062,0.655945,-0.132935,0.694824,25.0,1.0,3.0,6335.0,-1788.0,3711.0,-1705.0,-3101.0,2858.0,4081.0,721.0,-1873.0,0.981473,0.160375,0.104047,14254.0,-3668.0,5200.0,582.0,26.0,69.0
2847.0,2764.0,2837.0,3103.0,2998.0,0.259338,0.656189,-0.130371,0.696472,42.0,1.0,-1.0,6536.0,-1532.0,3384.0,-1505.0,-2832.0,2525.0,3651.0,750.0,-1662.0,0.981655,0.15875,0.104749,14178.0,-958.0,4922.0,973.0,39.0,-5.0
2871.0,2758.0,2853.0,3095.0,3007.0,0.252686,0.658203,-0.124084,0.698181,31.0,-10.0,2.0,6820.0,-124.0,2927.0,-1222.0,-1429.0,2085.0,2530.0,-83.0,-1213.0,0.981799,0.15937,0.102679,14378.0,4944.0,4920.0,727.0,-208.0,61.0
2843.0,2759.0,2858.0,3089.0,2982.0,0.251526,0.659363,-0.122803,0.697693,9.0,-16.0,3.0,6897.0,749.0,2804.0,-1146.0,-564.0,1983.0,1995.0,-738.0,-1016.0,0.981842,0.160336,0.100201,14104.0,6700.0,4868.0,219.0,-364.0,76.0
2850.0,2800.0,2863.0,3063.0,2970.0,0.256592,0.661255,-0.127014,0.693298,-49.0,-33.0,-2.0,6727.0,2109.0,2557.0,-1318.0,771.0,1794.0,1115.0,-1816.0,-1001.0,0.982075,0.163228,0.093111,12552.0,7600.0,4498.0,-1100.0,-738.0,-30.0
2846.0,2763.0,2843.0,3119.0,2983.0,0.263245,0.662048,-0.132874,0.688904,-81.0,-43.0,-8.0,6542.0,2583.0,2491.0,-1503.0,1227.0,1770.0,806.0,-2235.0,-1117.0,0.982132,0.165487,0.087923,11916.0,7780.0,4652.0,-1852.0,-977.0,-165.0
2832.0,2751.0,2867.0,3107.0,2979.0,0.28656,0.662903,-0.152283,0.674622,-151.0,-64.0,-26.0,6276.0,3104.0,2430.0,-1766.0,1674.0,1818.0,405.0,-2711.0,-1306.0,0.981693,0.174457,0.074601,11980.0,7220.0,4634.0,-3458.0,-1464.0,-578.0
2839.0,2769.0,2837.0,3091.0,3019.0,0.323181,0.661133,-0.182556,0.651917,-230.0,-83.0,-40.0,6023.0,3372.0,2043.0,-2005.0,1821.0,1559.0,-213.0,-2717.0,-1528.0,0.980004,0.189309,0.059018,11068.0,7500.0,2254.0,-5260.0,-1900.0,-902.0
2855.0,2811.0,2855.0,3061.0,3014.0,0.346436,0.658691,-0.202271,0.636475,-273.0,-93.0,-47.0,5838.0,3509.0,1559.0,-2178.0,1879.0,1146.0,-763.0,-2472.0,-1700.0,0.978628,0.198908,0.05033,10552.0,7730.0,-156.0,-6235.0,-2123.0,-1057.0
2851.0,2755.0,2807.0,3051.0,3011.0,0.401917,0.649048,-0.249817,0.595581,-354.0,-108.0,-63.0,5651.0,3761.0,252.0,-2327.0,1924.0,-14.0,-1938.0,-1410.0,-1835.0,0.973932,0.224154,0.032582,10930.0,9244.0,-3850.0,-8097.0,-2472.0,-1431.0
2863.0,2783.0,2829.0,3071.0,2987.0,0.469543,0.629028,-0.305664,0.538818,-446.0,-115.0,-85.0,5769.0,4350.0,-1561.0,-2135.0,2209.0,-1738.0,-3142.0,517.0,-1520.0,0.964909,0.261317,0.021689,12748.0,9860.0,-8720.0,-10207.0,-2624.0,-1925.0
2831.0,2758.0,2861.0,3071.0,2991.0,0.5448,0.59259,-0.36554,0.467224,-519.0,-99.0,-98.0,6443.0,4614.0,-3474.0,-1356.0,2122.0,-3722.0,-2979.0,3276.0,-758.0,0.952037,0.304108,0.030323,15256.0,9956.0,-12914.0,-11888.0,-2248.0,-2227.0
2863.0,2781.0,2851.0,3099.0,3013.0,0.583008,0.567505,-0.394531,0.427002,-544.0,-85.0,-103.0,6871.0,4530.0,-4508.0,-867.0,1869.0,-4872.0,-2168.0,4805.0,-428.0,0.944681,0.324788,0.044512,16442.0,8086.0,-15212.0,-12445.0,-1936.0,-2349.0
2845.0,2781.0,2818.0,3101.0,3007.0,0.654175,0.505371,-0.445557,0.343689,-548.0,-44.0,-105.0,7900.0,3398.0,-6194.0,278.0,490.0,-6948.0,1297.0,6845.0,-207.0,0.930325,0.354936,0.092146,19126.0,2570.0,-16336.0,-12551.0,-1007.0,-2401.0
2839.0,2775.0,2867.0,3101.0,2987.0,0.715942,0.432678,-0.479248,0.265503,-510.0,22.0,-104.0,9302.0,2330.0,-6509.0,1798.0,-660.0,-7870.0,4835.0,6496.0,98.0,0.915983,0.365062,0.166176,23676.0,2628.0,-11834.0,-11664.0,519.0,-2380.0
2853.0,2767.0,2849.0,3088.0,2965.0,0.744995,0.394287,-0.486206,0.230286,-485.0,73.0,-108.0,10368.0,2159.0,-5940.0,2945.0,-819.0,-7711.0,6020.0,5660.0,703.0,0.90604,0.363551,0.216191,27548.0,3460.0,-7784.0,-11106.0,1680.0,-2462.0
2855.0,2783.0,2851.0,3063.0,2982.0,0.803467,0.316101,-0.474854,0.170288,-426.0,207.0,-119.0,12689.0,1726.0,-4269.0,5556.0,-1110.0,-7129.0,8037.0,3802.0,1964.0,0.870715,0.34623,0.349151,31822.0,1994.0,-2470.0,-9745.0,4755.0,-2713.0
2853.0,2771.0,2851.0,3089.0,2992.0,0.86322,0.241943,-0.424927,0.125366,-345.0,356.0,-131.0,13454.0,767.0,-2491.0,6947.0,-1782.0,-6765.0,9524.0,2104.0,1433.0,0.794274,0.311158,0.521766,25920.0,-1794.0,-554.0,-7886.0,8175.0,-2997.0
2859.0,2785.0,2822.0,3071.0,2994.0,0.920105,0.179871,-0.335632,0.091614,-252.0,487.0,-153.0,11285.0,-520.0,-1658.0,5955.0,-2727.0,-7474.0,9672.0,713.0,-2167.0,0.650591,0.269503,0.709984,12888.0,-5720.0,-2342.0,-5761.0,11167.0,-3500.0
2850.0,2751.0,2815.0,3087.0,2997.0,0.945068,0.154968,-0.277283,0.076355,-204.0,535.0,-169.0,9247.0,-1446.0,-1667.0,4759.0,-3498.0,-8204.0,8882.0,-260.0,-4817.0,0.547767,0.250567,0.798083,5608.0,-8612.0,-3528.0,-4652.0,12255.0,-3855.0
2838.0,2769.0,2803.0,3095.0,2999.0,0.981934,0.117554,-0.141052,0.045471,-116.0,584.0,-189.0,4867.0,-3018.0,-1726.0,2510.0,-4804.0,-9365.0,5482.0,-2228.0,-9058.0,0.287699,0.218032,0.932547,-2766.0,-10120.0,-3316.0,-2644.0,13395.0,-4329.0
