flex_1,flex_2,flex_3,flex_4,flex_5,Qw,Qx,Qy,Qz,GYRx,GYRy,GYRz,ACCx,ACCy,ACCz,ACCx_real,ACCy_real,ACCz_real,ACCx_world,ACCy_world,ACCz_world,GRAx,GRAy,GRAz,ACCx_raw,ACCy_raw,ACCz_raw,GYRx_raw,GYRy_raw,GYRz_raw
2895.0,2775.0,2875.0,3135.0,3031.0,1.0,0.0,0.0,0.0,0.0,0.0,0.0,0.0,0.0,0.0,0.0,0.0,0.0,0.0,0.0,0.0,0.0,0.0,0.0,0.0,0.0,0.0,0.0,0.0,0.0
2873.0,2762.0,2879.0,3123.0,3043.0,0.844238,0.236877,-0.468384,0.108093,23.0,-4.0,-13.0,7359.0,-382.0,2391.0,460.0,-2828.0,-1286.0,2342.0,-1817.0,-1034.0,0.842065,0.298704,0.448928,14914.0,-314.0,4978.0,527.0,-70.0,-288.0
2871.0,2787.0,2875.0,3151.0,3022.0,0.842896,0.238464,-0.470032,0.108154,-1.0,-4.0,-6.0,7486.0,-18.0,2333.0,572.0,-2478.0,-1307.0,2281.0,-1503.0,-842.0,0.843957,0.300329,0.444375,15246.0,1302.0,4100.0,-20.0,-78.0,-127.0
2875.0,2774.0,2879.0,3139.0,3047.0,-0.000854,-0.000244,-0.000122,0.457336,196.0,2191.0,-19862.0,-23920.0,26405.0,-17347.0,-23918.0,26405.0,-19060.0,5027.0,-5501.0,-3984.0,-0.000224,-0.000111,0.209157,14372.0,1382.0,2792.0,-514.0,-87.0,29.0
2883.0,2769.0,2895.0,3151.0,3043.0,0.842346,0.231689,-0.474915,0.105713,-28.0,-7.0,2.0,7340.0,419.0,1805.0,384.0,-1955.0,-1811.0,2340.0,-828.0,-1040.0,0.84907,0.289916,0.441498,14114.0,1268.0,2412.0,-630.0,-138.0,50.0
2878.0,2770.0,2898.0,3151.0,3055.0,0.841675,0.225281,-0.479858,0.102539,-31.0,-14.0,-1.0,7224.0,508.0,1424.0,228.0,-1792.0,-2163.0,2462.0,-549.0,-1255.0,0.85397,0.280818,0.437915,14456.0,1106.0,1916.0,-694.0,-298.0,-14.0
2875.0,2765.0,2882.0,3127.0,3019.0,0.841003,0.22229,-0.482849,0.100525,-30.0,-16.0,-3.0,7329.0,526.0,1327.0,309.0,-1741.0,-2235.0,2542.0,-495.0,-1189.0,0.856847,0.276817,0.434836,15484.0,1176.0,2234.0,-668.0,-363.0,-67.0
2864.0,2769.0,2907.0,3147.0,3055.0,0.839417,0.216797,-0.489014,0.095947,-31.0,-18.0,-6.0,7788.0,690.0,1421.0,721.0,-1522.0,-2082.0,2553.0,-434.0,-679.0,0.862574,0.270127,0.427691,17080.0,2058.0,3496.0,-690.0,-401.0,-122.0
2879.0,2778.0,2909.0,3111.0,3011.0,0.838135,0.209961,-0.495178,0.090576,-40.0,-20.0,-2.0,8202.0,996.0,1758.0,1090.0,-1152.0,-1694.0,2293.0,-344.0,-69.0,0.868087,0.262248,0.421389,17486.0,3036.0,4542.0,-900.0,-454.0,-41.0
2878.0,2775.0,2893.0,3143.0,3035.0,0.837402,0.205505,-0.498779,0.087646,-46.0,-24.0,1.0,8399.0,1172.0,1939.0,1260.0,-931.0,-1484.0,2127.0,-270.0,238.0,0.871382,0.256749,0.417911,18012.0,3386.0,4990.0,-1047.0,-537.0,45.0
2875.0,2773.0,2891.0,3143.0,3023.0,0.83551,0.194275,-0.507385,0.081665,-57.0,-32.0,11.0,8840.0,1506.0,2258.0,1634.0,-474.0,-1097.0,1824.0,-83.0,873.0,0.879582,0.241766,0.409564,18974.0,4038.0,5422.0,-1298.0,-719.0,252.0
2865.0,2759.0,2893.0,3123.0,3025.0,0.834229,0.1875,-0.512512,0.078735,-62.0,-36.0,16.0,9047.0,1690.0,2403.0,1800.0,-211.0,-909.0,1650.0,54.0,1175.0,0.88463,0.23213,0.404311,19308.0,4530.0,5608.0,-1415.0,-821.0,376.0
2879.0,2766.0,2879.0,3135.0,3039.0,0.830566,0.171936,-0.524658,0.072632,-72.0,-48.0,25.0,9370.0,1999.0,2483.0,2025.0,283.0,-714.0,1407.0,400.0,1596.0,0.896503,0.209395,0.390288,19672.0,4634.0,4952.0,-1643.0,-1093.0,576.0
2879.0,2782.0,2903.0,3141.0,3031.0,0.828064,0.163452,-0.531738,0.069702,-73.0,-53.0,28.0,9532.0,2072.0,2464.0,2131.0,461.0,-657.0,1335.0,534.0,1765.0,0.903413,0.196571,0.381086,20052.0,4602.0,4758.0,-1667.0,-1210.0,657.0
2879.0,2773.0,2896.0,3147.0,3023.0,0.821716,0.146545,-0.546936,0.064148,-71.0,-61.0,32.0,9753.0,2324.0,2226.0,2235.0,925.0,-712.0,1260.0,976.0,1953.0,0.917654,0.170668,0.358718,19898.0,5434.0,3186.0,-1620.0,-1377.0,751.0
2875.0,2770.0,2891.0,3139.0,3024.0,0.81781,0.138367,-0.555176,0.061401,-70.0,-65.0,33.0,9820.0,2467.0,1960.0,2242.0,1171.0,-868.0,1318.0,1253.0,1959.0,0.925048,0.158138,0.345218,19998.0,5822.0,2198.0,-1583.0,-1478.0,772.0
2878.0,2769.0,2899.0,3138.0,3025.0,0.808777,0.123413,-0.572205,0.056702,-58.0,-67.0,35.0,9740.0,2514.0,1208.0,2043.0,1410.0,-1369.0,1611.0,1618.0,1678.0,0.939567,0.134737,0.314686,18692.0,4728.0,-132.0,-1322.0,-1514.0,802.0
2874.0,2769.0,2898.0,3135.0,3029.0,0.798279,0.11145,-0.589294,0.055115,-38.0,-69.0,41.0,9260.0,2515.0,418.0,1451.0,1589.0,-1880.0,1831.0,1933.0,1034.0,0.953128,0.112979,0.280598,16728.0,5394.0,-1442.0,-857.0,-1575.0,940.0
2873.0,2775.0,2859.0,3143.0,3031.0,0.792419,0.106506,-0.598022,0.055664,-31.0,-72.0,46.0,8911.0,2634.0,35.0,1049.0,1796.0,-2111.0,1880.0,2199.0,637.0,0.959626,0.102219,0.262053,15666.0,6100.0,-2250.0,-690.0,-1638.0,1059.0
2874.0,2826.0,2895.0,3147.0,3030.0,0.779114,0.09668,-0.616516,0.058899,-25.0,-79.0,60.0,8270.0,2872.0,-775.0,306.0,2232.0,-2585.0,2054.0,2743.0,-99.0,0.972061,0.078025,0.221048,14826.0,6206.0,-4026.0,-562.0,-1798.0,1387.0
2875.0,2768.0,2895.0,3135.0,3037.0,0.771851,0.090942,-0.626221,0.061707,-26.0,-80.0,69.0,8027.0,2915.0,-1203.0,15.0,2398.0,-2834.0,2209.0,2956.0,-398.0,0.977921,0.063104,0.199138,14680.0,6048.0,-4958.0,-576.0,-1810.0,1602.0
2878.0,2767.0,2886.0,3135.0,3027.0,0.756958,0.076172,-0.645325,0.069031,-35.0,-73.0,89.0,7569.0,2975.0,-2215.0,-520.0,2760.0,-3488.0,2729.0,3411.0,-983.0,0.987484,0.026223,0.155505,13822.0,6014.0,-7794.0,-787.0,-1665.0,2051.0
2875.0,2770.0,2895.0,3135.0,3031.0,0.742737,0.055847,-0.66272,0.077026,-50.0,-56.0,102.0,7151.0,2750.0,-3350.0,-984.0,2906.0,-4294.0,3534.0,3607.0,-1527.0,0.993056,-0.019134,0.115275,13010.0,4472.0,-10114.0,-1129.0,-1270.0,2352.0
2883.0,2778.0,2897.0,3135.0,3035.0,0.736511,0.043823,-0.670105,0.081055,-55.0,-44.0,107.0,6918.0,2488.0,-3900.0,-1226.0,2849.0,-4703.0,3992.0,3540.0,-1805.0,0.994184,-0.044078,0.098058,12414.0,3252.0,-11062.0,-1253.0,-996.0,2453.0
2879.0,2777.0,2899.0,3143.0,3045.0,0.726196,0.017212,-0.681458,0.089294,-61.0,-19.0,110.0,6286.0,1853.0,-4877.0,-1847.0,2645.0,-5455.0,4875.0,3205.0,-2474.0,0.992818,-0.096702,0.070654,10408.0,1726.0,-12214.0,-1378.0,-415.0,2541.0
2879.0,2775.0,2896.0,3127.0,3031.0,0.718323,-0.011902,-0.688782,0.097351,-66.0,-4.0,114.0,5354.0,1206.0,-5518.0,-2733.0,2444.0,-5934.0,5495.0,2664.0,-3369.0,0.987218,-0.151206,0.050903,8126.0,482.0,-12302.0,-1508.0,-70.0,2615.0
2877.0,2769.0,2895.0,3134.0,3031.0,0.714844,-0.0271,-0.691406,0.101074,-68.0,2.0,112.0,5048.0,796.0,-5626.0,-3004.0,2258.0,-5973.0,5624.0,2265.0,-3609.0,0.983017,-0.178511,0.042441,8514.0,-1136.0,-11770.0,-1538.0,58.0,2574.0
2881.0,2771.0,2896.0,3135.0,3037.0,0.70929,-0.057251,-0.694092,0.108765,-61.0,16.0,105.0,4811.0,-369.0,-5729.0,-3153.0,1533.0,-5973.0,5800.0,1166.0,-3599.0,0.97217,-0.2322,0.02988,9484.0,-4370.0,-11672.0,-1380.0,373.0,2426.0
2875.0,2767.0,2896.0,3135.0,3031.0,0.706726,-0.084595,-0.692688,0.116516,-47.0,37.0,90.0,4979.0,-1511.0,-5585.0,-2880.0,790.0,-5798.0,5715.0,188.0,-3136.0,0.959368,-0.280989,0.026065,10450.0,-6304.0,-10538.0,-1059.0,854.0,2083.0
2879.0,2778.0,2899.0,3147.0,3027.0,0.707031,-0.096741,-0.690186,0.119995,-41.0,47.0,81.0,5019.0,-2027.0,-5435.0,-2785.0,450.0,-5669.0,5596.0,-252.0,-2951.0,0.952749,-0.302435,0.028577,10210.0,-7074.0,-9988.0,-936.0,1084.0,1866.0
2875.0,2775.0,2903.0,3143.0,3039.0,0.709961,-0.118103,-0.682983,0.124817,-36.0,59.0,59.0,4995.0,-3027.0,-4877.0,-2707.0,-256.0,-5198.0,5100.0,-1142.0,-2662.0,0.940301,-0.338193,0.039209,9620.0,-9278.0,-7404.0,-818.0,1365.0,1367.0
2871.0,2773.0,2896.0,3149.0,3035.0,0.714905,-0.136169,-0.673828,0.127502,-31.0,60.0,40.0,4551.0,-4257.0,-4109.0,-3057.0,-1254.0,-4557.0,4365.0,-2389.0,-2629.0,0.928722,-0.366526,0.054759,6688.0,-12902.0,-5870.0,-696.0,1377.0,929.0
2881.0,2768.0,2878.0,3131.0,3031.0,0.716797,-0.14386,-0.669983,0.128906,-24.0,45.0,29.0,3963.0,-5144.0,-3627.0,-3601.0,-2039.0,-4125.0,3850.0,-3384.0,-2803.0,0.923394,-0.378967,0.060842,4304.0,-15840.0,-3814.0,-529.0,1039.0,680.0
2877.0,2768.0,2895.0,3135.0,3039.0,0.717346,-0.1521,-0.666626,0.13385,5.0,0.0,1.0,3555.0,-6623.0,-2104.0,-3946.0,-3373.0,-2636.0,2294.0,-4758.0,-2446.0,0.915686,-0.396672,0.064977,7774.0,-16080.0,448.0,125.0,11.0,29.0
2876.0,2769.0,2897.0,3135.0,3035.0,0.715576,-0.149597,-0.668518,0.136475,15.0,-18.0,-28.0,4693.0,-6650.0,-911.0,-2810.0,-3401.0,-1413.0,1200.0,-4277.0,-1311.0,0.915919,-0.396568,0.061379,13630.0,-11826.0,644.0,349.0,-391.0,-619.0
2875.0,2768.0,2897.0,3139.0,3030.0,0.714844,-0.146362,-0.670227,0.13562,11.0,-15.0,-36.0,5315.0,-6203.0,-658.0,-2209.0,-2999.0,-1139.0,986.0,-3653.0,-923.0,0.918516,-0.391045,0.058768,14120.0,-9436.0,-40.0,261.0,-332.0,-806.0
2877.0,2771.0,2897.0,3139.0,3039.0,0.714111,-0.139526,-0.673645,0.129517,-4.0,-8.0,-47.0,5831.0,-4936.0,-799.0,-1754.0,-1874.0,-1236.0,1124.0,-2422.0,-989.0,0.925973,-0.373771,0.053464,12280.0,-6118.0,-2912.0,-91.0,-161.0,-1054.0
2879.0,2775.0,2897.0,3139.0,3023.0,0.712402,-0.133545,-0.678528,0.119446,-10.0,-11.0,-57.0,5472.0,-4416.0,-1575.0,-2186.0,-1529.0,-1931.0,1800.0,-2253.0,-1588.0,0.934867,-0.35237,0.04355,9368.0,-7942.0,-5456.0,-223.0,-251.0,-1289.0
2879.0,2767.0,2895.0,3131.0,3035.0,0.710754,-0.1297,-0.681763,0.114624,-4.0,-17.0,-61.0,5266.0,-4215.0,-1933.0,-2429.0,-1424.0,-2233.0,2103.0,-2226.0,-1878.0,0.939398,-0.340662,0.036688,9362.0,-7026.0,-6148.0,-80.0,-384.0,-1380.0
2875.0,2769.0,2899.0,3135.0,3031.0,0.70636,-0.118835,-0.68988,0.10498,7.0,-25.0,-71.0,5172.0,-3764.0,-2666.0,-2607.0,-1202.0,-2829.0,2740.0,-2020.0,-2156.0,0.949657,-0.312729,0.019908,10640.0,-6422.0,-7460.0,183.0,-569.0,-1609.0
2874.0,2770.0,2895.0,3135.0,3030.0,0.702332,-0.103699,-0.697693,0.095947,23.0,-17.0,-80.0,5410.0,-3375.0,-3365.0,-2455.0,-1084.0,-3405.0,3374.0,-1766.0,-2070.0,0.960124,-0.279545,0.004947,11510.0,-5268.0,-8834.0,540.0,-380.0,-1820.0
2879.0,2771.0,2896.0,3143.0,3043.0,0.701172,-0.094543,-0.700806,0.09137,29.0,-9.0,-86.0,5516.0,-3051.0,-3730.0,-2393.0,-915.0,-3729.0,3722.0,-1523.0,-2071.0,0.965494,-0.260647,-7.7e-05,11648.0,-4038.0,-9656.0,675.0,-206.0,-1949.0
2879.0,2771.0,2896.0,3139.0,3031.0,0.700745,-0.073303,-0.705017,0.080872,36.0,7.0,-99.0,5645.0,-2331.0,-4272.0,-2352.0,-555.0,-4232.0,4254.0,-1003.0,-2155.0,0.976218,-0.216765,-0.004839,11398.0,-2504.0,-9838.0,825.0,177.0,-2258.0
2883.0,2769.0,2896.0,3151.0,3035.0,0.703003,-0.048584,-0.706177,0.069092,44.0,21.0,-110.0,5623.0,-1674.0,-4476.0,-2455.0,-315.0,-4459.0,4483.0,-586.0,-2359.0,0.986175,-0.165891,-0.002059,11314.0,-1434.0,-8986.0,1012.0,499.0,-2512.0
2879.0,2767.0,2896.0,3135.0,3031.0,0.704895,-0.035217,-0.705627,0.063171,47.0,26.0,-111.0,5627.0,-1313.0,-4405.0,-2485.0,-175.0,-4419.0,4431.0,-343.0,-2444.0,0.990337,-0.1388,0.001717,11188.0,-294.0,-8282.0,1079.0,608.0,-2540.0
2875.0,2770.0,2897.0,3135.0,3039.0,0.708984,-0.008545,-0.703308,0.051086,41.0,28.0,-106.0,5717.0,-257.0,-4000.0,-2445.0,430.0,-4086.0,4039.0,465.0,-2515.0,0.996396,-0.083975,0.010553,12104.0,2762.0,-6566.0,956.0,656.0,-2417.0
2879.0,2768.0,2895.0,3135.0,3029.0,0.713013,0.015442,-0.699951,0.038574,32.0,29.0,-95.0,6026.0,562.0,-3637.0,-2160.0,823.0,-3798.0,3686.0,1036.0,-2259.0,0.999339,-0.03198,0.019705,12708.0,3216.0,-6536.0,733.0,680.0,-2161.0
2877.0,2773.0,2899.0,3147.0,3035.0,0.7146,0.026489,-0.698242,0.032715,31.0,28.0,-91.0,6153.0,879.0,-3513.0,-2036.0,943.0,-3705.0,3565.0,1229.0,-2129.0,0.99966,-0.007827,0.023479,13292.0,3518.0,-5958.0,732.0,646.0,-2075.0
2879.0,2771.0,2899.0,3139.0,3043.0,0.718201,0.051086,-0.693604,0.022888,52.0,33.0,-95.0,6435.0,1522.0,-3365.0,-1745.0,1180.0,-3632.0,3423.0,1620.0,-1812.0,0.998632,0.04163,0.03264,13714.0,4786.0,-6476.0,1196.0,769.0,-2165.0
2882.0,2774.0,2895.0,3143.0,3031.0,0.721008,0.081604,-0.687988,0.01532,73.0,33.0,-104.0,6766.0,2503.0,-3268.0,-1381.0,1711.0,-3596.0,3255.0,2311.0,-1352.0,0.994591,0.096595,0.040101,15146.0,8320.0,-5652.0,1694.0,763.0,-2378.0
2879.0,2772.0,2899.0,3135.0,3031.0,0.722473,0.099182,-0.684143,0.012085,86.0,40.0,-109.0,7067.0,3050.0,-3154.0,-1050.0,2011.0,-3516.0,3092.0,2657.0,-941.0,0.990947,0.126777,0.044225,15858.0,9320.0,-6060.0,1970.0,925.0,-2483.0
2882.0,2767.0,2893.0,3127.0,3043.0,0.725586,0.137634,-0.674194,0.007629,104.0,52.0,-113.0,7666.0,3913.0,-3067.0,-366.0,2361.0,-3501.0,2920.0,3070.0,-97.0,0.980472,0.189444,0.053052,16842.0,10402.0,-5754.0,2405.0,1211.0,-2583.0
2877.0,2775.0,2898.0,3139.0,3031.0,0.727417,0.157837,-0.667786,0.006714,111.0,59.0,-110.0,7943.0,4373.0,-2863.0,-33.0,2565.0,-3340.0,2668.0,3240.0,339.0,0.973637,0.22066,0.05833,17680.0,11644.0,-4082.0,2550.0,1366.0,-2500.0
2874.0,2769.0,2894.0,3135.0,3043.0,0.73291,0.193787,-0.6521,0.007202,90.0,71.0,-76.0,8562.0,5737.0,-1814.0,708.0,3486.0,-2423.0,1497.0,3763.0,1455.0,0.958652,0.274663,0.074422,18902.0,15562.0,70.0,2078.0,1647.0,-1730.0
2875.0,2768.0,2891.0,3126.0,3047.0,0.741272,0.215332,-0.63562,0.010437,50.0,75.0,-24.0,9047.0,6503.0,-590.0,1290.0,3996.0,-1402.0,406.0,3757.0,2304.0,0.94683,0.305971,0.099212,19336.0,13918.0,2224.0,1149.0,1736.0,-544.0
2869.0,2773.0,2896.0,3131.0,3035.0,0.746094,0.220337,-0.628174,0.013916,36.0,75.0,0.0,9211.0,6362.0,-125.0,1481.0,3811.0,-1056.0,160.0,3425.0,2463.0,0.943486,0.311301,0.113699,19306.0,11322.0,2370.0,834.0,1729.0,13.0
2871.0,2777.0,2907.0,3127.0,3035.0,0.75531,0.223083,-0.615662,0.025696,28.0,71.0,34.0,9496.0,5544.0,518.0,1783.0,3042.0,-648.0,70.0,2553.0,2515.0,0.941495,0.305355,0.142348,20196.0,8242.0,2784.0,651.0,1627.0,785.0
2871.0,2771.0,2890.0,3139.0,3039.0,0.759644,0.2229,-0.609985,0.033264,30.0,71.0,39.0,9684.0,4951.0,777.0,1970.0,2509.0,-504.0,150.0,2008.0,2523.0,0.941572,0.298068,0.156398,20428.0,6058.0,2972.0,693.0,1634.0,905.0
2879.0,2767.0,2883.0,3123.0,3035.0,0.767639,0.223328,-0.598633,0.050415,44.0,71.0,35.0,9751.0,3568.0,1123.0,2037.0,1253.0,-380.0,475.0,887.0,2202.0,0.941586,0.28251,0.183575,19294.0,3106.0,3324.0,1021.0,1643.0,814.0
2879.0,2770.0,2885.0,3135.0,3035.0,0.771118,0.224731,-0.592651,0.059326,50.0,70.0,30.0,9605.0,2997.0,1324.0,1899.0,733.0,-284.0,541.0,440.0,1933.0,0.940673,0.27627,0.196403,18024.0,2798.0,3854.0,1164.0,1615.0,703.0
2874.0,2767.0,2891.0,3123.0,3035.0,0.7771,0.229004,-0.581299,0.075867,50.0,57.0,24.0,8858.0,2236.0,1790.0,1172.0,42.0,-6.0,355.0,-134.0,1109.0,0.938202,0.267715,0.219288,15084.0,2672.0,5188.0,1166.0,1310.0,555.0
2887.0,2767.0,2897.0,3152.0,3047.0,0.779236,0.230957,-0.57666,0.083008,45.0,46.0,23.0,8427.0,2009.0,2046.0,750.0,-155.0,176.0,150.0,-319.0,702.0,0.937051,0.264205,0.228221,14350.0,2692.0,5586.0,1047.0,1054.0,532.0
2881.0,2769.0,2911.0,3121.0,3021.0,0.781677,0.233215,-0.570557,0.094849,31.0,23.0,21.0,7884.0,1457.0,2503.0,214.0,-643.0,536.0,-117.0,-840.0,164.0,0.936223,0.256365,0.240091,14750.0,800.0,6086.0,732.0,530.0,500.0
2883.0,2766.0,2886.0,3123.0,3039.0,0.782043,0.233704,-0.569031,0.099609,28.0,14.0,16.0,7806.0,974.0,2648.0,133.0,-1091.0,656.0,-48.0,-1278.0,8.0,0.936572,0.252171,0.243101,15272.0,-1262.0,6090.0,650.0,332.0,376.0
2879.0,2778.0,2901.0,3142.0,3031.0,0.781616,0.236267,-0.5672,0.107239,33.0,3.0,-2.0,7688.0,-51.0,2743.0,9.0,-2080.0,736.0,293.0,-2162.0,-326.0,0.937339,0.247689,0.244886,14984.0,-2052.0,5374.0,761.0,74.0,-34.0
2875.0,2779.0,2874.0,3151.0,3007.0,0.780884,0.23877,-0.566772,0.109497,30.0,-3.0,-10.0,7672.0,-141.0,2709.0,-7.0,-2179.0,714.0,365.0,-2232.0,-374.0,0.937456,0.248783,0.243527,15328.0,-512.0,5070.0,697.0,-53.0,-214.0
2875.0,2767.0,2899.0,3149.0,3071.0,0.779297,0.243225,-0.566711,0.110962,14.0,-7.0,-11.0,7741.0,215.0,2483.0,63.0,-1860.0,522.0,422.0,-1864.0,-287.0,0.93725,0.253322,0.239296,15596.0,2178.0,3946.0,325.0,-144.0,-243.0
2877.0,2763.0,2903.0,3135.0,3039.0,0.778748,0.244019,-0.567139,0.110718,2.0,-7.0,-6.0,7707.0,545.0,2288.0,28.0,-1539.0,342.0,417.0,-1493.0,-284.0,0.93735,0.254473,0.237515,15070.0,3120.0,3268.0,64.0,-146.0,-137.0
2875.0,2767.0,2864.0,3127.0,3031.0,0.777893,0.24231,-0.569397,0.108948,-17.0,-10.0,2.0,7523.0,1061.0,1711.0,-166.0,-1010.0,-206.0,567.0,-746.0,-459.0,0.938658,0.252913,0.23406,14676.0,3186.0,1498.0,-369.0,-215.0,58.0
2883.0,2768.0,2896.0,3153.0,3055.0,0.777405,0.240417,-0.571106,0.107727,-20.0,-10.0,3.0,7522.0,1147.0,1401.0,-176.0,-907.0,-499.0,761.0,-514.0,-508.0,0.93976,0.250756,0.232001,15138.0,2628.0,952.0,-451.0,-224.0,79.0
2893.0,2765.0,2911.0,3159.0,3015.0,0.776367,0.236694,-0.574585,0.105347,-18.0,-8.0,0.0,7550.0,1196.0,855.0,-167.0,-823.0,-1010.0,1156.0,-200.0,-590.0,0.942048,0.246462,0.227672,15078.0,2592.0,284.0,-394.0,-176.0,20.0
2877.0,2767.0,2897.0,3135.0,3055.0,0.775818,0.235413,-0.57605,0.104126,-16.0,-7.0,-2.0,7537.0,1261.0,648.0,-186.0,-748.0,-1199.0,1278.0,-46.0,-629.0,0.942845,0.245311,0.225483,14990.0,2964.0,98.0,-344.0,-159.0,-24.0
2869.0,2767.0,2896.0,3143.0,3055.0,0.774719,0.233704,-0.578674,0.101379,-13.0,-7.0,-5.0,7464.0,1399.0,374.0,-269.0,-606.0,-1436.0,1395.0,191.0,-719.0,0.944006,0.244778,0.220986,14624.0,3144.0,44.0,-278.0,-146.0,-101.0
2886.0,2789.0,2927.0,3153.0,3015.0,0.774109,0.233154,-0.579956,0.099915,-12.0,-8.0,-5.0,7428.0,1456.0,295.0,-309.0,-551.0,-1495.0,1412.0,268.0,-753.0,0.944489,0.245082,0.218518,14698.0,3252.0,196.0,-262.0,-164.0,-109.0
2882.0,2769.0,2903.0,3139.0,3039.0,0.773071,0.231445,-0.58252,0.097046,-17.0,-8.0,-2.0,7510.0,1570.0,364.0,-236.0,-435.0,-1390.0,1300.0,302.0,-627.0,0.94558,0.244785,0.214161,15654.0,3454.0,1336.0,-367.0,-174.0,-38.0
2879.0,2750.0,2893.0,3131.0,3069.0,0.772827,0.229553,-0.583801,0.09552,-22.0,-7.0,1.0,7699.0,1600.0,561.0,-52.0,-392.0,-1182.0,1162.0,213.0,-396.0,0.946209,0.243281,0.212867,16654.0,3400.0,2520.0,-503.0,-151.0,37.0
2879.0,2761.0,2895.0,3123.0,3045.0,0.773499,0.222412,-0.586304,0.092163,-39.0,-6.0,9.0,8143.0,1615.0,1162.0,376.0,-318.0,-587.0,747.0,-60.0,156.0,0.948007,0.236,0.213575,17718.0,3090.0,4304.0,-888.0,-127.0,229.0
2879.0,2768.0,2877.0,3158.0,3025.0,0.77417,0.216919,-0.587708,0.09021,-48.0,-7.0,14.0,8389.0,1576.0,1540.0,613.0,-306.0,-221.0,492.0,-245.0,463.0,0.949107,0.22983,0.215023,18208.0,2938.0,5410.0,-1093.0,-151.0,329.0
2890.0,2781.0,2923.0,3107.0,3047.0,0.775696,0.202515,-0.591553,0.085449,-65.0,-15.0,22.0,8696.0,1488.0,2295.0,894.0,-257.0,508.0,-97.0,-538.0,907.0,0.952339,0.213084,0.218059,18126.0,2764.0,6884.0,-1482.0,-332.0,523.0
2879.0,2787.0,2897.0,3153.0,3043.0,0.776123,0.193848,-0.59436,0.08252,-73.0,-22.0,26.0,8815.0,1456.0,2636.0,995.0,-205.0,847.0,-402.0,-626.0,1093.0,0.954586,0.202807,0.218335,18330.0,2702.0,7198.0,-1659.0,-503.0,597.0
2853.0,2769.0,2911.0,3141.0,3030.0,0.774963,0.174805,-0.602661,0.075134,-82.0,-43.0,28.0,8995.0,1414.0,3041.0,1127.0,-63.0,1300.0,-863.0,-634.0,1347.0,0.960348,0.180373,0.212456,18594.0,2720.0,6922.0,-1869.0,-975.0,659.0
2879.0,2775.0,2903.0,3147.0,2999.0,0.773071,0.165039,-0.608337,0.070923,-82.0,-54.0,29.0,9184.0,1439.0,3142.0,1287.0,55.0,1459.0,-1033.0,-564.0,1549.0,0.963986,0.168884,0.205357,19700.0,3154.0,6862.0,-1878.0,-1221.0,676.0
2879.0,2755.0,2878.0,3155.0,3019.0,0.766968,0.146423,-0.621643,0.062073,-80.0,-66.0,30.0,9675.0,1909.0,3109.0,1714.0,701.0,1599.0,-1314.0,34.0,2063.0,0.971738,0.14743,0.184213,20606.0,6386.0,5774.0,-1820.0,-1507.0,699.0
2873.0,2763.0,2883.0,3135.0,3021.0,0.763245,0.137634,-0.628662,0.057068,-82.0,-70.0,30.0,9829.0,2404.0,2975.0,1838.0,1270.0,1568.0,-1437.0,613.0,2237.0,0.975355,0.138344,0.17164,20510.0,7822.0,5092.0,-1863.0,-1587.0,700.0
2877.0,2773.0,2893.0,3135.0,3043.0,0.754639,0.119019,-0.643555,0.046448,-90.0,-74.0,42.0,9810.0,3394.0,2388.0,1762.0,2412.0,1214.0,-1409.0,1896.0,2193.0,0.982359,0.119849,0.143309,18958.0,9828.0,2530.0,-2042.0,-1684.0,965.0
2881.0,2757.0,2895.0,3143.0,2992.0,0.749634,0.108154,-0.651611,0.041382,-96.0,-77.0,53.0,9641.0,3852.0,1963.0,1564.0,2965.0,919.0,-1261.0,2563.0,1979.0,0.985891,0.108222,0.127369,18164.0,10318.0,1264.0,-2197.0,-1761.0,1217.0
2886.0,2762.0,2885.0,3147.0,2990.0,0.738159,0.081909,-0.668823,0.032837,-108.0,-81.0,79.0,9232.0,4386.0,1035.0,1099.0,3755.0,281.0,-755.0,3583.0,1406.0,0.992775,0.077,0.091924,17162.0,9702.0,-758.0,-2455.0,-1853.0,1828.0
2862.0,2761.0,2911.0,3151.0,2992.0,0.725037,0.049683,-0.68634,0.02771,-113.0,-82.0,105.0,8500.0,4353.0,64.0,324.0,4074.0,-369.0,-57.0,4079.0,442.0,0.997997,0.034007,0.052915,14350.0,8026.0,-2846.0,-2585.0,-1872.0,2424.0
2874.0,2778.0,2887.0,3131.0,3037.0,0.717651,0.031616,-0.69519,0.026428,-115.0,-84.0,116.0,8065.0,4177.0,-442.0,-122.0,4106.0,-699.0,356.0,4150.0,-108.0,0.99948,0.008634,0.031433,13590.0,7152.0,-3880.0,-2622.0,-1913.0,2672.0
2887.0,2783.0,2890.0,3120.0,3059.0,0.701294,-0.007385,-0.712402,0.026062,-115.0,-82.0,130.0,7457.0,3528.0,-1485.0,-725.0,3917.0,-1361.0,1270.0,3913.0,-889.0,0.998822,-0.047492,-0.015079,13790.0,4984.0,-5970.0,-2632.0,-1869.0,2982.0
2858.0,2769.0,2917.0,3143.0,3039.0,0.684998,-0.047424,-0.726501,0.026855,-114.0,-65.0,131.0,7099.0,2913.0,-2516.0,-1033.0,3764.0,-2023.0,2198.0,3579.0,-1295.0,0.992756,-0.103992,-0.060111,12818.0,3980.0,-8292.0,-2597.0,-1485.0,3010.0
2871.0,2768.0,2899.0,3151.0,3030.0,0.677307,-0.067566,-0.732117,0.0271,-114.0,-56.0,131.0,6888.0,2592.0,-3057.0,-1206.0,3666.0,-2392.0,2697.0,3339.0,-1478.0,0.988074,-0.131206,-0.081081,12638.0,3298.0,-9228.0,-2593.0,-1272.0,3003.0
2877.0,2747.0,2881.0,3153.0,3039.0,0.664001,-0.109741,-0.739197,0.026367,-130.0,-30.0,140.0,6659.0,2368.0,-3594.0,-1335.0,3881.0,-2636.0,3222.0,3237.0,-1711.0,0.975868,-0.184718,-0.116862,12318.0,4486.0,-8536.0,-2967.0,-685.0,3213.0
2883.0,2769.0,2903.0,3151.0,3007.0,0.653015,-0.160339,-0.739868,0.021057,-170.0,-5.0,159.0,6045.0,2155.0,-3912.0,-1815.0,4125.0,-2713.0,3678.0,2945.0,-2337.0,0.959538,-0.240567,-0.146241,9468.0,3128.0,-8992.0,-3890.0,-103.0,3661.0
2887.0,2766.0,2897.0,3133.0,3023.0,0.640869,-0.218628,-0.735718,0.012329,-186.0,2.0,158.0,4896.0,657.0,-4755.0,-2784.0,3101.0,-3295.0,4304.0,1000.0,-2948.0,0.937607,-0.298365,-0.178214,6510.0,-5360.0,-12492.0,-4247.0,54.0,3634.0
2883.0,2775.0,2910.0,3151.0,3049.0,0.633911,-0.24646,-0.733032,0.009094,-168.0,0.0,145.0,4472.0,-574.0,-5164.0,-3104.0,2094.0,-3557.0,4286.0,-382.0,-2855.0,0.924872,-0.3258,-0.196153,6512.0,-8834.0,-12724.0,-3842.0,12.0,3322.0
2881.0,2775.0,2895.0,3121.0,3053.0,0.620361,-0.290833,-0.728394,0.007202,-106.0,-10.0,101.0,3681.0,-2792.0,-5827.0,-3688.0,249.0,-3940.0,3906.0,-2769.0,-2502.0,0.899545,-0.371334,-0.230241,5382.0,-10834.0,-13186.0,-2414.0,-210.0,2335.0
2874.0,2755.0,2897.0,3135.0,3043.0,0.608459,-0.317322,-0.727295,0.009705,-51.0,-17.0,58.0,3704.0,-3871.0,-6014.0,-3495.0,-591.0,-3889.0,3403.0,-3573.0,-1826.0,0.8789,-0.400271,-0.259334,8630.0,-9796.0,-12186.0,-1166.0,-389.0,1339.0
2879.0,2770.0,2883.0,3138.0,3043.0,0.604065,-0.325562,-0.727356,0.011292,-36.0,-13.0,45.0,4068.0,-3910.0,-5928.0,-3070.0,-553.0,-3716.0,3217.0,-3332.0,-1445.0,0.871388,-0.409746,-0.270015,10562.0,-7510.0,-11126.0,-810.0,-285.0,1049.0
2869.0,2763.0,2891.0,3123.0,3035.0,0.599243,-0.337402,-0.725952,0.011353,-30.0,11.0,31.0,4818.0,-3495.0,-5696.0,-2246.0,-47.0,-3388.0,3073.0,-2481.0,-962.0,0.862383,-0.420855,-0.281626,11294.0,-5882.0,-10962.0,-680.0,273.0,718.0
2881.0,2772.0,2903.0,3131.0,3015.0,0.598572,-0.347168,-0.721924,0.008484,-24.0,31.0,20.0,4802.0,-3533.0,-5735.0,-2229.0,-27.0,-3413.0,3051.0,-2537.0,-934.0,0.858356,-0.427859,-0.283339,8376.0,-8038.0,-11812.0,-548.0,716.0,478.0
2881.0,2785.0,2903.0,3135.0,3013.0,0.599121,-0.350586,-0.719849,0.007568,-12.0,31.0,11.0,4461.0,-3823.0,-5770.0,-2561.0,-292.0,-3459.0,2950.0,-2951.0,-1093.0,0.857246,-0.430983,-0.282089,6676.0,-9520.0,-11668.0,-256.0,717.0,261.0
2871.0,2768.0,2905.0,3123.0,3025.0,0.601196,-0.350342,-0.718201,0.009399,29.0,17.0,-17.0,3918.0,-4488.0,-5563.0,-3102.0,-926.0,-3293.0,2508.0,-3637.0,-1343.0,0.856973,-0.43475,-0.277026,6982.0,-10808.0,-9854.0,676.0,391.0,-378.0
2885.0,2779.0,2887.0,3165.0,3027.0,0.236877,-0.286438,-0.324341,-1.21228,-21674.0,-6723.0,25638.0,-9176.0,-21175.0,7608.0,-16123.0,-26505.0,-3356.0,1201.0,-25515.0,30124.0,0.848144,0.650683,1.338491,8464.0,-8974.0,-8068.0,1596.0,163.0,-931.0
2878.0,2770.0,2895.0,3133.0,3035.0,0.608459,-0.329529,-0.72168,0.019592,80.0,5.0,-50.0,4063.0,-4480.0,-4653.0,-3025.0,-963.0,-2532.0,1949.0,-3207.0,-1548.0,0.865313,-0.429289,-0.258804,8748.0,-7410.0,-7168.0,1849.0,121.0,-1137.0
2886.0,2775.0,2890.0,3151.0,3021.0,0.613892,-0.308105,-0.726318,0.026184,80.0,-3.0,-62.0,4160.0,-3805.0,-4117.0,-3013.0,-394.0,-2110.0,1922.0,-2481.0,-1957.0,0.875627,-0.416323,-0.244919,8480.0,-5234.0,-6880.0,1844.0,-46.0,-1418.0
2867.0,2771.0,2895.0,3139.0,3037.0,0.616089,-0.285583,-0.733521,0.029541,67.0,-16.0,-77.0,4304.0,-3272.0,-3879.0,-2961.0,-34.0,-1919.0,1984.0,-1968.0,-2153.0,0.886955,-0.395227,-0.239172,9650.0,-5456.0,-7620.0,1550.0,-350.0,-1746.0
2871.0,2763.0,2889.0,3143.0,3045.0,0.616699,-0.259399,-0.742676,0.029541,72.0,-12.0,-104.0,4668.0,-3561.0,-4310.0,-2710.0,-580.0,-2363.0,2282.0,-2296.0,-1668.0,0.900689,-0.363822,-0.237665,9186.0,-8982.0,-11592.0,1659.0,-257.0,-2382.0
2883.0,2785.0,2895.0,3143.0,3039.0,0.616882,-0.243774,-0.747742,0.029785,88.0,-13.0,-118.0,4577.0,-3808.0,-4677.0,-2861.0,-979.0,-2734.0,2584.0,-2709.0,-1611.0,0.908016,-0.345303,-0.237113,8504.0,-9014.0,-11288.0,2017.0,-297.0,-2695.0
2866.0,2767.0,2887.0,3131.0,3039.0,0.617981,-0.203369,-0.758789,0.032227,127.0,-16.0,-150.0,4068.0,-3469.0,-5383.0,-3507.0,-1009.0,-3464.0,3561.0,-2846.0,-2128.0,0.924727,-0.300263,-0.234181,6694.0,-4454.0,-12572.0,2917.0,-364.0,-3425.0
2885.0,2775.0,2917.0,3143.0,3023.0,0.618774,-0.151367,-0.770142,0.034241,149.0,-14.0,-177.0,4114.0,-2292.0,-5679.0,-3608.0,-325.0,-3778.0,4258.0,-1811.0,-2446.0,0.942722,-0.240065,-0.231976,9196.0,-682.0,-11788.0,3429.0,-306.0,-4051.0
2887.0,2771.0,2911.0,3143.0,3043.0,0.619751,-0.122375,-0.774414,0.034546,155.0,-5.0,-185.0,4312.0,-1594.0,-5713.0,-3482.0,86.0,-3833.0,4427.0,-1102.0,-2451.0,0.951433,-0.20519,-0.229408,9836.0,1120.0,-11608.0,3551.0,-96.0,-4229.0
2868.0,2779.0,2891.0,3147.0,3025.0,0.623169,-0.062805,-0.778809,0.033447,151.0,16.0,-187.0,4697.0,-95.0,-5677.0,-3220.0,973.0,-3866.0,4516.0,412.0,-2384.0,0.966457,-0.130375,-0.221029,10452.0,4184.0,-11008.0,3465.0,383.0,-4265.0
2883.0,2790.0,2891.0,3135.0,3027.0,0.62854,-0.005066,-0.777161,0.030396,138.0,37.0,-177.0,5134.0,1268.0,-5431.0,-2866.0,1707.0,-3726.0,4190.0,1723.0,-2115.0,0.976645,-0.053613,-0.208018,12108.0,6500.0,-9512.0,3166.0,865.0,-4041.0
2879.0,2785.0,2887.0,3157.0,3031.0,0.632324,0.021912,-0.773865,0.028259,126.0,49.0,-167.0,5631.0,1982.0,-5041.0,-2396.0,2113.0,-3413.0,3666.0,2347.0,-1703.0,0.979905,-0.016027,-0.198714,14644.0,8430.0,-7416.0,2894.0,1145.0,-3812.0
2863.0,2755.0,2899.0,3143.0,3025.0,0.644348,0.067688,-0.761414,0.021484,83.0,82.0,-136.0,6957.0,3386.0,-3924.0,-1105.0,2939.0,-2542.0,2279.0,3297.0,-498.0,0.984139,0.054512,-0.168686,17666.0,10056.0,-4268.0,1915.0,1891.0,-3097.0
2867.0,2749.0,2907.0,3135.0,3029.0,0.661316,0.101135,-0.743103,0.014954,61.0,105.0,-102.0,7732.0,3768.0,-2879.0,-344.0,2854.0,-1856.0,1369.0,3128.0,210.0,0.985876,0.111541,-0.124868,17166.0,8042.0,-2522.0,1416.0,2420.0,-2315.0
2869.0,2766.0,2891.0,3118.0,3023.0,0.670471,0.115295,-0.732788,0.01355,64.0,110.0,-89.0,7885.0,3896.0,-2335.0,-190.0,2792.0,-1511.0,971.0,3008.0,340.0,0.985751,0.134746,-0.100556,16382.0,8726.0,-1490.0,1477.0,2521.0,-2037.0
2896.0,2769.0,2917.0,3151.0,3051.0,0.687134,0.142517,-0.71228,0.013794,73.0,97.0,-74.0,8045.0,4316.0,-1211.0,-6.0,2872.0,-757.0,100.0,2918.0,542.0,0.982795,0.176206,-0.055311,17210.0,9898.0,1272.0,1677.0,2234.0,-1676.0
2891.0,2769.0,2896.0,3135.0,3027.0,0.005493,-0.00415,0.510864,0.278015,-544.0,-19862.0,20492.0,19064.0,21958.0,31500.0,19128.0,19631.0,-32532.0,-6720.0,-5658.0,11399.0,-0.00792,0.28401,-0.183677,19952.0,11090.0,4066.0,1774.0,1941.0,-1388.0
2885.0,2768.0,2915.0,3125.0,3051.0,0.70697,0.180176,-0.683594,0.019348,75.0,79.0,-53.0,9167.0,5019.0,717.0,1191.0,3148.0,713.0,-1468.0,2479.0,1878.0,0.973533,0.228305,0.000418,20674.0,11260.0,5134.0,1738.0,1817.0,-1194.0
2887.0,2762.0,2907.0,3149.0,3031.0,0.717529,0.200012,-0.666687,0.026062,68.0,66.0,-28.0,9705.0,5372.0,1707.0,1782.0,3305.0,1452.0,-2183.0,2160.0,2602.0,0.96716,0.252279,0.031051,20760.0,11764.0,5974.0,1578.0,1531.0,-635.0
2867.0,2800.0,2906.0,3121.0,3021.0,0.725708,0.212463,-0.653442,0.034668,48.0,51.0,1.0,10019.0,5444.0,2346.0,2128.0,3288.0,1889.0,-2536.0,1831.0,3019.0,0.963148,0.263066,0.055726,20632.0,10402.0,6168.0,1104.0,1181.0,45.0
2887.0,2754.0,2899.0,3115.0,3039.0,0.729126,0.21521,-0.648438,0.039429,36.0,44.0,15.0,10040.0,5174.0,2500.0,2154.0,3021.0,1956.0,-2497.0,1540.0,2996.0,0.962556,0.262696,0.066393,20042.0,8340.0,5744.0,844.0,1024.0,352.0
2871.0,2767.0,2869.0,3122.0,3039.0,0.734436,0.215881,-0.641479,0.050171,25.0,32.0,30.0,9827.0,4145.0,2533.0,1930.0,2074.0,1846.0,-2094.0,773.0,2539.0,0.963913,0.252735,0.083813,18666.0,4920.0,4758.0,582.0,745.0,694.0
2878.0,2780.0,2911.0,3154.0,3039.0,0.736328,0.215149,-0.639099,0.055542,22.0,27.0,30.0,9632.0,3542.0,2434.0,1726.0,1528.0,1692.0,-1791.0,387.0,2194.0,0.965073,0.245847,0.090527,17994.0,3406.0,4184.0,505.0,623.0,706.0
2869.0,2795.0,2878.0,3143.0,3025.0,0.738831,0.213318,-0.635864,0.065491,20.0,18.0,25.0,9040.0,2301.0,2109.0,1113.0,401.0,1287.0,-1117.0,-346.0,1298.0,0.967533,0.231925,0.100332,16046.0,1014.0,3086.0,469.0,413.0,573.0
2863.0,2769.0,2899.0,3109.0,3024.0,0.73938,0.212891,-0.634827,0.069946,21.0,13.0,20.0,8724.0,1800.0,1933.0,789.0,-51.0,1087.0,-823.0,-616.0,864.0,0.968538,0.226007,0.103248,15602.0,806.0,2784.0,499.0,311.0,480.0
2865.0,2775.0,2871.0,3131.0,3015.0,0.739868,0.213135,-0.633362,0.077576,20.0,9.0,13.0,8236.0,1244.0,1624.0,287.0,-534.0,748.0,-417.0,-833.0,242.0,0.970277,0.217116,0.106849,15126.0,1436.0,2538.0,468.0,214.0,319.0
2879.0,2791.0,2903.0,3151.0,3031.0,0.740051,0.213318,-0.632751,0.080627,16.0,8.0,12.0,8007.0,1133.0,1506.0,53.0,-617.0,618.0,-307.0,-819.0,-13.0,0.970936,0.213698,0.108298,14622.0,1668.0,2336.0,373.0,188.0,282.0
2875.0,2770.0,2895.0,3147.0,3047.0,0.740356,0.212646,-0.632019,0.085144,7.0,4.0,10.0,7581.0,878.0,1276.0,-382.0,-819.0,369.0,-79.0,-834.0,-500.0,0.97205,0.207243,0.110711,14042.0,946.0,1882.0,173.0,110.0,248.0
2883.0,2771.0,2879.0,3151.0,3039.0,0.740356,0.212036,-0.631958,0.086853,4.0,3.0,9.0,7414.0,773.0,1150.0,-553.0,-899.0,237.0,40.0,-827.0,-695.0,0.97258,0.20419,0.111341,13856.0,942.0,1516.0,114.0,70.0,207.0
2870.0,2770.0,2898.0,3143.0,3055.0,0.740112,0.211182,-0.632202,0.088806,1.0,0.0,2.0,7213.0,682.0,878.0,-760.0,-958.0,-34.0,271.0,-739.0,-935.0,0.97331,0.200309,0.111375,14054.0,1370.0,856.0,37.0,1.0,61.0
2879.0,2762.0,2907.0,3135.0,3039.0,0.739929,0.210938,-0.632507,0.08905,-1.0,-1.0,0.0,7197.0,728.0,736.0,-778.0,-906.0,-172.0,372.0,-632.0,-957.0,0.973589,0.199508,0.110865,14372.0,1810.0,602.0,-9.0,-19.0,2.0
2875.0,2783.0,2911.0,3147.0,3030.0,0.739563,0.210754,-0.633057,0.088623,-3.0,-1.0,-4.0,7244.0,853.0,442.0,-732.0,-781.0,-456.0,586.0,-406.0,-918.0,0.973726,0.199525,0.109629,14682.0,2136.0,20.0,-49.0,-5.0,-76.0
2869.0,2775.0,2911.0,3123.0,3031.0,0.73938,0.210876,-0.633301,0.088196,-2.0,0.0,-5.0,7266.0,964.0,305.0,-710.0,-675.0,-587.0,666.0,-258.0,-890.0,0.973697,0.200127,0.108922,14628.0,2680.0,-154.0,-41.0,13.0,-110.0
2866.0,2769.0,2899.0,3120.0,3023.0,0.739197,0.211487,-0.633423,0.086853,-3.0,0.0,-6.0,7231.0,1259.0,149.0,-741.0,-400.0,-735.0,684.0,55.0,-881.0,0.973185,0.202631,0.108004,14296.0,3408.0,-20.0,-61.0,14.0,-125.0
2879.0,2771.0,2898.0,3139.0,3035.0,0.739075,0.211731,-0.633606,0.08606,-4.0,-1.0,-5.0,7254.0,1364.0,132.0,-716.0,-306.0,-747.0,662.0,142.0,-839.0,0.973007,0.203914,0.107351,14762.0,3260.0,220.0,-77.0,-14.0,-101.0
2877.0,2775.0,2895.0,3135.0,3037.0,0.738831,0.211609,-0.634155,0.084961,-5.0,-1.0,-2.0,7510.0,1435.0,189.0,-461.0,-243.0,-680.0,624.0,134.0,-570.0,0.973024,0.204929,0.106158,15966.0,3030.0,704.0,-97.0,-5.0,-41.0
2870.0,2767.0,2881.0,3143.0,3027.0,0.738831,0.211182,-0.634277,0.084473,-6.0,0.0,-2.0,7650.0,1410.0,262.0,-320.0,-268.0,-607.0,594.0,59.0,-430.0,0.972925,0.204897,0.106101,16092.0,2550.0,984.0,-133.0,15.0,-33.0
2880.0,2769.0,2899.0,3135.0,3039.0,0.739258,0.209717,-0.63446,0.083679,-9.0,1.0,-1.0,7916.0,1283.0,508.0,-56.0,-387.0,-368.0,473.0,-186.0,-172.0,0.973158,0.203887,0.106983,16570.0,2322.0,2000.0,-186.0,35.0,-8.0
2875.0,2769.0,2897.0,3147.0,3039.0,0.739624,0.208557,-0.63446,0.083069,-12.0,0.0,0.0,8017.0,1258.0,688.0,44.0,-405.0,-195.0,341.0,-289.0,-60.0,0.973174,0.2031,0.107908,16626.0,2384.0,2482.0,-252.0,19.0,8.0
2882.0,2775.0,2896.0,3131.0,3039.0,0.740417,0.205017,-0.634949,0.081299,-18.0,-4.0,2.0,8184.0,1154.0,1074.0,208.0,-487.0,175.0,64.0,-539.0,124.0,0.97359,0.200355,0.109636,16748.0,1846.0,3314.0,-406.0,-72.0,59.0
2879.0,2766.0,2903.0,3135.0,3015.0,0.740601,0.202698,-0.635559,0.080322,-20.0,-7.0,4.0,8230.0,1094.0,1267.0,251.0,-529.0,366.0,-88.0,-660.0,179.0,0.973953,0.198137,0.109919,16788.0,1890.0,3692.0,-441.0,-156.0,99.0
2870.0,2763.0,2891.0,3135.0,3025.0,0.740295,0.197205,-0.637878,0.077942,-25.0,-15.0,8.0,8567.0,1156.0,1717.0,578.0,-421.0,829.0,-502.0,-786.0,572.0,0.975178,0.192544,0.108334,18540.0,2748.0,4888.0,-569.0,-338.0,188.0
2879.0,2771.0,2895.0,3143.0,3037.0,0.740051,0.193665,-0.639465,0.076477,-31.0,-18.0,11.0,8796.0,1249.0,1970.0,799.0,-297.0,1092.0,-757.0,-798.0,840.0,0.976096,0.188835,0.107103,18942.0,3092.0,5452.0,-688.0,-391.0,261.0
2877.0,2778.0,2898.0,3143.0,3034.0,0.73938,0.184387,-0.643433,0.072998,-40.0,-24.0,19.0,9197.0,1472.0,2415.0,1181.0,7.0,1562.0,-1256.0,-718.0,1319.0,0.978402,0.178726,0.104007,19444.0,3626.0,6000.0,-908.0,-529.0,453.0
2879.0,2769.0,2894.0,3135.0,3039.0,0.738647,0.178955,-0.645996,0.071167,-43.0,-28.0,23.0,9319.0,1622.0,2540.0,1292.0,209.0,1709.0,-1457.0,-578.0,1475.0,0.979798,0.172422,0.101329,19312.0,4234.0,5700.0,-972.0,-623.0,529.0
2871.0,2775.0,2891.0,3135.0,3039.0,0.735901,0.167297,-0.652649,0.066956,-47.0,-38.0,27.0,9456.0,1982.0,2575.0,1403.0,680.0,1820.0,-1727.0,-139.0,1654.0,0.982973,0.158832,0.092094,19034.0,5222.0,4858.0,-1058.0,-851.0,621.0
2881.0,2771.0,2895.0,3139.0,3031.0,0.733826,0.161438,-0.656677,0.064575,-48.0,-43.0,28.0,9480.0,2204.0,2481.0,1413.0,957.0,1781.0,-1790.0,160.0,1688.0,0.984623,0.152125,0.085383,19140.0,5746.0,4394.0,-1087.0,-975.0,653.0
2880.0,2771.0,2894.0,3127.0,3039.0,0.72821,0.149048,-0.66626,0.059387,-51.0,-52.0,33.0,9485.0,2556.0,2105.0,1390.0,1425.0,1550.0,-1736.0,736.0,1674.0,0.988058,0.137942,0.0677,19002.0,6016.0,2816.0,-1153.0,-1183.0,770.0
2896.0,2771.0,2895.0,3135.0,3031.0,0.724792,0.142761,-0.67157,0.057129,-48.0,-53.0,36.0,9507.0,2702.0,1839.0,1398.0,1635.0,1370.0,-1632.0,1016.0,1675.0,0.989809,0.130212,0.057201,19160.0,6390.0,1988.0,-1091.0,-1213.0,827.0
2877.0,2768.0,2896.0,3093.0,3035.0,0.71759,0.130798,-0.681946,0.05365,-42.0,-49.0,40.0,9455.0,3041.0,1190.0,1322.0,2102.0,897.0,-1317.0,1649.0,1585.0,0.99275,0.114547,0.035656,18324.0,6876.0,288.0,-949.0,-1103.0,935.0
2877.0,2769.0,2896.0,3143.0,3026.0,0.71405,0.124756,-0.68689,0.052734,-39.0,-46.0,46.0,9248.0,3181.0,792.0,1104.0,2314.0,585.0,-1080.0,1976.0,1356.0,0.994105,0.105719,0.025267,17044.0,7264.0,-884.0,-887.0,-1046.0,1062.0
2877.0,2771.0,2897.0,3139.0,3007.0,0.706116,0.111145,-0.697327,0.052673,-40.0,-48.0,62.0,8615.0,3366.0,-56.0,451.0,2681.0,-78.0,-529.0,2581.0,673.0,0.996495,0.083501,0.002756,15152.0,7016.0,-2774.0,-901.0,-1077.0,1428.0
2879.0,2762.0,2871.0,3135.0,3029.0,0.701721,0.103149,-0.702942,0.053406,-42.0,-49.0,69.0,8259.0,3364.0,-491.0,87.0,2793.0,-413.0,-210.0,2802.0,285.0,0.997556,0.069682,-0.009502,14400.0,6582.0,-3566.0,-944.0,-1108.0,1599.0
2878.0,2771.0,2895.0,3131.0,3035.0,0.692017,0.085266,-0.7146,0.05603,-43.0,-49.0,78.0,7587.0,3034.0,-1373.0,-593.0,2723.0,-1078.0,529.0,2905.0,-450.0,0.998585,0.037933,-0.035897,13226.0,4524.0,-5454.0,-978.0,-1109.0,1799.0
2875.0,2767.0,2883.0,3135.0,3031.0,0.681763,0.066711,-0.726013,0.060364,-36.0,-44.0,78.0,7053.0,2261.0,-2213.0,-1122.0,2233.0,-1696.0,1334.0,2516.0,-1005.0,0.997991,0.003313,-0.063101,12554.0,2032.0,-6982.0,-803.0,-1002.0,1791.0
2879.0,2770.0,2895.0,3135.0,3035.0,0.676758,0.058228,-0.731201,0.063171,-29.0,-41.0,74.0,6812.0,1872.0,-2602.0,-1355.0,1983.0,-1978.0,1709.0,2291.0,-1227.0,0.997049,-0.01357,-0.076054,12230.0,1416.0,-7462.0,-663.0,-919.0,1697.0
2879.0,2769.0,2895.0,3141.0,3035.0,0.667114,0.043274,-0.74054,0.06897,-21.0,-33.0,63.0,6408.0,1104.0,-3309.0,-1734.0,1467.0,-2485.0,2395.0,1796.0,-1539.0,0.994018,-0.044412,-0.100473,11826.0,80.0,-8294.0,-461.0,-749.0,1463.0
2879.0,2768.0,2895.0,3135.0,3031.0,0.659241,0.029846,-0.74762,0.074646,-21.0,-21.0,61.0,6173.0,628.0,-3606.0,-1938.0,1219.0,-2625.0,2651.0,1495.0,-1692.0,0.990178,-0.072262,-0.119656,11606.0,44.0,-7724.0,-481.0,-465.0,1411.0
2881.0,2769.0,2891.0,3131.0,3031.0,0.656189,0.022339,-0.750305,0.077271,-26.0,-15.0,65.0,6052.0,440.0,-3657.0,-2042.0,1149.0,-2617.0,2694.0,1375.0,-1785.0,0.988136,-0.086636,-0.126902,11420.0,-230.0,-7518.0,-576.0,-322.0,1493.0
2878.0,2765.0,2895.0,3135.0,3037.0,0.651672,0.004517,-0.754089,0.081909,-39.0,-3.0,74.0,5887.0,209.0,-3574.0,-2170.0,1172.0,-2449.0,2598.0,1256.0,-1936.0,0.983578,-0.117647,-0.137285,11382.0,-196.0,-6676.0,-874.0,-61.0,1698.0
2865.0,2768.0,2896.0,3135.0,3035.0,0.648926,-0.017273,-0.75592,0.084717,-56.0,6.0,79.0,5700.0,32.0,-3430.0,-2312.0,1264.0,-2255.0,2476.0,1168.0,-2128.0,0.978146,-0.150496,-0.143432,10892.0,-892.0,-6488.0,-1275.0,146.0,1829.0
2879.0,2771.0,2896.0,3143.0,3035.0,0.647888,-0.029541,-0.756409,0.085144,-64.0,8.0,79.0,5653.0,-279.0,-3385.0,-2335.0,1089.0,-2188.0,2454.0,907.0,-2139.0,0.975106,-0.167086,-0.146018,11122.0,-2720.0,-6558.0,-1444.0,205.0,1828.0
2879.0,2768.0,2901.0,3143.0,3039.0,0.646057,-0.054932,-0.75647,0.085754,-64.0,14.0,75.0,5714.0,-1256.0,-3328.0,-2216.0,388.0,-2094.0,2408.0,73.0,-1907.0,0.968024,-0.200719,-0.15052,11776.0,-5730.0,-6552.0,-1446.0,331.0,1718.0
2879.0,2775.0,2896.0,3127.0,3031.0,0.645569,-0.077637,-0.754761,0.086731,-51.0,22.0,60.0,5920.0,-2260.0,-3226.0,-1952.0,-366.0,-1985.0,2260.0,-742.0,-1490.0,0.961033,-0.231162,-0.15141,12434.0,-7444.0,-6102.0,-1155.0,515.0,1381.0
2877.0,2767.0,2895.0,3131.0,3030.0,0.646118,-0.087036,-0.753235,0.087341,-43.0,26.0,50.0,5965.0,-2783.0,-3188.0,-1884.0,-783.0,-1960.0,2205.0,-1181.0,-1320.0,0.958154,-0.244048,-0.149841,12046.0,-8764.0,-6166.0,-967.0,612.0,1165.0
2879.0,2772.0,2895.0,3135.0,3035.0,0.6474,-0.101074,-0.750061,0.089722,-18.0,18.0,26.0,5417.0,-4040.0,-3010.0,-2390.0,-1865.0,-1816.0,2068.0,-2430.0,-1518.0,0.953042,-0.265464,-0.145631,9278.0,-11874.0,-4542.0,-402.0,435.0,602.0
2879.0,2773.0,2899.0,3143.0,3035.0,0.647644,-0.105713,-0.748779,0.093506,5.0,3.0,-3.0,5394.0,-4802.0,-2389.0,-2389.0,-2533.0,-1212.0,1436.0,-3095.0,-1394.0,0.950115,-0.276959,-0.14366,11646.0,-10978.0,-2612.0,129.0,74.0,-51.0
2881.0,2725.0,2898.0,3135.0,3030.0,0.647705,-0.105103,-0.748657,0.094604,9.0,0.0,-15.0,5584.0,-4897.0,-2053.0,-2197.0,-2621.0,-881.0,1085.0,-3126.0,-1232.0,0.949932,-0.277804,-0.143062,12376.0,-10152.0,-2122.0,207.0,14.0,-324.0
2875.0,2768.0,2895.0,3139.0,3039.0,0.64801,-0.101562,-0.748962,0.094299,4.0,-2.0,-26.0,5991.0,-4687.0,-1549.0,-1803.0,-2451.0,-382.0,556.0,-2847.0,-992.0,0.951516,-0.27288,-0.14245,13112.0,-8166.0,-1954.0,93.0,-40.0,-584.0
2899.0,2774.0,2897.0,3143.0,3043.0,0.647644,-0.0979,-0.750122,0.09082,-7.0,-5.0,-30.0,6184.0,-4177.0,-1494.0,-1629.0,-2021.0,-309.0,477.0,-2376.0,-977.0,0.953842,-0.263062,-0.144576,12882.0,-6784.0,-3270.0,-138.0,-108.0,-685.0
2882.0,2770.0,2891.0,3135.0,3035.0,0.647095,-0.096008,-0.751221,0.088074,-9.0,-6.0,-33.0,6332.0,-3905.0,-1598.0,-1493.0,-1803.0,-393.0,549.0,-2124.0,-905.0,0.95531,-0.256579,-0.147062,13714.0,-6090.0,-3904.0,-201.0,-134.0,-755.0
2879.0,2773.0,2895.0,3127.0,3031.0,0.645569,-0.091187,-0.753845,0.081421,-7.0,-7.0,-44.0,6394.0,-3717.0,-2087.0,-1457.0,-1746.0,-831.0,982.0,-2043.0,-849.0,0.958469,-0.240492,-0.153209,12970.0,-7426.0,-5218.0,-140.0,-152.0,-997.0
2871.0,2777.0,2897.0,3127.0,3031.0,0.644287,-0.081421,-0.756653,0.075684,15.0,-6.0,-60.0,6467.0,-3620.0,-2475.0,-1419.0,-1822.0,-1178.0,1338.0,-2078.0,-779.0,0.962679,-0.219449,-0.158319,13192.0,-6734.0,-6106.0,352.0,-121.0,-1374.0
2878.0,2772.0,2900.0,3147.0,3039.0,0.644043,-0.074036,-0.757874,0.073242,25.0,-4.0,-69.0,6450.0,-3461.0,-2674.0,-1458.0,-1770.0,-1365.0,1548.0,-2011.0,-824.0,0.965361,-0.206381,-0.159698,12660.0,-5792.0,-6606.0,594.0,-75.0,-1559.0
2881.0,2765.0,2898.0,3149.0,3039.0,0.64386,-0.055176,-0.760071,0.068237,38.0,0.0,-82.0,6291.0,-2871.0,-3096.0,-1665.0,-1439.0,-1772.0,2027.0,-1644.0,-1079.0,0.971228,-0.174781,-0.16154,12064.0,-3746.0,-7422.0,887.0,8.0,-1872.0
2877.0,2775.0,2902.0,3150.0,3035.0,0.64447,-0.032837,-0.761353,0.062561,43.0,6.0,-91.0,5917.0,-2188.0,-3533.0,-2088.0,-1060.0,-2210.0,2559.0,-1205.0,-1537.0,0.977229,-0.137587,-0.16148,10378.0,-2330.0,-8280.0,1007.0,159.0,-2065.0
2881.0,2781.0,2891.0,3143.0,3047.0,0.645386,-0.008301,-0.761719,0.05658,50.0,10.0,-96.0,5556.0,-1551.0,-3821.0,-2490.0,-757.0,-2505.0,2926.0,-776.0,-1970.0,0.982266,-0.09691,-0.16056,10504.0,-1348.0,-8280.0,1150.0,247.0,-2193.0
2879.0,2768.0,2895.0,3135.0,3045.0,0.646118,0.004883,-0.761292,0.053833,55.0,14.0,-99.0,5527.0,-1293.0,-3919.0,-2536.0,-673.0,-2614.0,3040.0,-595.0,-2029.0,0.984294,-0.075655,-0.159222,10932.0,-1026.0,-8436.0,1273.0,328.0,-2260.0
2881.0,2773.0,2896.0,3137.0,3031.0,0.648132,0.033386,-0.759216,0.049072,65.0,20.0,-103.0,5536.0,-612.0,-3990.0,-2552.0,-356.0,-2719.0,3109.0,-66.0,-2087.0,0.987422,-0.031236,-0.15504,11324.0,912.0,-7896.0,1510.0,473.0,-2355.0
2879.0,2778.0,2896.0,3143.0,3029.0,0.650818,0.064636,-0.755066,0.045593,77.0,26.0,-106.0,5670.0,48.0,-3931.0,-2429.0,-77.0,-2713.0,3013.0,431.0,-1999.0,0.988715,0.015281,-0.14866,11948.0,2290.0,-7324.0,1784.0,613.0,-2421.0
2876.0,2773.0,2906.0,3151.0,3021.0,0.652466,0.081177,-0.752136,0.044495,83.0,30.0,-106.0,5766.0,479.0,-3857.0,-2333.0,159.0,-2672.0,2890.0,767.0,-1914.0,0.98871,0.038998,-0.144607,12142.0,3708.0,-7204.0,1904.0,706.0,-2421.0
2883.0,2769.0,2887.0,3151.0,3024.0,0.656555,0.114502,-0.744263,0.042786,83.0,39.0,-102.0,6132.0,1483.0,-3466.0,-1954.0,773.0,-2367.0,2332.0,1479.0,-1544.0,0.987097,0.086666,-0.134142,13310.0,6214.0,-5578.0,1915.0,912.0,-2314.0
2877.0,2773.0,2895.0,3135.0,3027.0,0.65918,0.130615,-0.73938,0.04187,79.0,43.0,-98.0,6338.0,1999.0,-3232.0,-1736.0,1095.0,-2187.0,2004.0,1805.0,-1311.0,0.985706,0.110282,-0.127472,13976.0,6904.0,-5058.0,1828.0,1003.0,-2237.0
2883.0,2767.0,2891.0,3147.0,3027.0,0.664856,0.161621,-0.728149,0.041077,83.0,49.0,-92.0,6774.0,2667.0,-2759.0,-1266.0,1396.0,-1836.0,1429.0,2051.0,-819.0,0.981507,0.15509,-0.112602,15042.0,7572.0,-3742.0,1922.0,1141.0,-2104.0
2877.0,2773.0,2910.0,3139.0,3030.0,0.671143,0.193665,-0.714294,0.043152,95.0,58.0,-87.0,7526.0,3587.0,-2115.0,-465.0,1962.0,-1333.0,610.0,2337.0,62.0,0.975501,0.198307,-0.095428,17802.0,10294.0,-2130.0,2196.0,1335.0,-1974.0
2877.0,2775.0,2890.0,3135.0,3047.0,0.674622,0.209229,-0.706482,0.045227,96.0,62.0,-79.0,8012.0,4077.0,-1736.0,48.0,2287.0,-1033.0,149.0,2423.0,634.0,0.972142,0.218396,-0.085734,18968.0,10908.0,-1180.0,2201.0,1436.0,-1794.0
2879.0,2773.0,2891.0,3149.0,3047.0,0.682617,0.237061,-0.689209,0.052795,97.0,73.0,-55.0,8865.0,4739.0,-781.0,951.0,2683.0,-269.0,-781.0,2230.0,1608.0,0.965963,0.250869,-0.062453,19492.0,11486.0,1456.0,2236.0,1684.0,-1259.0
2877.0,2767.0,2903.0,3143.0,3039.0,0.686829,0.249268,-0.680237,0.058228,95.0,74.0,-42.0,9020.0,5120.0,-313.0,1127.0,2963.0,94.0,-1250.0,2242.0,1860.0,0.963441,0.263191,-0.049732,18768.0,12622.0,2190.0,2197.0,1697.0,-958.0
2879.0,2775.0,2895.0,3147.0,3038.0,0.694702,0.268799,-0.663513,0.069519,75.0,65.0,-18.0,9144.0,5916.0,545.0,1285.0,3612.0,750.0,-2159.0,2371.0,2229.0,0.959261,0.281217,-0.025059,18514.0,13660.0,3398.0,1738.0,1509.0,-403.0
2875.0,2777.0,2907.0,3146.0,3047.0,0.702087,0.279663,-0.649902,0.080383,49.0,56.0,6.0,9327.0,5898.0,1274.0,1482.0,3536.0,1283.0,-2586.0,1927.0,2436.0,0.957537,0.288213,-0.001196,19424.0,10634.0,4704.0,1134.0,1304.0,144.0
2879.0,2774.0,2887.0,3147.0,3046.0,0.705627,0.282227,-0.644165,0.086365,43.0,54.0,15.0,9454.0,5550.0,1601.0,1607.0,3198.0,1512.0,-2604.0,1481.0,2473.0,0.95783,0.287027,0.010769,19670.0,8746.0,5146.0,991.0,1253.0,352.0
2895.0,2758.0,2896.0,3134.0,3025.0,0.711853,0.284668,-0.634216,0.099792,41.0,46.0,25.0,9401.0,4643.0,2121.0,1538.0,2359.0,1847.0,-2479.0,610.0,2195.0,0.959753,0.278703,0.033427,18080.0,6644.0,5506.0,952.0,1057.0,576.0
2883.0,2769.0,2896.0,3143.0,3030.0,0.713989,0.285706,-0.63031,0.106506,41.0,37.0,24.0,9230.0,4246.0,2312.0,1358.0,2003.0,1966.0,-2427.0,282.0,1936.0,0.960928,0.273717,0.042206,17422.0,6226.0,5716.0,951.0,852.0,572.0
2883.0,2775.0,2896.0,3143.0,3023.0,0.716309,0.287781,-0.624573,0.118164,35.0,20.0,21.0,8918.0,3565.0,2536.0,1030.0,1396.0,2092.0,-2270.0,-241.0,1474.0,0.962784,0.264676,0.054152,16852.0,5210.0,5448.0,814.0,477.0,499.0
2891.0,2755.0,2896.0,3135.0,3051.0,0.716858,0.288513,-0.622681,0.122986,30.0,14.0,19.0,8711.0,3203.0,2530.0,816.0,1069.0,2054.0,-2102.0,-454.0,1184.0,0.963713,0.260484,0.05804,16060.0,4118.0,4860.0,693.0,332.0,458.0
2864.0,2775.0,2879.0,3135.0,3047.0,0.716736,0.289062,-0.620972,0.130981,21.0,3.0,18.0,8276.0,2469.0,2355.0,363.0,407.0,1849.0,-1657.0,-804.0,567.0,0.965869,0.251691,0.061703,15410.0,3056.0,4082.0,490.0,86.0,416.0
2874.0,2775.0,2896.0,3127.0,3027.0,0.716492,0.288818,-0.620667,0.134033,15.0,1.0,15.0,8134.0,2141.0,2230.0,213.0,113.0,1716.0,-1414.0,-941.0,341.0,0.966827,0.247492,0.062682,15524.0,2316.0,3644.0,350.0,41.0,360.0
2887.0,2773.0,2875.0,3119.0,3031.0,0.716614,0.287598,-0.620117,0.138245,5.0,5.0,7.0,7923.0,1442.0,1918.0,-9.0,-530.0,1382.0,-826.0,-1227.0,-45.0,0.968287,0.240737,0.065389,14902.0,818.0,2790.0,127.0,125.0,161.0
2894.0,2783.0,2871.0,3151.0,3055.0,0.717102,0.286926,-0.619568,0.139587,3.0,6.0,3.0,7633.0,1162.0,1715.0,-302.0,-792.0,1161.0,-556.0,-1262.0,-403.0,0.968689,0.238543,0.067529,13294.0,840.0,2238.0,69.0,156.0,79.0
2878.0,2781.0,2919.0,3127.0,3039.0,0.717834,0.285828,-0.61908,0.140503,-4.0,-1.0,0.0,7037.0,1035.0,1331.0,-901.0,-901.0,756.0,-285.0,-1022.0,-1033.0,0.969113,0.236389,0.07007,12884.0,2232.0,1596.0,-84.0,-6.0,4.0
2882.0,2768.0,2893.0,3150.0,3029.0,0.717957,0.285034,-0.619385,0.140076,-9.0,-3.0,0.0,6940.0,1108.0,1144.0,-999.0,-823.0,568.0,-196.0,-836.0,-1122.0,0.969235,0.235763,0.070201,13446.0,2718.0,1180.0,-188.0,-58.0,8.0
2865.0,2759.0,2863.0,3151.0,3025.0,0.718262,0.282593,-0.620544,0.138184,-16.0,-3.0,1.0,6967.0,1338.0,774.0,-975.0,-582.0,200.0,-29.0,-433.0,-1067.0,0.969526,0.234453,0.070061,14288.0,3310.0,492.0,-354.0,-68.0,38.0
2875.0,2763.0,2875.0,3151.0,3039.0,0.718567,0.281128,-0.621155,0.137024,-16.0,-2.0,1.0,7042.0,1400.0,627.0,-901.0,-515.0,51.0,67.0,-306.0,-990.0,0.969725,0.233792,0.070248,14548.0,3142.0,496.0,-366.0,-40.0,30.0
2886.0,2783.0,2886.0,3149.0,3037.0,0.719299,0.278564,-0.621948,0.134827,-14.0,0.0,-2.0,7275.0,1509.0,454.0,-670.0,-399.0,-128.0,193.0,-147.0,-751.0,0.96985,0.233032,0.071152,15382.0,3226.0,544.0,-315.0,4.0,-30.0
2887.0,2767.0,2911.0,3135.0,3056.0,0.719727,0.277588,-0.62207,0.133728,-13.0,1.0,-4.0,7385.0,1535.0,402.0,-558.0,-375.0,-186.0,248.0,-113.0,-641.0,0.969684,0.233198,0.071863,15334.0,3252.0,534.0,-277.0,38.0,-81.0
2879.0,2779.0,2925.0,3127.0,3025.0,0.720703,0.276306,-0.62207,0.131531,-10.0,1.0,-6.0,7521.0,1485.0,433.0,-419.0,-437.0,-168.0,291.0,-196.0,-521.0,0.969342,0.234627,0.073397,15434.0,2756.0,1332.0,-228.0,30.0,-125.0
2883.0,2767.0,2928.0,3127.0,3045.0,0.721191,0.275635,-0.621948,0.130493,-10.0,0.0,-5.0,7568.0,1490.0,556.0,-370.0,-437.0,-53.0,204.0,-268.0,-465.0,0.969024,0.235251,0.074351,15380.0,3134.0,1972.0,-224.0,14.0,-113.0
2889.0,2775.0,2903.0,3109.0,3047.0,0.72229,0.273438,-0.622192,0.127869,-18.0,-5.0,-2.0,7766.0,1653.0,1066.0,-169.0,-279.0,442.0,-252.0,-446.0,-195.0,0.968735,0.235885,0.076162,16426.0,3824.0,4008.0,-407.0,-105.0,-37.0
2886.0,2773.0,2896.0,3139.0,3011.0,0.723022,0.271179,-0.622742,0.126038,-25.0,-8.0,1.0,7964.0,1723.0,1413.0,27.0,-203.0,779.0,-537.0,-598.0,38.0,0.96887,0.23516,0.077302,17192.0,3786.0,4926.0,-569.0,-166.0,32.0
2887.0,2779.0,2891.0,3147.0,3023.0,0.724548,0.264404,-0.624695,0.121765,-36.0,-13.0,6.0,8380.0,1680.0,2036.0,436.0,-212.0,1383.0,-972.0,-983.0,483.0,0.969634,0.231015,0.079644,17958.0,3040.0,5882.0,-803.0,-292.0,138.0
2878.0,2783.0,2911.0,3151.0,3015.0,0.725159,0.260437,-0.62616,0.119385,-37.0,-16.0,6.0,8554.0,1670.0,2305.0,605.0,-199.0,1647.0,-1180.0,-1127.0,673.0,0.970315,0.228208,0.080204,18094.0,3364.0,6202.0,-834.0,-366.0,144.0
2869.0,2768.0,2897.0,3119.0,3023.0,0.725708,0.252625,-0.629761,0.113647,-40.0,-24.0,5.0,8892.0,1861.0,2759.0,933.0,29.0,2110.0,-1652.0,-1194.0,1079.0,0.971465,0.223522,0.07915,18816.0,4568.0,6714.0,-901.0,-535.0,123.0
2894.0,2783.0,2886.0,3135.0,3023.0,0.725769,0.24884,-0.631775,0.110352,-40.0,-26.0,5.0,9033.0,2067.0,2903.0,1070.0,250.0,2265.0,-1881.0,-1086.0,1271.0,0.971965,0.221767,0.077857,18838.0,5478.0,6552.0,-901.0,-592.0,116.0
2879.0,2771.0,2908.0,3135.0,3047.0,0.724915,0.241821,-0.636658,0.103027,-40.0,-33.0,5.0,9074.0,2612.0,2901.0,1104.0,814.0,2308.0,-2202.0,-585.0,1419.0,0.972873,0.219413,0.072305,17946.0,6702.0,5422.0,-900.0,-753.0,134.0
2867.0,2772.0,2913.0,3143.0,3023.0,0.723816,0.238525,-0.639709,0.099243,-38.0,-38.0,7.0,8969.0,2855.0,2808.0,994.0,1066.0,2253.0,-2297.0,-300.0,1352.0,0.973408,0.218323,0.067636,17254.0,7216.0,4928.0,-863.0,-854.0,174.0
2879.0,2779.0,2874.0,3133.0,3071.0,0.720276,0.232666,-0.646973,0.091919,-34.0,-43.0,10.0,9038.0,3468.0,2505.0,1052.0,1696.0,2058.0,-2411.0,371.0,1504.0,0.97477,0.216229,0.054539,18868.0,8816.0,4334.0,-778.0,-976.0,238.0
2863.0,2759.0,2879.0,3139.0,3043.0,0.718506,0.229736,-0.650513,0.08844,-35.0,-40.0,13.0,9099.0,3754.0,2250.0,1108.0,1992.0,1855.0,-2354.0,734.0,1598.0,0.97543,0.215071,0.048127,18324.0,9200.0,2740.0,-792.0,-899.0,302.0
2881.0,2755.0,2886.0,3149.0,3039.0,0.714722,0.222717,-0.657837,0.082458,-37.0,-37.0,24.0,8744.0,4152.0,1447.0,739.0,2432.0,1158.0,-1956.0,1533.0,1273.0,0.97707,0.209873,0.035274,15964.0,9266.0,290.0,-834.0,-829.0,558.0
2879.0,2779.0,2889.0,3095.0,3061.0,0.712524,0.218323,-0.661987,0.080078,-39.0,-37.0,32.0,8456.0,4301.0,972.0,441.0,2620.0,740.0,-1679.0,1950.0,989.0,0.97833,0.205099,0.028212,15110.0,9450.0,-1004.0,-881.0,-830.0,734.0
2887.0,2783.0,2909.0,3135.0,3039.0,0.707397,0.206726,-0.67157,0.07605,-50.0,-38.0,49.0,7848.0,4543.0,-122.0,-193.0,2983.0,-224.0,-960.0,2814.0,375.0,0.981577,0.190329,0.012453,13940.0,9572.0,-3558.0,-1140.0,-870.0,1136.0
2854.0,2770.0,2890.0,3151.0,3051.0,0.701416,0.189758,-0.683105,0.072754,-63.0,-40.0,67.0,7341.0,4347.0,-1164.0,-735.0,2980.0,-1120.0,-75.0,3258.0,-221.0,0.985894,0.166802,-0.005364,13518.0,7432.0,-5216.0,-1430.0,-902.0,1549.0
2881.0,2767.0,2887.0,3151.0,3027.0,0.698181,0.179382,-0.689331,0.071899,-66.0,-39.0,76.0,7210.0,4085.0,-1586.0,-886.0,2845.0,-1465.0,348.0,3274.0,-423.0,0.988351,0.151358,-0.014729,13756.0,6574.0,-5594.0,-1493.0,-884.0,1748.0
2887.0,2783.0,2896.0,3143.0,3027.0,0.69165,0.156189,-0.701477,0.071655,-69.0,-34.0,87.0,7162.0,3584.0,-2293.0,-970.0,2637.0,-2023.0,1073.0,3238.0,-591.0,0.992737,0.115527,-0.03295,14506.0,5474.0,-6544.0,-1563.0,-763.0,1998.0
2878.0,2759.0,2897.0,3139.0,3039.0,0.68866,0.14386,-0.70697,0.07196,-69.0,-28.0,89.0,7191.0,3302.0,-2593.0,-955.0,2512.0,-2256.0,1399.0,3157.0,-614.0,0.994428,0.096393,-0.041072,14476.0,4956.0,-7014.0,-1571.0,-622.0,2042.0
2875.0,2770.0,2879.0,3151.0,3047.0,0.683899,0.118652,-0.716125,0.072998,-69.0,-14.0,88.0,7089.0,2607.0,-3193.0,-1077.0,2133.0,-2751.0,2110.0,2859.0,-802.0,0.996838,0.057741,-0.053868,13672.0,2676.0,-8292.0,-1578.0,-312.0,2026.0
2879.0,2770.0,2896.0,3131.0,3030.0,0.680359,0.092957,-0.723083,0.074951,-65.0,-2.0,86.0,6816.0,1715.0,-3652.0,-1358.0,1566.0,-3136.0,2748.0,2301.0,-1129.0,0.997847,0.018096,-0.062985,12658.0,814.0,-8440.0,-1475.0,-45.0,1989.0
2877.0,2767.0,2902.0,3149.0,3031.0,0.679077,0.080505,-0.725647,0.076355,-62.0,2.0,84.0,6679.0,1258.0,-3753.0,-1495.0,1270.0,-3211.0,2941.0,1965.0,-1281.0,0.997835,-0.001475,-0.066069,12596.0,-238.0,-7872.0,-1405.0,64.0,1939.0
2886.0,2795.0,2879.0,3127.0,3043.0,0.677429,0.055847,-0.729126,0.079834,-59.0,9.0,82.0,6353.0,397.0,-3715.0,-1812.0,730.0,-3145.0,3078.0,1271.0,-1617.0,0.996779,-0.040753,-0.06946,11688.0,-1578.0,-6970.0,-1334.0,210.0,1901.0
2879.0,2762.0,2903.0,3153.0,3045.0,0.675964,0.03064,-0.731506,0.083496,-59.0,8.0,82.0,6058.0,-528.0,-3442.0,-2085.0,133.0,-2851.0,2959.0,455.0,-1877.0,0.994061,-0.080733,-0.072141,11552.0,-3948.0,-5950.0,-1351.0,202.0,1881.0
2893.0,2771.0,2891.0,3127.0,3039.0,0.675171,0.018188,-0.732483,0.085266,-59.0,9.0,77.0,6023.0,-1018.0,-3302.0,-2105.0,-195.0,-2697.0,2871.0,24.0,-1870.0,0.992204,-0.100351,-0.073736,11976.0,-5012.0,-5752.0,-1331.0,207.0,1781.0
2867.0,2769.0,2895.0,3135.0,3035.0,0.674194,-0.004333,-0.733215,0.088257,-49.0,13.0,60.0,6114.0,-2183.0,-3006.0,-1978.0,-1074.0,-2389.0,2664.0,-1009.0,-1628.0,0.987894,-0.135266,-0.075296,12602.0,-8032.0,-5128.0,-1113.0,319.0,1379.0
2891.0,2783.0,2887.0,3133.0,3039.0,0.674805,-0.021912,-0.732056,0.091003,-35.0,21.0,40.0,6332.0,-3178.0,-2575.0,-1728.0,-1844.0,-1979.0,2283.0,-1874.0,-1256.0,0.984001,-0.162811,-0.072743,13348.0,-9028.0,-3676.0,-796.0,489.0,918.0
2873.0,2772.0,2915.0,3147.0,3031.0,0.675903,-0.028809,-0.730652,0.092041,-30.0,24.0,30.0,6294.0,-3599.0,-2334.0,-1753.0,-2178.0,-1765.0,2080.0,-2260.0,-1221.0,0.982397,-0.173444,-0.069365,11838.0,-9740.0,-3284.0,-685.0,569.0,707.0
2869.0,2770.0,2891.0,3147.0,3007.0,0.677551,-0.039124,-0.728333,0.09436,-15.0,11.0,14.0,5704.0,-4507.0,-1714.0,-2320.0,-2946.0,-1189.0,1573.0,-3212.0,-1635.0,0.979582,-0.190468,-0.064019,10036.0,-11218.0,-1166.0,-327.0,274.0,334.0
2870.0,2774.0,2905.0,3125.0,3055.0,0.677429,-0.043518,-0.727844,0.097046,-2.0,-3.0,-2.0,5799.0,-4757.0,-922.0,-2210.0,-3116.0,-403.0,786.0,-3442.0,-1511.0,0.977679,-0.200229,-0.063323,12554.0,-9268.0,364.0,-30.0,-66.0,-40.0
2863.0,2759.0,2911.0,3149.0,3039.0,0.677063,-0.043823,-0.728088,0.097473,-2.0,-6.0,-10.0,6019.0,-4587.0,-622.0,-1987.0,-2938.0,-96.0,453.0,-3251.0,-1344.0,0.97738,-0.20128,-0.064118,13412.0,-7940.0,448.0,-23.0,-137.0,-221.0
2891.0,2781.0,2887.0,3123.0,3035.0,0.67627,-0.042664,-0.729187,0.095459,-7.0,-8.0,-22.0,6416.0,-3965.0,-378.0,-1596.0,-2351.0,171.0,117.0,-2618.0,-1109.0,0.978109,-0.196919,-0.067081,13976.0,-5762.0,-448.0,-151.0,-174.0,-485.0
2887.0,2775.0,2886.0,3151.0,3027.0,0.675415,-0.040283,-0.730774,0.090332,-11.0,-8.0,-30.0,6414.0,-3426.0,-712.0,-1613.0,-1898.0,-127.0,382.0,-2142.0,-1217.0,0.979874,-0.18644,-0.071308,12152.0,-5768.0,-2848.0,-248.0,-161.0,-687.0
2884.0,2771.0,2887.0,3143.0,3029.0,0.674377,-0.038574,-0.732178,0.087402,-9.0,-12.0,-35.0,6315.0,-3265.0,-972.0,-1719.0,-1790.0,-356.0,614.0,-2030.0,-1336.0,0.980785,-0.180015,-0.075148,12032.0,-5498.0,-3636.0,-189.0,-253.0,-781.0
2878.0,2779.0,2873.0,3131.0,3039.0,0.671204,-0.032288,-0.736084,0.081482,3.0,-19.0,-46.0,6354.0,-3048.0,-1454.0,-1697.0,-1710.0,-751.0,1016.0,-1892.0,-1324.0,0.982863,-0.163298,-0.085709,13058.0,-5582.0,-4298.0,74.0,-413.0,-1031.0
2893.0,2775.0,2890.0,3143.0,3030.0,0.667542,-0.021667,-0.740295,0.076721,19.0,-20.0,-55.0,6457.0,-2843.0,-1894.0,-1612.0,-1675.0,-1099.0,1381.0,-1777.0,-1242.0,0.985031,-0.142521,-0.097009,13240.0,-5060.0,-5148.0,442.0,-438.0,-1241.0
2883.0,2775.0,2899.0,3143.0,3039.0,0.664246,-0.007019,-0.743835,0.073486,35.0,-13.0,-61.0,6673.0,-2655.0,-2341.0,-1413.0,-1683.0,-1466.0,1762.0,-1670.0,-1038.0,0.987147,-0.118648,-0.106718,13906.0,-4548.0,-6060.0,803.0,-295.0,-1397.0
2882.0,2749.0,2909.0,3131.0,3039.0,0.663208,0.001648,-0.744934,0.072327,41.0,-7.0,-65.0,6685.0,-2423.0,-2548.0,-1411.0,-1558.0,-1648.0,1951.0,-1492.0,-1049.0,0.988331,-0.105571,-0.109854,13270.0,-3238.0,-6314.0,959.0,-157.0,-1479.0
2870.0,2736.0,2906.0,3139.0,3063.0,0.661987,0.021545,-0.745972,0.069763,48.0,-1.0,-73.0,6410.0,-1757.0,-3000.0,-1705.0,-1138.0,-2067.0,2386.0,-954.0,-1367.0,0.990654,-0.075557,-0.113844,11864.0,-1426.0,-7220.0,1107.0,-17.0,-1664.0
2886.0,2768.0,2896.0,3122.0,2991.0,0.661072,0.043335,-0.746216,0.065796,45.0,2.0,-79.0,6292.0,-790.0,-3194.0,-1836.0,-454.0,-2232.0,2482.0,-142.0,-1541.0,0.992307,-0.040901,-0.117371,12772.0,1540.0,-6668.0,1047.0,55.0,-1789.0
2869.0,2773.0,2901.0,3131.0,3058.0,0.661072,0.054382,-0.745667,0.062866,42.0,7.0,-81.0,6396.0,-359.0,-3246.0,-1736.0,-179.0,-2279.0,2468.0,197.0,-1450.0,0.992716,-0.021853,-0.118008,13568.0,1694.0,-6858.0,972.0,171.0,-1837.0
2867.0,2769.0,2907.0,3153.0,3015.0,0.662964,0.076355,-0.742554,0.056946,44.0,23.0,-82.0,6761.0,217.0,-3330.0,-1375.0,80.0,-2392.0,2469.0,575.0,-1090.0,0.993269,0.016671,-0.114452,14446.0,1972.0,-6992.0,1011.0,546.0,-1862.0
2881.0,2779.0,2878.0,3141.0,3031.0,0.667175,0.100342,-0.736267,0.052734,57.0,38.0,-85.0,6946.0,818.0,-3374.0,-1188.0,357.0,-2519.0,2476.0,972.0,-897.0,0.993021,0.056238,-0.104254,14402.0,3830.0,-6556.0,1322.0,877.0,-1945.0
2879.0,2768.0,2891.0,3135.0,3043.0,0.669922,0.113525,-0.731873,0.051208,64.0,44.0,-87.0,7008.0,1227.0,-3280.0,-1120.0,594.0,-2484.0,2353.0,1248.0,-824.0,0.992222,0.07715,-0.097108,14312.0,4994.0,-5876.0,1472.0,1027.0,-1983.0
2865.0,2763.0,2847.0,3123.0,3047.0,0.676392,0.141174,-0.721191,0.049561,72.0,51.0,-82.0,6954.0,2236.0,-2908.0,-1152.0,1257.0,-2251.0,1876.0,1948.0,-809.0,0.989609,0.119493,-0.080085,13662.0,7808.0,-4488.0,1651.0,1182.0,-1872.0
2879.0,2774.0,2927.0,3127.0,3058.0,0.679626,0.15448,-0.715393,0.049133,68.0,50.0,-75.0,7026.0,2850.0,-2583.0,-1064.0,1705.0,-1998.0,1452.0,2339.0,-670.0,0.98758,0.139678,-0.071345,14860.0,9504.0,-2936.0,1564.0,1164.0,-1707.0
2887.0,2769.0,2907.0,3152.0,3025.0,0.687744,0.175964,-0.702637,0.048157,45.0,59.0,-53.0,7780.0,3875.0,-1454.0,-276.0,2446.0,-1049.0,226.0,2657.0,206.0,0.983416,0.174364,-0.049351,18050.0,10328.0,724.0,1053.0,1364.0,-1193.0
2879.0,2771.0,2897.0,3127.0,3031.0,0.699036,0.188293,-0.688171,0.047913,22.0,69.0,-27.0,8495.0,4530.0,-226.0,465.0,2913.0,-77.0,-854.0,2629.0,1031.0,0.980156,0.197304,-0.018088,19074.0,10526.0,3330.0,510.0,1596.0,-599.0
2877.0,2765.0,2885.0,3131.0,3023.0,0.705505,0.191711,-0.680542,0.048523,16.0,73.0,-16.0,8790.0,4646.0,368.0,771.0,2971.0,366.0,-1270.0,2467.0,1362.0,0.978857,0.204463,0.000202,19200.0,9810.0,4258.0,381.0,1675.0,-348.0
2879.0,2774.0,2876.0,3119.0,3047.0,0.718018,0.195801,-0.665833,0.052612,21.0,67.0,2.0,8892.0,4500.0,1337.0,890.0,2770.0,1036.0,-1804.0,2013.0,1492.0,0.976762,0.211115,0.036646,17304.0,8104.0,5194.0,486.0,1551.0,66.0
2883.0,2771.0,2896.0,3143.0,3039.0,0.723022,0.197571,-0.659546,0.056335,29.0,57.0,9.0,8799.0,4347.0,1763.0,803.0,2615.0,1337.0,-2040.0,1768.0,1405.0,0.975993,0.211385,0.0519,17116.0,7870.0,6136.0,665.0,1321.0,226.0
2879.0,2769.0,2892.0,3135.0,3039.0,0.730347,0.201172,-0.649475,0.065369,32.0,37.0,18.0,8825.0,4374.0,2698.0,837.0,2662.0,2080.0,-2744.0,1497.0,1529.0,0.974985,0.20894,0.075391,18174.0,9046.0,8178.0,735.0,865.0,427.0
2879.0,2767.0,2887.0,3139.0,3035.0,0.733215,0.202087,-0.645508,0.069458,24.0,30.0,21.0,8948.0,4256.0,3106.0,963.0,2562.0,2410.0,-2991.0,1244.0,1672.0,0.974666,0.206676,0.08491,18662.0,7404.0,8518.0,567.0,705.0,483.0
2882.0,2765.0,2894.0,3143.0,3047.0,0.738159,0.200623,-0.639404,0.077576,13.0,22.0,29.0,9038.0,3460.0,3608.0,1050.0,1846.0,2773.0,-3037.0,429.0,1669.0,0.975091,0.196978,0.10181,17856.0,4162.0,8158.0,309.0,524.0,672.0
2870.0,2765.0,2897.0,3131.0,3025.0,0.740051,0.198608,-0.637268,0.081787,9.0,18.0,32.0,8910.0,2978.0,3678.0,916.0,1423.0,2786.0,-2910.0,61.0,1466.0,0.975709,0.18972,0.108809,16868.0,3008.0,7628.0,212.0,419.0,743.0
2882.0,2778.0,2902.0,3139.0,3023.0,0.742554,0.193848,-0.634888,0.089172,5.0,7.0,24.0,8447.0,1641.0,3507.0,439.0,210.0,2534.0,-2303.0,-875.0,766.0,0.977448,0.174656,0.118678,15318.0,-1618.0,6162.0,121.0,165.0,561.0
2871.0,2773.0,2894.0,3135.0,3043.0,0.742981,0.192322,-0.634399,0.092285,11.0,2.0,13.0,8145.0,782.0,3310.0,131.0,-599.0,2318.0,-1851.0,-1492.0,307.0,0.97819,0.168692,0.121087,14402.0,-3632.0,5328.0,253.0,48.0,311.0
2873.0,2763.0,2887.0,3135.0,3037.0,0.742249,0.19397,-0.634094,0.096863,23.0,-7.0,-10.0,7597.0,-352.0,2782.0,-422.0,-1704.0,1793.0,-1030.0,-2237.0,-478.0,0.978888,0.165107,0.120616,14076.0,-2694.0,3952.0,544.0,-160.0,-213.0
2883.0,2768.0,2885.0,3149.0,3031.0,0.741394,0.196289,-0.634094,0.098206,24.0,-9.0,-13.0,7493.0,-386.0,2513.0,-525.0,-1750.0,1540.0,-790.0,-2167.0,-622.0,0.978781,0.166512,0.118705,14490.0,-352.0,3466.0,553.0,-187.0,-289.0
2879.0,2767.0,2897.0,3131.0,3046.0,0.740356,0.200439,-0.633972,0.098816,7.0,-6.0,-8.0,7471.0,451.0,2126.0,-543.0,-953.0,1177.0,-772.0,-1296.0,-558.0,0.978344,0.1715,0.115796,14956.0,4184.0,3268.0,183.0,-118.0,-176.0
2869.0,2762.0,2881.0,3135.0,3039.0,0.740417,0.200745,-0.633911,0.098022,-6.0,-4.0,-3.0,7437.0,982.0,1932.0,-575.0,-435.0,984.0,-812.0,-743.0,-523.0,0.978073,0.172995,0.115685,14600.0,5034.0,2616.0,-130.0,-75.0,-47.0
2876.0,2763.0,2891.0,3135.0,3037.0,0.741028,0.197571,-0.634644,0.095032,-24.0,-3.0,6.0,7366.0,1530.0,1480.0,-646.0,119.0,526.0,-635.0,-38.0,-550.0,0.978128,0.172188,0.116347,14704.0,3760.0,1524.0,-536.0,-61.0,139.0
2875.0,2769.0,2894.0,3149.0,3027.0,0.741272,0.195129,-0.635315,0.093567,-24.0,-3.0,6.0,7377.0,1533.0,1225.0,-638.0,137.0,270.0,-409.0,83.0,-569.0,0.978398,0.170399,0.116538,14860.0,2880.0,940.0,-536.0,-55.0,147.0
2877.0,2769.0,2890.0,3147.0,3027.0,0.741333,0.191589,-0.636658,0.091492,-13.0,-2.0,1.0,7431.0,1323.0,796.0,-589.0,-49.0,-153.0,56.0,80.0,-602.0,0.979008,0.167565,0.115906,15078.0,1976.0,516.0,-275.0,-41.0,34.0
2880.0,2769.0,2902.0,3142.0,3047.0,0.741211,0.19104,-0.637085,0.090881,-6.0,-2.0,-2.0,7478.0,1242.0,649.0,-543.0,-129.0,-295.0,223.0,59.0,-587.0,0.979153,0.167404,0.11528,15248.0,2064.0,512.0,-123.0,-35.0,-44.0
2883.0,2763.0,2896.0,3135.0,3023.0,0.740723,0.191711,-0.637512,0.090088,2.0,-2.0,-6.0,7488.0,1181.0,546.0,-531.0,-204.0,-384.0,335.0,26.0,-597.0,0.978981,0.169146,0.113611,14834.0,2304.0,984.0,46.0,-32.0,-124.0
2879.0,2769.0,2893.0,3143.0,3039.0,0.740479,0.192322,-0.637695,0.089783,2.0,-3.0,-5.0,7487.0,1214.0,571.0,-532.0,-181.0,-352.0,297.0,35.0,-591.0,0.978934,0.170312,0.112726,15064.0,2732.0,1402.0,47.0,-64.0,-111.0
2879.0,2773.0,2897.0,3129.0,3035.0,0.740112,0.192444,-0.638245,0.088684,-7.0,-4.0,-1.0,7607.0,1331.0,777.0,-411.0,-75.0,-134.0,80.0,32.0,-430.0,0.978879,0.171656,0.11124,15622.0,2924.0,2282.0,-144.0,-84.0,-22.0
2879.0,2765.0,2895.0,3139.0,3037.0,0.740112,0.191467,-0.638611,0.087769,-13.0,-5.0,1.0,7680.0,1320.0,892.0,-339.0,-83.0,-17.0,-10.0,-30.0,-347.0,0.978897,0.171315,0.110986,15828.0,2450.0,2504.0,-285.0,-96.0,29.0
2877.0,2768.0,2897.0,3135.0,3035.0,0.74054,0.187195,-0.639709,0.085632,-23.0,-6.0,5.0,7919.0,1174.0,1295.0,-105.0,-199.0,381.0,-293.0,-317.0,-93.0,0.97952,0.167691,0.111462,16696.0,1924.0,3996.0,-512.0,-119.0,130.0
2883.0,2775.0,2896.0,3058.0,3035.0,0.740967,0.184021,-0.64032,0.084229,-29.0,-6.0,7.0,8086.0,1121.0,1561.0,58.0,-229.0,641.0,-496.0,-460.0,91.0,0.979911,0.164841,0.112253,17198.0,1990.0,4780.0,-642.0,-130.0,174.0
2879.0,2769.0,2896.0,3135.0,3031.0,0.742188,0.175903,-0.641602,0.080383,-39.0,-9.0,8.0,8274.0,1023.0,2090.0,240.0,-270.0,1150.0,-930.0,-694.0,324.0,0.980657,0.157958,0.114709,16770.0,1724.0,5694.0,-885.0,-191.0,194.0
2882.0,2771.0,2896.0,3135.0,3027.0,0.742676,0.171265,-0.642639,0.077881,-43.0,-13.0,8.0,8280.0,975.0,2324.0,241.0,-288.0,1379.0,-1143.0,-781.0,351.0,0.981222,0.15429,0.115316,16580.0,1668.0,6030.0,-968.0,-294.0,188.0
2879.0,2759.0,2894.0,3138.0,3039.0,0.742554,0.161743,-0.645996,0.072021,-45.0,-25.0,7.0,8378.0,899.0,2771.0,327.0,-306.0,1844.0,-1578.0,-934.0,484.0,0.982672,0.147155,0.113101,17276.0,1830.0,6868.0,-1018.0,-561.0,176.0
2885.0,2768.0,2895.0,3142.0,3031.0,0.741821,0.156921,-0.648315,0.068726,-47.0,-31.0,8.0,8451.0,971.0,2964.0,394.0,-206.0,2062.0,-1816.0,-897.0,584.0,0.983437,0.143704,0.110085,17236.0,2474.0,6918.0,-1055.0,-694.0,187.0
2879.0,2750.0,2897.0,3135.0,3029.0,0.738647,0.147095,-0.654968,0.061279,-50.0,-47.0,9.0,8598.0,1190.0,3096.0,523.0,67.0,2287.0,-2120.0,-670.0,750.0,0.985609,0.13703,0.098735,17874.0,3192.0,6228.0,-1125.0,-1058.0,217.0
2875.0,2768.0,2887.0,3111.0,3031.0,0.736023,0.142212,-0.659363,0.057251,-49.0,-54.0,10.0,8735.0,1377.0,3057.0,650.0,280.0,2319.0,-2208.0,-460.0,887.0,0.986896,0.133844,0.090024,18308.0,4022.0,5818.0,-1121.0,-1221.0,237.0
2875.0,2768.0,2894.0,3135.0,3039.0,0.729004,0.13324,-0.669617,0.049255,-45.0,-64.0,13.0,8881.0,1942.0,2756.0,775.0,890.0,2201.0,-2266.0,198.0,1030.0,0.989432,0.1283,0.067733,17916.0,6142.0,4128.0,-1020.0,-1451.0,302.0
2879.0,2766.0,2895.0,3143.0,3031.0,0.724609,0.129028,-0.675476,0.045227,-45.0,-69.0,15.0,8922.0,2364.0,2512.0,807.0,1332.0,2068.0,-2252.0,681.0,1079.0,0.990584,0.125891,0.054188,18144.0,7312.0,3538.0,-1022.0,-1565.0,364.0
2879.0,2778.0,2896.0,3135.0,3031.0,0.714844,0.119324,-0.688049,0.037354,-51.0,-72.0,28.0,9041.0,3204.0,1956.0,909.0,2227.0,1753.0,-2147.0,1667.0,1211.0,0.99261,0.119194,0.024747,18272.0,8842.0,2098.0,-1158.0,-1637.0,657.0
2879.0,2770.0,2887.0,3127.0,3027.0,0.709778,0.112793,-0.694519,0.033752,-58.0,-71.0,39.0,9027.0,3563.0,1632.0,888.0,2635.0,1551.0,-2027.0,2144.0,1195.0,0.993523,0.113232,0.009845,17874.0,9146.0,1280.0,-1317.0,-1626.0,915.0
2878.0,2768.0,2865.0,3135.0,3039.0,0.699402,0.094238,-0.707947,0.027527,-76.0,-70.0,66.0,8732.0,4000.0,841.0,577.0,3239.0,1006.0,-1550.0,2949.0,854.0,0.995467,0.092846,-0.020149,16320.0,8506.0,-1038.0,-1729.0,-1591.0,1521.0
2871.0,2768.0,2895.0,3131.0,3031.0,0.688354,0.068909,-0.721741,0.023254,-84.0,-66.0,87.0,8513.0,3753.0,-178.0,346.0,3250.0,242.0,-681.0,3161.0,531.0,0.996832,0.0613,-0.051285,16812.0,6160.0,-3440.0,-1913.0,-1498.0,1993.0
2882.0,2774.0,2907.0,3135.0,3027.0,0.682922,0.054871,-0.728088,0.022339,-83.0,-59.0,93.0,8433.0,3562.0,-670.0,266.0,3214.0,-127.0,-245.0,3191.0,409.0,0.996907,0.042415,-0.066241,16170.0,6068.0,-4300.0,-1883.0,-1350.0,2150.0
2881.0,2779.0,2900.0,3135.0,3037.0,0.672119,0.025391,-0.739685,0.021667,-83.0,-54.0,103.0,7777.0,3147.0,-1658.0,-377.0,3129.0,-875.0,696.0,3183.0,-285.0,0.995413,0.002077,-0.095565,13316.0,4886.0,-5948.0,-1886.0,-1232.0,2363.0
2879.0,2768.0,2893.0,3137.0,3039.0,0.666321,0.01001,-0.7453,0.021912,-83.0,-55.0,107.0,7424.0,2925.0,-2058.0,-716.0,3083.0,-1147.0,1082.0,3122.0,-643.0,0.993657,-0.019322,-0.111109,12792.0,4526.0,-6462.0,-1895.0,-1237.0,2458.0
2879.0,2769.0,2893.0,3131.0,3029.0,0.654053,-0.022705,-0.755737,0.022827,-87.0,-51.0,114.0,6945.0,2229.0,-2742.0,-1144.0,2754.0,-1567.0,1727.0,2682.0,-1081.0,0.987548,-0.064203,-0.143348,12786.0,2012.0,-7452.0,-1985.0,-1165.0,2613.0
2879.0,2771.0,2894.0,3131.0,3035.0,0.642395,-0.057129,-0.763855,0.02417,-89.0,-39.0,114.0,6687.0,1268.0,-3273.0,-1329.0,2171.0,-1851.0,2167.0,1929.0,-1218.0,0.978632,-0.110323,-0.173483,12676.0,-830.0,-7922.0,-2033.0,-886.0,2612.0
2878.0,2778.0,2899.0,3135.0,3039.0,0.637268,-0.074219,-0.766663,0.024963,-86.0,-31.0,109.0,6567.0,625.0,-3526.0,-1407.0,1713.0,-1997.0,2347.0,1374.0,-1224.0,0.973434,-0.132871,-0.186546,12396.0,-2770.0,-8570.0,-1965.0,-706.0,2518.0
2883.0,2774.0,2883.0,3143.0,3039.0,0.628845,-0.105469,-0.769897,0.027222,-71.0,-16.0,94.0,6181.0,-573.0,-3846.0,-1704.0,857.0,-2144.0,2516.0,307.0,-1344.0,0.962551,-0.174563,-0.207678,10796.0,-4102.0,-8394.0,-1622.0,-347.0,2156.0
2882.0,2780.0,2902.0,3131.0,3031.0,0.622559,-0.132202,-0.770813,0.028198,-67.0,-6.0,76.0,5664.0,-1377.0,-3889.0,-2137.0,327.0,-2060.0,2453.0,-445.0,-1643.0,0.952297,-0.208078,-0.223256,10076.0,-5090.0,-7458.0,-1519.0,-115.0,1759.0
2879.0,2769.0,2891.0,3135.0,3035.0,0.620239,-0.144531,-0.770508,0.027954,-67.0,0.0,70.0,5433.0,-1791.0,-3857.0,-2330.0,30.0,-1980.0,2354.0,-840.0,-1761.0,0.947718,-0.222366,-0.229093,9372.0,-6216.0,-7644.0,-1512.0,22.0,1610.0
2883.0,2767.0,2891.0,3139.0,3031.0,0.61554,-0.166687,-0.769836,0.026855,-57.0,-1.0,46.0,4656.0,-3201.0,-4045.0,-3034.0,-1181.0,-2072.0,2284.0,-2332.0,-2058.0,0.938777,-0.246554,-0.240823,7630.0,-11916.0,-8460.0,-1291.0,-9.0,1074.0
2881.0,2768.0,2897.0,3135.0,3037.0,0.611145,-0.180603,-0.770081,0.028748,-21.0,-5.0,18.0,4474.0,-4729.0,-4028.0,-3151.0,-2557.0,-1969.0,1843.0,-3720.0,-1760.0,0.930878,-0.265025,-0.251317,8872.0,-12642.0,-7690.0,-469.0,-95.0,432.0
2879.0,2771.0,2896.0,3143.0,3039.0,0.609619,-0.183594,-0.770569,0.030273,-8.0,-5.0,6.0,4531.0,-4948.0,-3928.0,-3074.0,-2732.0,-1839.0,1658.0,-3851.0,-1646.0,0.928391,-0.2705,-0.254931,9556.0,-10560.0,-7188.0,-164.0,-105.0,143.0
2887.0,2771.0,2890.0,3139.0,3039.0,0.607727,-0.184814,-0.771667,0.031677,0.0,-1.0,-10.0,4976.0,-4598.0,-3559.0,-2611.0,-2357.0,-1434.0,1284.0,-3288.0,-1401.0,0.926218,-0.273522,-0.259291,11562.0,-7458.0,-5940.0,5.0,-10.0,-221.0
2879.0,2779.0,2896.0,3139.0,3035.0,0.607727,-0.183411,-0.772095,0.030212,-4.0,6.0,-17.0,5444.0,-3895.0,-3187.0,-2152.0,-1686.0,-1060.0,1008.0,-2444.0,-1266.0,0.927363,-0.269581,-0.259525,12090.0,-5788.0,-5362.0,-71.0,153.0,-367.0
2875.0,2771.0,2895.0,3135.0,3039.0,0.608154,-0.182373,-0.772034,0.028748,-4.0,8.0,-20.0,5632.0,-3623.0,-3043.0,-1974.0,-1442.0,-924.0,904.0,-2132.0,-1210.0,0.928546,-0.26621,-0.258618,12372.0,-5754.0,-5250.0,-87.0,196.0,-442.0
2879.0,2775.0,2897.0,3135.0,3031.0,0.609314,-0.178589,-0.772156,0.025391,2.0,9.0,-28.0,5957.0,-3260.0,-2893.0,-1677.0,-1155.0,-794.0,796.0,-1735.0,-1062.0,0.931902,-0.256844,-0.25621,12852.0,-5426.0,-5392.0,63.0,207.0,-633.0
2883.0,2773.0,2905.0,3127.0,3025.0,0.610474,-0.171448,-0.772949,0.0224,14.0,5.0,-41.0,6044.0,-3083.0,-2959.0,-1624.0,-1084.0,-880.0,897.0,-1647.0,-1032.0,0.936049,-0.243957,-0.253665,12446.0,-6028.0,-6000.0,327.0,135.0,-924.0
2883.0,2769.0,2896.0,3143.0,3031.0,0.611084,-0.166016,-0.773682,0.021362,23.0,5.0,-49.0,6101.0,-3099.0,-3003.0,-1586.0,-1166.0,-936.0,936.0,-1708.0,-977.0,0.938476,-0.235954,-0.252264,12526.0,-6416.0,-6292.0,536.0,118.0,-1100.0
2882.0,2769.0,2903.0,3141.0,3035.0,0.612671,-0.150696,-0.775574,0.020569,44.0,6.0,-64.0,6049.0,-3126.0,-3215.0,-1685.0,-1351.0,-1179.0,1189.0,-1904.0,-1005.0,0.944144,-0.216559,-0.248435,11672.0,-6176.0,-7288.0,1019.0,146.0,-1464.0
2875.0,2763.0,2891.0,3151.0,3019.0,0.614685,-0.129944,-0.77771,0.020447,56.0,8.0,-78.0,5934.0,-2621.0,-3499.0,-1854.0,-1051.0,-1504.0,1650.0,-1628.0,-1195.0,0.950779,-0.191552,-0.243462,11764.0,-2898.0,-7924.0,1287.0,201.0,-1767.0
2883.0,2777.0,2896.0,3147.0,3027.0,0.617371,-0.106262,-0.779236,0.018066,54.0,17.0,-85.0,5993.0,-1923.0,-3793.0,-1857.0,-617.0,-1851.0,2099.0,-1142.0,-1242.0,0.958315,-0.159362,-0.237027,12368.0,-2146.0,-8360.0,1245.0,392.0,-1946.0
2871.0,2775.0,2897.0,3131.0,3047.0,0.619324,-0.094116,-0.779297,0.016541,54.0,22.0,-87.0,6090.0,-1688.0,-3876.0,-1792.0,-521.0,-1972.0,2229.0,-990.0,-1191.0,0.962161,-0.142357,-0.232326,12818.0,-2016.0,-8126.0,1259.0,526.0,-1976.0
2878.0,2770.0,2898.0,3135.0,3025.0,0.625,-0.068787,-0.777466,0.013611,61.0,36.0,-90.0,6205.0,-1259.0,-3872.0,-1740.0,-381.0,-2083.0,2358.0,-727.0,-1192.0,0.96996,-0.107147,-0.218374,12292.0,-1178.0,-7560.0,1405.0,825.0,-2053.0
2877.0,2767.0,2896.0,3135.0,3039.0,0.631958,-0.040771,-0.773865,0.011353,71.0,40.0,-96.0,6056.0,-697.0,-3709.0,-1949.0,-130.0,-2062.0,2398.0,-350.0,-1481.0,0.977174,-0.069102,-0.201029,11628.0,448.0,-6836.0,1644.0,919.0,-2191.0
2881.0,2771.0,2887.0,3131.0,3029.0,0.635315,-0.025513,-0.771729,0.010498,77.0,39.0,-100.0,5994.0,-385.0,-3627.0,-2034.0,13.0,-2050.0,2400.0,-127.0,-1599.0,0.980046,-0.04862,-0.192481,11704.0,1066.0,-6836.0,1776.0,906.0,-2269.0
2885.0,2767.0,2907.0,3151.0,3043.0,0.641541,0.007629,-0.767029,0.009644,89.0,39.0,-105.0,5991.0,287.0,-3544.0,-2072.0,327.0,-2096.0,2420.0,377.0,-1670.0,0.984307,-0.005005,-0.176724,12090.0,2804.0,-6992.0,2059.0,909.0,-2403.0
2869.0,2767.0,2902.0,3135.0,3023.0,0.647644,0.042908,-0.760681,0.009705,94.0,46.0,-103.0,6408.0,1168.0,-3296.0,-1670.0,833.0,-1977.0,2144.0,1056.0,-1294.0,0.986134,0.040814,-0.16094,14928.0,5602.0,-5090.0,2170.0,1055.0,-2349.0
2878.0,2774.0,2897.0,3135.0,3037.0,0.651611,0.059937,-0.756104,0.009705,89.0,54.0,-96.0,6822.0,1856.0,-2971.0,-1259.0,1336.0,-1737.0,1752.0,1585.0,-895.0,0.986535,0.063435,-0.150593,16178.0,8084.0,-3890.0,2041.0,1249.0,-2178.0
2864.0,2770.0,2898.0,3151.0,3031.0,0.661621,0.088745,-0.744507,0.008606,63.0,65.0,-71.0,7361.0,3147.0,-2318.0,-721.0,2289.0,-1299.0,1027.0,2508.0,-310.0,0.98669,0.104617,-0.12435,15748.0,9360.0,-2716.0,1461.0,1508.0,-1626.0
2873.0,2770.0,2896.0,3141.0,3039.0,0.67157,0.110107,-0.732666,0.008972,56.0,60.0,-45.0,7567.0,3777.0,-1809.0,-510.0,2673.0,-1007.0,563.0,2846.0,-44.0,0.986049,0.134742,-0.097837,16160.0,8680.0,-1690.0,1294.0,1390.0,-1027.0
2864.0,2771.0,2885.0,3151.0,3047.0,0.676208,0.119263,-0.726868,0.011169,63.0,60.0,-34.0,7856.0,3985.0,-1380.0,-218.0,2796.0,-682.0,154.0,2871.0,248.0,0.985692,0.145056,-0.085178,17704.0,9358.0,14.0,1448.0,1385.0,-764.0
2890.0,2768.0,2895.0,3135.0,3053.0,0.686707,0.136475,-0.713745,0.019165,69.0,66.0,-16.0,8893.0,4612.0,-10.0,819.0,3300.0,449.0,-1183.0,2940.0,1310.0,0.985498,0.160078,-0.056124,20946.0,11210.0,4614.0,1594.0,1533.0,-347.0
2883.0,2769.0,2891.0,3135.0,3035.0,0.692566,0.143555,-0.706543,0.02417,65.0,67.0,-5.0,9348.0,4922.0,816.0,1274.0,3572.0,1140.0,-1951.0,2939.0,1798.0,0.985595,0.164688,-0.039579,21278.0,11684.0,6638.0,1497.0,1547.0,-92.0
2877.0,2778.0,2882.0,3131.0,3035.0,0.704224,0.152161,-0.692566,0.035034,45.0,58.0,21.0,9849.0,5159.0,2424.0,1770.0,3800.0,2470.0,-3303.0,2679.0,2361.0,0.986104,0.165783,-0.005642,20414.0,10074.0,9228.0,1042.0,1337.0,496.0
2878.0,2759.0,2864.0,3125.0,3043.0,0.709351,0.153137,-0.686768,0.040894,34.0,48.0,34.0,9871.0,4967.0,3017.0,1786.0,3647.0,2937.0,-3708.0,2388.0,2378.0,0.986843,0.161087,0.00975,19738.0,8432.0,9334.0,795.0,1118.0,789.0
2877.0,2767.0,2906.0,3142.0,3023.0,0.716675,0.150391,-0.678955,0.05249,19.0,25.0,40.0,9482.0,3654.0,3506.0,1380.0,2472.0,3237.0,-3689.0,1240.0,1827.0,0.988968,0.144285,0.032781,16474.0,1046.0,7326.0,442.0,595.0,934.0
2883.0,2773.0,2895.0,3135.0,3043.0,0.71814,0.149719,-0.677185,0.057373,27.0,6.0,16.0,9011.0,2125.0,3512.0,902.0,999.0,3200.0,-3273.0,-97.0,1151.0,0.989807,0.137334,0.038021,15344.0,-6012.0,7058.0,633.0,156.0,383.0
2886.0,2787.0,2903.0,3131.0,3043.0,0.717041,0.159668,-0.675293,0.065796,72.0,-10.0,-44.0,8951.0,-1086.0,3436.0,845.0,-2233.0,3133.0,-2209.0,-3198.0,639.0,0.989437,0.140114,0.036962,19550.0,-7764.0,6406.0,1652.0,-207.0,-1006.0
2863.0,2771.0,2911.0,3147.0,3047.0,0.716553,0.167542,-0.673523,0.069519,67.0,0.0,-37.0,9127.0,-938.0,3253.0,1029.0,-2137.0,2953.0,-2000.0,-3111.0,812.0,0.988524,0.146459,0.036577,18844.0,968.0,5130.0,1535.0,11.0,-845.0
2887.0,2787.0,2898.0,3131.0,3007.0,0.718384,0.173828,-0.669922,0.07019,-11.0,7.0,-2.0,8547.0,772.0,2694.0,462.0,-503.0,2350.0,-1993.0,-1336.0,476.0,0.986924,0.155706,0.04199,14528.0,4938.0,3656.0,-232.0,178.0,-36.0
2897.0,2759.0,2873.0,3149.0,3039.0,0.719971,0.170471,-0.66925,0.068237,-38.0,5.0,11.0,8102.0,871.0,2345.0,16.0,-391.0,1967.0,-1720.0,-1029.0,46.0,0.986946,0.154133,0.046058,13612.0,1446.0,2356.0,-869.0,129.0,269.0
2881.0,2757.0,2886.0,3139.0,3009.0,0.721924,0.158569,-0.67041,0.065002,-42.0,0.0,19.0,7857.0,152.0,1610.0,-241.0,-1009.0,1193.0,-843.0,-1298.0,-320.0,0.988585,0.141793,0.050805,16056.0,-1654.0,1210.0,-962.0,3.0,440.0
2895.0,2770.0,2895.0,3119.0,3051.0,0.722595,0.15332,-0.670959,0.06427,-34.0,2.0,17.0,7959.0,80.0,1303.0,-145.0,-1028.0,872.0,-534.0,-1223.0,-236.0,0.989372,0.135332,0.052581,16532.0,244.0,894.0,-769.0,65.0,399.0
2886.0,2778.0,2891.0,3135.0,3063.0,0.724182,0.14624,-0.670959,0.062988,-21.0,5.0,11.0,7973.0,541.0,906.0,-138.0,-501.0,440.0,-288.0,-591.0,-175.0,0.990217,0.127284,0.056834,15864.0,2850.0,828.0,-476.0,125.0,261.0
2878.0,2774.0,2911.0,3127.0,3047.0,0.724792,0.144348,-0.670776,0.062439,-13.0,5.0,7.0,7956.0,805.0,785.0,-157.0,-222.0,306.0,-243.0,-284.0,-165.0,0.990373,0.12548,0.058445,15768.0,3112.0,876.0,-297.0,120.0,175.0
2887.0,2795.0,2887.0,3131.0,3057.0,0.725464,0.143738,-0.670166,0.062134,1.0,2.0,1.0,7769.0,1312.0,548.0,-342.0,285.0,53.0,-163.0,290.0,-299.0,0.990224,0.125273,0.060375,14914.0,4292.0,492.0,30.0,62.0,24.0
2875.0,2773.0,2875.0,3149.0,3023.0,0.725525,0.144348,-0.670044,0.06189,1.0,0.0,-1.0,7690.0,1572.0,461.0,-421.0,535.0,-33.0,-159.0,561.0,-351.0,0.990134,0.126519,0.060421,14972.0,4598.0,440.0,39.0,9.0,-8.0
2883.0,2795.0,2887.0,3130.0,3025.0,0.72522,0.144348,-0.670471,0.060974,-6.0,-3.0,2.0,7591.0,1580.0,346.0,-519.0,534.0,-139.0,-66.0,602.0,-453.0,0.990081,0.127605,0.059293,14902.0,2248.0,368.0,-124.0,-64.0,67.0
2887.0,2771.0,2882.0,3147.0,3027.0,0.724854,0.143555,-0.671021,0.06073,-7.0,-5.0,3.0,7597.0,1332.0,326.0,-514.0,294.0,-150.0,13.0,376.0,-480.0,0.990219,0.12661,0.058224,15328.0,1050.0,580.0,-144.0,-99.0,89.0
2871.0,2767.0,2902.0,3143.0,3027.0,0.724304,0.141541,-0.672058,0.060547,-7.0,-4.0,2.0,7763.0,819.0,359.0,-352.0,-193.0,-104.0,121.0,-117.0,-378.0,0.990689,0.123655,0.056587,16174.0,360.0,1000.0,-147.0,-69.0,63.0
2862.0,2767.0,2899.0,3167.0,3005.0,0.724304,0.14032,-0.672363,0.060425,-9.0,-2.0,3.0,7845.0,677.0,413.0,-272.0,-322.0,-49.0,111.0,-265.0,-311.0,0.990949,0.122014,0.056506,16112.0,680.0,1132.0,-203.0,-25.0,80.0
2870.0,2771.0,2897.0,3125.0,3005.0,0.724854,0.136353,-0.672668,0.059631,-17.0,0.0,7.0,7995.0,433.0,613.0,-126.0,-529.0,138.0,0.0,-531.0,-179.0,0.991434,0.117447,0.057894,16488.0,-16.0,1996.0,-386.0,17.0,176.0
2879.0,2757.0,2893.0,3123.0,3023.0,0.725342,0.133484,-0.672729,0.059265,-21.0,0.0,10.0,8083.0,298.0,781.0,-41.0,-635.0,295.0,-118.0,-684.0,-95.0,0.99174,0.113904,0.05925,16730.0,-156.0,2660.0,-460.0,20.0,241.0
2895.0,2769.0,2883.0,3143.0,3054.0,0.726562,0.125977,-0.672913,0.058289,-29.0,-2.0,15.0,8319.0,136.0,1309.0,188.0,-720.0,796.0,-567.0,-916.0,161.0,0.992512,0.104613,0.062609,17422.0,14.0,4438.0,-659.0,-24.0,345.0
2865.0,2769.0,2915.0,3135.0,3051.0,0.727295,0.121277,-0.673096,0.057251,-36.0,-4.0,16.0,8448.0,123.0,1626.0,313.0,-690.0,1097.0,-861.0,-968.0,312.0,0.992965,0.099337,0.06447,17664.0,270.0,5132.0,-810.0,-79.0,376.0
2871.0,2743.0,2865.0,3147.0,3091.0,0.728149,0.110413,-0.674377,0.053162,-48.0,-14.0,13.0,8563.0,73.0,2078.0,421.0,-656.0,1536.0,-1306.0,-1023.0,461.0,0.993834,0.089092,0.066052,17338.0,-280.0,5276.0,-1079.0,-301.0,314.0
2875.0,2791.0,2903.0,3154.0,3025.0,0.727844,0.10498,-0.675781,0.050293,-48.0,-21.0,9.0,8586.0,-31.0,2191.0,440.0,-726.0,1661.0,-1424.0,-1103.0,483.0,0.994287,0.084845,0.064585,17326.0,-690.0,4922.0,-1084.0,-464.0,227.0
2877.0,2775.0,2903.0,3127.0,3023.0,0.725098,0.096008,-0.680542,0.043823,-42.0,-37.0,1.0,8739.0,-7.0,2350.0,585.0,-658.0,1896.0,-1686.0,-1059.0,634.0,0.995334,0.079584,0.055332,18060.0,486.0,5020.0,-941.0,-826.0,33.0
2885.0,2771.0,2908.0,3135.0,3015.0,0.722717,0.092529,-0.683716,0.040283,-39.0,-44.0,0.0,8852.0,145.0,2353.0,695.0,-499.0,1960.0,-1787.0,-906.0,746.0,0.995721,0.078661,0.047914,18442.0,1350.0,4724.0,-873.0,-989.0,2.0
2883.0,2791.0,2896.0,3135.0,3035.0,0.716431,0.086609,-0.691467,0.032959,-39.0,-54.0,3.0,9071.0,1055.0,2272.0,907.0,411.0,2036.0,-2036.0,-7.0,994.0,0.996486,0.078518,0.028731,18768.0,5630.0,4124.0,-872.0,-1219.0,82.0
2871.0,2767.0,2883.0,3135.0,3043.0,0.712769,0.08313,-0.695923,0.028625,-46.0,-57.0,8.0,9213.0,1650.0,2180.0,1047.0,1005.0,2035.0,-2135.0,588.0,1158.0,0.996823,0.078662,0.017639,19348.0,6900.0,3764.0,-1036.0,-1291.0,195.0
2887.0,2770.0,2919.0,3107.0,3045.0,0.705078,0.07196,-0.7052,0.019531,-63.0,-57.0,28.0,9401.0,2542.0,1826.0,1231.0,1936.0,1866.0,-2094.0,1582.0,1361.0,0.997253,0.073929,-0.004969,18948.0,7270.0,2272.0,-1440.0,-1305.0,656.0
2863.0,2768.0,2879.0,3125.0,3031.0,0.700989,0.063965,-0.710144,0.015381,-70.0,-58.0,40.0,9351.0,2824.0,1574.0,1178.0,2268.0,1711.0,-1965.0,1975.0,1300.0,0.997574,0.067832,-0.016774,18246.0,7154.0,1636.0,-1591.0,-1328.0,925.0
2871.0,2761.0,2895.0,3135.0,3027.0,0.69165,0.044495,-0.720825,0.008972,-73.0,-64.0,59.0,8991.0,2986.0,879.0,816.0,2587.0,1232.0,-1457.0,2442.0,886.0,0.997916,0.048615,-0.043108,16766.0,5894.0,-408.0,-1664.0,-1452.0,1359.0
2864.0,2767.0,2896.0,3167.0,3047.0,0.680298,0.0224,-0.732605,0.005798,-68.0,-69.0,72.0,8670.0,2789.0,220.0,502.0,2608.0,829.0,-969.0,2560.0,496.0,0.997039,0.021981,-0.074373,16554.0,4830.0,-1382.0,-1545.0,-1566.0,1650.0
2883.0,2773.0,2899.0,3139.0,3035.0,0.674133,0.011108,-0.738464,0.005188,-65.0,-69.0,75.0,8539.0,2632.0,-54.0,381.0,2572.0,691.0,-782.0,2551.0,335.0,0.995762,0.007315,-0.09097,16224.0,4288.0,-1754.0,-1469.0,-1573.0,1730.0
2867.0,2767.0,2887.0,3135.0,3039.0,0.66156,-0.012146,-0.749817,0.00531,-63.0,-68.0,81.0,8187.0,2281.0,-617.0,60.0,2477.0,404.0,-380.0,2481.0,-50.0,0.991969,-0.024034,-0.124683,15208.0,3466.0,-2968.0,-1441.0,-1535.0,1860.0
2870.0,2767.0,2887.0,3139.0,3021.0,0.655029,-0.024353,-0.755188,0.005554,-65.0,-67.0,84.0,8013.0,2073.0,-886.0,-89.0,2403.0,275.0,-188.0,2402.0,-223.0,0.98907,-0.040293,-0.141808,14986.0,2856.0,-3366.0,-1487.0,-1513.0,1930.0
2871.0,2766.0,2896.0,3131.0,3045.0,0.642212,-0.050964,-0.764832,0.006348,-74.0,-61.0,95.0,7561.0,1711.0,-1357.0,-481.0,2326.0,77.0,168.0,2276.0,-660.0,0.981721,-0.07517,-0.175088,13362.0,2674.0,-4190.0,-1686.0,-1392.0,2179.0
2881.0,2779.0,2883.0,3143.0,3047.0,0.628418,-0.082764,-0.773438,0.006287,-92.0,-61.0,109.0,6857.0,1264.0,-1910.0,-1097.0,2195.0,-188.0,662.0,1997.0,-1275.0,0.971043,-0.113745,-0.210107,11576.0,356.0,-5588.0,-2086.0,-1382.0,2503.0
2871.0,2767.0,2894.0,3139.0,3051.0,0.621094,-0.100098,-0.777283,0.006409,-93.0,-60.0,111.0,6487.0,873.0,-2222.0,-1412.0,1973.0,-351.0,924.0,1662.0,-1546.0,0.964248,-0.134303,-0.228389,10732.0,-688.0,-6336.0,-2108.0,-1355.0,2550.0
2879.0,2764.0,2893.0,3141.0,3035.0,0.605835,-0.133667,-0.784302,0.00769,-82.0,-58.0,104.0,5972.0,-60.0,-2907.0,-1796.0,1365.0,-728.0,1380.0,813.0,-1747.0,0.948259,-0.174024,-0.265901,10880.0,-2964.0,-7874.0,-1865.0,-1308.0,2388.0
2886.0,2779.0,2907.0,3151.0,3031.0,0.591064,-0.162109,-0.7901,0.010864,-58.0,-52.0,87.0,5841.0,-806.0,-3546.0,-1781.0,904.0,-1079.0,1674.0,188.0,-1521.0,0.930478,-0.208802,-0.301062,11558.0,-3228.0,-9100.0,-1324.0,-1169.0,2006.0
2873.0,2767.0,2877.0,3143.0,3023.0,0.584351,-0.173584,-0.792664,0.012817,-49.0,-47.0,78.0,5889.0,-888.0,-3796.0,-1663.0,940.0,-1200.0,1788.0,181.0,-1362.0,0.921937,-0.223188,-0.316817,12202.0,-1988.0,-8896.0,-1100.0,-1074.0,1799.0
2882.0,2766.0,2887.0,3149.0,3037.0,0.573059,-0.193298,-0.796265,0.015808,-41.0,-33.0,68.0,5975.0,-852.0,-4160.0,-1451.0,1169.0,-1352.0,1970.0,342.0,-1140.0,0.906502,-0.246718,-0.342755,12000.0,-1458.0,-9314.0,-939.0,-733.0,1573.0
2875.0,2758.0,2887.0,3141.0,3031.0,0.564575,-0.212097,-0.797485,0.016968,-47.0,-16.0,66.0,5815.0,-811.0,-4457.0,-1502.0,1372.0,-1492.0,2201.0,393.0,-1167.0,0.893283,-0.266553,-0.361935,10970.0,-2124.0,-9866.0,-1059.0,-355.0,1530.0
2871.0,2759.0,2892.0,3151.0,3025.0,0.55835,-0.232178,-0.796265,0.017029,-49.0,-2.0,66.0,5514.0,-1475.0,-4789.0,-1705.0,871.0,-1709.0,2296.0,-283.0,-1109.0,0.881281,-0.286392,-0.3759,9846.0,-5714.0,-10626.0,-1107.0,-25.0,1525.0
2883.0,2762.0,2883.0,3155.0,3015.0,0.55603,-0.241943,-0.794983,0.017395,-44.0,3.0,62.0,5276.0,-2009.0,-4945.0,-1897.0,421.0,-1823.0,2282.0,-835.0,-1091.0,0.875652,-0.296713,-0.381062,9044.0,-7330.0,-10774.0,-993.0,84.0,1422.0
2861.0,2770.0,2877.0,3133.0,3059.0,0.552734,-0.257446,-0.792358,0.019226,-26.0,6.0,37.0,4782.0,-3169.0,-5037.0,-2312.0,-587.0,-1856.0,2009.0,-1972.0,-1096.0,0.866028,-0.315067,-0.388225,8290.0,-9752.0,-9872.0,-579.0,148.0,869.0
2893.0,2775.0,2902.0,3165.0,3057.0,0.550842,-0.26532,-0.791016,0.021301,-10.0,3.0,9.0,4525.0,-4112.0,-4800.0,-2521.0,-1441.0,-1586.0,1465.0,-2764.0,-1076.0,0.860146,-0.325998,-0.392219,8684.0,-10656.0,-8448.0,-207.0,85.0,214.0
2885.0,2783.0,2895.0,3135.0,3035.0,0.550354,-0.266541,-0.790955,0.022095,-4.0,2.0,-4.0,4505.0,-4496.0,-4597.0,-2530.0,-1806.0,-1375.0,1133.0,-3031.0,-1039.0,0.858832,-0.328335,-0.393275,8972.0,-11332.0,-7936.0,-69.0,49.0,-87.0
2865.0,2767.0,2887.0,3126.0,3027.0,0.549927,-0.264648,-0.791809,0.023987,10.0,-2.0,-23.0,4703.0,-5108.0,-4131.0,-2327.0,-2412.0,-903.0,444.0,-3336.0,-847.0,0.858178,-0.32906,-0.394006,10410.0,-11402.0,-6834.0,246.0,-31.0,-512.0
2879.0,2783.0,2897.0,3139.0,3022.0,0.550476,-0.258118,-0.793579,0.025452,18.0,-2.0,-36.0,5080.0,-5018.0,-3715.0,-1969.0,-2359.0,-497.0,53.0,-3024.0,-733.0,0.860554,-0.324571,-0.392721,11262.0,-9162.0,-6408.0,415.0,-34.0,-817.0
2875.0,2767.0,2898.0,3123.0,3053.0,0.550964,-0.253418,-0.794739,0.025391,19.0,-2.0,-43.0,5327.0,-4789.0,-3554.0,-1741.0,-2170.0,-345.0,-46.0,-2720.0,-673.0,0.862877,-0.319606,-0.391624,12306.0,-8082.0,-6178.0,442.0,-23.0,-977.0
2875.0,2743.0,2906.0,3143.0,3019.0,0.55304,-0.241638,-0.797058,0.022827,17.0,7.0,-57.0,5796.0,-4145.0,-3484.0,-1335.0,-1657.0,-311.0,43.0,-2081.0,-538.0,0.870578,-0.30366,-0.387317,12292.0,-6340.0,-7178.0,390.0,177.0,-1289.0
2879.0,2759.0,2886.0,3151.0,3039.0,0.554321,-0.234924,-0.798218,0.020447,16.0,9.0,-63.0,5848.0,-3822.0,-3488.0,-1322.0,-1421.0,-336.0,163.0,-1865.0,-611.0,0.875331,-0.293089,-0.384651,11894.0,-5748.0,-7072.0,386.0,228.0,-1424.0
2879.0,2751.0,2903.0,3147.0,2991.0,0.556946,-0.219788,-0.800781,0.014893,20.0,11.0,-70.0,5875.0,-3183.0,-3643.0,-1378.0,-982.0,-537.0,543.0,-1513.0,-752.0,0.885437,-0.268671,-0.379147,11870.0,-4550.0,-7912.0,466.0,262.0,-1584.0
2887.0,2749.0,2886.0,3139.0,3015.0,0.560181,-0.202515,-0.803162,0.01001,32.0,16.0,-74.0,5858.0,-2765.0,-3930.0,-1480.0,-774.0,-881.0,982.0,-1394.0,-809.0,0.895777,-0.242968,-0.372178,11430.0,-4370.0,-8818.0,743.0,369.0,-1692.0
2869.0,2781.0,2899.0,3153.0,3039.0,0.562256,-0.192627,-0.804199,0.008423,41.0,19.0,-78.0,5766.0,-2577.0,-4124.0,-1615.0,-691.0,-1112.0,1275.0,-1381.0,-887.0,0.901087,-0.230159,-0.367639,10884.0,-3994.0,-9462.0,954.0,438.0,-1769.0
2875.0,2781.0,2910.0,3151.0,3027.0,0.567566,-0.169189,-0.805725,0.006836,62.0,27.0,-89.0,5608.0,-2063.0,-4478.0,-1865.0,-399.0,-1564.0,1885.0,-1182.0,-1064.0,0.912291,-0.203068,-0.35564,10932.0,-2060.0,-9796.0,1423.0,626.0,-2024.0
2871.0,2777.0,2896.0,3141.0,3031.0,0.575195,-0.141357,-0.805664,0.004761,65.0,40.0,-96.0,5489.0,-964.0,-4613.0,-2092.0,430.0,-1842.0,2429.0,-360.0,-1386.0,0.925482,-0.170287,-0.338204,10572.0,1634.0,-9524.0,1492.0,932.0,-2187.0
2879.0,2756.0,2890.0,3139.0,3024.0,0.57959,-0.127319,-0.804932,0.002625,60.0,46.0,-96.0,5431.0,-499.0,-4626.0,-2207.0,744.0,-1937.0,2611.0,-16.0,-1535.0,0.932392,-0.151811,-0.328194,10522.0,1428.0,-9284.0,1383.0,1058.0,-2188.0
2884.0,2751.0,2879.0,3143.0,3043.0,0.589478,-0.099426,-0.801636,-0.001038,66.0,56.0,-96.0,5279.0,-184.0,-4644.0,-2464.0,762.0,-2145.0,2852.0,102.0,-1763.0,0.945299,-0.115556,-0.305021,9966.0,68.0,-9294.0,1525.0,1285.0,-2182.0
2878.0,2767.0,2906.0,3135.0,3030.0,0.594971,-0.08429,-0.799316,-0.00177,77.0,60.0,-101.0,5131.0,-137.0,-4637.0,-2663.0,661.0,-2244.0,2963.0,66.0,-1942.0,0.951438,-0.09747,-0.292018,9262.0,-90.0,-9190.0,1778.0,1381.0,-2297.0
2879.0,2777.0,2896.0,3151.0,3031.0,0.60675,-0.048828,-0.793396,-0.001038,103.0,67.0,-118.0,4729.0,44.0,-4478.0,-3158.0,515.0,-2317.0,3088.0,130.0,-2459.0,0.962888,-0.057607,-0.263714,8098.0,1332.0,-8224.0,2382.0,1549.0,-2685.0
2882.0,2771.0,2883.0,3131.0,3039.0,0.619263,-0.007141,-0.785156,-0.000244,110.0,73.0,-129.0,4361.0,1075.0,-4022.0,-3605.0,1144.0,-2112.0,2906.0,1085.0,-3023.0,0.972439,-0.008461,-0.233035,7932.0,6520.0,-6358.0,2532.0,1688.0,-2946.0
2875.0,2777.0,2883.0,3139.0,3031.0,0.62561,0.013977,-0.780029,-0.001343,100.0,75.0,-127.0,4367.0,1840.0,-3788.0,-3627.0,1679.0,-2008.0,2712.0,1794.0,-3070.0,0.975951,0.019583,-0.217251,9052.0,8198.0,-6340.0,2306.0,1731.0,-2908.0
2887.0,2765.0,2886.0,3135.0,3051.0,0.637878,0.052734,-0.768311,-0.00531,84.0,78.0,-115.0,4935.0,2976.0,-3395.0,-3090.0,2358.0,-1869.0,2216.0,2726.0,-2501.0,0.979617,0.075436,-0.186165,12346.0,8558.0,-5446.0,1943.0,1791.0,-2620.0
2871.0,2771.0,2875.0,3143.0,3023.0,0.651794,0.087952,-0.753296,-0.006165,90.0,92.0,-94.0,6469.0,3497.0,-2365.0,-1566.0,2481.0,-1133.0,1016.0,2782.0,-1058.0,0.980904,0.12394,-0.150316,18364.0,8734.0,-504.0,2070.0,2122.0,-2142.0
2891.0,2773.0,2895.0,3147.0,3043.0,0.660217,0.103638,-0.743896,-0.004395,90.0,100.0,-78.0,7390.0,3923.0,-1573.0,-649.0,2748.0,-522.0,174.0,2860.0,-175.0,0.981356,0.143385,-0.128217,20304.0,10704.0,1814.0,2069.0,2305.0,-1770.0
2864.0,2775.0,2883.0,3141.0,3031.0,0.678833,0.130798,-0.722534,0.001282,82.0,106.0,-52.0,9035.0,4729.0,288.0,996.0,3289.0,929.0,-1582.0,2823.0,1482.0,0.981295,0.175728,-0.078348,22142.0,11374.0,5814.0,1884.0,2440.0,-1174.0
2875.0,2770.0,2893.0,3133.0,3071.0,0.695496,0.150269,-0.702576,0.009644,69.0,81.0,-21.0,9962.0,5019.0,2092.0,1932.0,3417.0,2357.0,-3039.0,2355.0,2485.0,0.980175,0.195472,-0.032386,22332.0,10336.0,9524.0,1601.0,1878.0,-465.0
2883.0,2773.0,2911.0,3143.0,3039.0,0.702026,0.156982,-0.694458,0.014832,63.0,65.0,-5.0,10374.0,5012.0,2908.0,2348.0,3375.0,3021.0,-3655.0,2015.0,2932.0,0.979712,0.199812,-0.013854,23290.0,9824.0,10610.0,1446.0,1501.0,-101.0
2879.0,2771.0,2899.0,3125.0,3039.0,0.711731,0.164978,-0.682251,0.026489,50.0,41.0,15.0,11132.0,4401.0,3969.0,3104.0,2773.0,3849.0,-4223.0,993.0,3648.0,0.979899,0.198695,0.014579,24308.0,6022.0,10062.0,1162.0,945.0,363.0
2878.0,2768.0,2887.0,3143.0,3035.0,0.71521,0.166992,-0.677856,0.032837,45.0,33.0,21.0,11416.0,3852.0,4158.0,3383.0,2259.0,3951.0,-4138.0,401.0,3856.0,0.980586,0.194352,0.025228,24388.0,4268.0,9132.0,1049.0,777.0,487.0
2877.0,2775.0,2898.0,3139.0,3035.0,0.720886,0.168274,-0.670776,0.045471,34.0,29.0,26.0,11351.0,2615.0,3991.0,3303.0,1127.0,3634.0,-3470.0,-573.0,3607.0,0.98241,0.181611,0.043488,21058.0,1606.0,6734.0,784.0,669.0,611.0
2867.0,2763.0,2910.0,3139.0,3023.0,0.723145,0.167847,-0.66803,0.051208,27.0,25.0,26.0,10757.0,1995.0,3669.0,2701.0,566.0,3250.0,-2976.0,-885.0,2920.0,0.983355,0.174337,0.051124,17294.0,174.0,5162.0,624.0,574.0,608.0
2867.0,2763.0,2891.0,3127.0,3029.0,0.724976,0.167175,-0.665466,0.060242,23.0,3.0,12.0,9134.0,614.0,2878.0,1064.0,-714.0,2399.0,-1931.0,-1586.0,1072.0,0.985035,0.162218,0.058426,13824.0,-2692.0,3438.0,546.0,86.0,282.0
2878.0,2779.0,2885.0,3134.0,3035.0,0.724548,0.168152,-0.665344,0.063416,25.0,-4.0,1.0,8551.0,48.0,2485.0,477.0,-1256.0,2009.0,-1446.0,-1896.0,386.0,0.985475,0.159282,0.058034,13912.0,-3078.0,2558.0,578.0,-84.0,32.0
2889.0,2775.0,2895.0,3139.0,3025.0,0.722839,0.171326,-0.666016,0.067749,20.0,-7.0,-4.0,8011.0,-312.0,1746.0,-66.0,-1601.0,1302.0,-708.0,-1923.0,-246.0,0.986059,0.157438,0.054157,15302.0,-120.0,1590.0,464.0,-159.0,-91.0
2875.0,2769.0,2898.0,3134.0,3035.0,0.72229,0.172302,-0.666199,0.06897,10.0,-3.0,-1.0,7934.0,-30.0,1440.0,-144.0,-1316.0,1006.0,-525.0,-1549.0,-295.0,0.986145,0.157009,0.052951,15464.0,1922.0,1096.0,243.0,-56.0,-10.0
2871.0,2765.0,2896.0,3135.0,3027.0,0.723267,0.170715,-0.665527,0.069214,-13.0,8.0,7.0,7705.0,699.0,997.0,-375.0,-569.0,539.0,-359.0,-665.0,-427.0,0.986339,0.154818,0.055835,14308.0,3268.0,696.0,-295.0,198.0,175.0
2883.0,2775.0,2893.0,3143.0,3037.0,0.724365,0.168457,-0.664978,0.068604,-19.0,10.0,9.0,7472.0,909.0,801.0,-609.0,-342.0,319.0,-253.0,-350.0,-634.0,0.986487,0.152809,0.058838,13484.0,2830.0,472.0,-435.0,241.0,218.0
2883.0,2771.0,2901.0,3146.0,3031.0,0.726196,0.164368,-0.664124,0.067505,-13.0,6.0,5.0,7109.0,1054.0,537.0,-974.0,-167.0,14.0,-66.0,-43.0,-985.0,0.986759,0.149063,0.063841,13570.0,2440.0,584.0,-285.0,151.0,131.0
2878.0,2771.0,2897.0,3133.0,3035.0,0.726624,0.163574,-0.663879,0.067261,-5.0,4.0,1.0,7090.0,1120.0,504.0,-993.0,-95.0,-28.0,-52.0,38.0,-995.0,0.986785,0.148408,0.065013,14250.0,2740.0,884.0,-108.0,96.0,40.0
2871.0,2769.0,2893.0,3131.0,3028.0,0.727051,0.164551,-0.663208,0.067017,4.0,1.0,-4.0,7307.0,1378.0,550.0,-773.0,146.0,7.0,-138.0,227.0,-740.0,0.986427,0.150382,0.066172,15528.0,3450.0,1408.0,106.0,44.0,-88.0
2877.0,2773.0,2900.0,3155.0,3035.0,0.727234,0.165466,-0.662781,0.067017,5.0,2.0,-4.0,7436.0,1483.0,608.0,-642.0,239.0,61.0,-205.0,281.0,-592.0,0.986171,0.151831,0.066703,15618.0,3626.0,1554.0,134.0,46.0,-79.0
2879.0,2773.0,2897.0,3141.0,3037.0,0.7276,0.166382,-0.662109,0.066956,-2.0,1.0,1.0,7736.0,1693.0,732.0,-339.0,435.0,176.0,-342.0,390.0,-255.0,0.985782,0.153455,0.067813,16456.0,3782.0,1758.0,-30.0,37.0,41.0
2877.0,2775.0,2899.0,3135.0,3027.0,0.727966,0.165649,-0.661926,0.066711,-8.0,2.0,4.0,7873.0,1663.0,745.0,-202.0,410.0,181.0,-323.0,348.0,-124.0,0.985821,0.152858,0.068799,16472.0,2968.0,1516.0,-162.0,57.0,109.0
2883.0,2773.0,2895.0,3135.0,3031.0,0.728821,0.162537,-0.661804,0.066406,-12.0,2.0,7.0,7953.0,1338.0,698.0,-126.0,117.0,114.0,-158.0,87.0,-98.0,0.98626,0.149024,0.071187,15900.0,1490.0,1162.0,-253.0,60.0,165.0
2859.0,2781.0,2899.0,3143.0,3034.0,0.729126,0.161011,-0.661865,0.066406,-10.0,1.0,5.0,7944.0,1150.0,660.0,-137.0,-53.0,69.0,-64.0,-56.0,-137.0,0.986551,0.14689,0.072044,15830.0,1220.0,1104.0,-213.0,44.0,134.0
2879.0,2775.0,2906.0,3143.0,3043.0,0.72937,0.158997,-0.662048,0.066467,-5.0,0.0,2.0,7907.0,988.0,583.0,-177.0,-191.0,-13.0,50.0,-155.0,-203.0,0.986893,0.143926,0.072811,15786.0,1918.0,960.0,-94.0,11.0,66.0
2881.0,2775.0,2892.0,3135.0,3035.0,0.729431,0.158447,-0.662109,0.066467,-4.0,0.0,2.0,7911.0,1043.0,560.0,-174.0,-129.0,-37.0,54.0,-89.0,-192.0,0.986989,0.143136,0.072993,15860.0,2520.0,980.0,-73.0,14.0,50.0
2879.0,2769.0,2895.0,3131.0,3025.0,0.729797,0.157593,-0.661926,0.066162,-5.0,2.0,2.0,7897.0,1202.0,507.0,-188.0,35.0,-99.0,61.0,85.0,-187.0,0.986997,0.142433,0.074,15628.0,2686.0,752.0,-100.0,67.0,46.0
2877.0,2770.0,2896.0,3143.0,3039.0,0.730103,0.157166,-0.661743,0.065918,-5.0,3.0,1.0,7837.0,1210.0,465.0,-248.0,44.0,-147.0,96.0,115.0,-249.0,0.987001,0.142252,0.07479,15276.0,2388.0,696.0,-92.0,85.0,30.0
2879.0,2774.0,2896.0,3138.0,3035.0,0.730591,0.156982,-0.661255,0.065674,0.0,3.0,-3.0,7616.0,1127.0,383.0,-468.0,-40.0,-241.0,185.0,90.0,-485.0,0.986833,0.142526,0.076174,14558.0,1974.0,556.0,4.0,76.0,-54.0
2854.0,2774.0,2896.0,3135.0,3031.0,0.730713,0.15741,-0.661011,0.065552,2.0,2.0,-5.0,7561.0,1055.0,399.0,-521.0,-119.0,-227.0,189.0,18.0,-548.0,0.986655,0.143382,0.076525,14922.0,1618.0,998.0,56.0,60.0,-102.0
2879.0,2772.0,2896.0,3163.0,3027.0,0.731201,0.158508,-0.660217,0.06543,2.0,2.0,-6.0,7566.0,934.0,632.0,-513.0,-257.0,-6.0,22.0,-181.0,-543.0,0.986246,0.145407,0.077924,15320.0,1628.0,2276.0,51.0,65.0,-115.0
2879.0,2772.0,2893.0,3147.0,3035.0,0.731689,0.15863,-0.659729,0.065247,-2.0,2.0,-5.0,7630.0,840.0,821.0,-448.0,-356.0,172.0,-108.0,-338.0,-480.0,0.986134,0.146046,0.079221,15708.0,958.0,2818.0,-32.0,57.0,-94.0
2881.0,2774.0,2897.0,3142.0,3031.0,0.732849,0.156799,-0.658875,0.064514,-12.0,0.0,1.0,7808.0,604.0,1339.0,-268.0,-582.0,662.0,-483.0,-726.0,-293.0,0.985943,0.144807,0.082528,16074.0,710.0,4392.0,-270.0,17.0,25.0
2879.0,2768.0,2893.0,3135.0,3039.0,0.733521,0.154541,-0.658752,0.06366,-20.0,-3.0,3.0,7892.0,531.0,1637.0,-186.0,-639.0,946.0,-728.0,-876.0,-194.0,0.986093,0.142846,0.084267,16360.0,642.0,5154.0,-455.0,-66.0,89.0
2879.0,2769.0,2895.0,3133.0,3031.0,0.734436,0.147095,-0.65979,0.060242,-38.0,-14.0,8.0,8207.0,466.0,2335.0,122.0,-652.0,1629.0,-1350.0,-1113.0,171.0,0.98687,0.13657,0.086066,17456.0,1014.0,6772.0,-860.0,-305.0,189.0
2875.0,2779.0,2899.0,3149.0,3031.0,0.734558,0.142151,-0.661011,0.057373,-47.0,-21.0,8.0,8375.0,521.0,2651.0,286.0,-568.0,1948.0,-1671.0,-1125.0,373.0,0.987413,0.132988,0.085725,17740.0,1456.0,7108.0,-1071.0,-459.0,197.0
2878.0,2775.0,2899.0,3143.0,3027.0,0.733032,0.130371,-0.66571,0.049316,-60.0,-38.0,8.0,8820.0,571.0,3044.0,719.0,-456.0,2391.0,-2112.0,-1125.0,844.0,0.988833,0.125472,0.079601,19220.0,1088.0,6840.0,-1365.0,-851.0,206.0
2879.0,2774.0,2896.0,3135.0,3035.0,0.731323,0.124084,-0.669189,0.044861,-60.0,-45.0,9.0,9092.0,637.0,3095.0,982.0,-357.0,2491.0,-2229.0,-1044.0,1112.0,0.989921,0.121451,0.073635,19780.0,1866.0,6342.0,-1365.0,-1011.0,229.0
2870.0,2768.0,2893.0,3135.0,3031.0,0.725708,0.111816,-0.677856,0.036072,-59.0,-57.0,16.0,9546.0,1146.0,2928.0,1420.0,217.0,2469.0,-2342.0,-451.0,1571.0,0.991919,0.113389,0.055961,20058.0,4632.0,5040.0,-1340.0,-1299.0,375.0
2877.0,2771.0,2902.0,3143.0,3039.0,0.721985,0.105591,-0.683044,0.031616,-60.0,-63.0,20.0,9686.0,1677.0,2766.0,1551.0,781.0,2400.0,-2398.0,139.0,1732.0,0.992972,0.109279,0.044563,20184.0,6846.0,4500.0,-1365.0,-1432.0,476.0
2881.0,2774.0,2898.0,3171.0,3039.0,0.713501,0.092285,-0.694153,0.0224,-65.0,-67.0,31.0,9886.0,2876.0,2424.0,1737.0,2051.0,2266.0,-2502.0,1478.0,1977.0,0.994692,0.100593,0.019221,19904.0,9394.0,3484.0,-1475.0,-1529.0,726.0
2879.0,2773.0,2899.0,3139.0,3035.0,0.70343,0.074951,-0.706604,0.013977,-77.0,-76.0,56.0,9739.0,3866.0,1852.0,1578.0,3164.0,1933.0,-2313.0,2748.0,1823.0,0.996188,0.085693,-0.009898,18702.0,10006.0,1724.0,-1747.0,-1718.0,1287.0
2882.0,2767.0,2897.0,3139.0,3031.0,0.697632,0.06366,-0.713562,0.010742,-83.0,-79.0,71.0,9559.0,4151.0,1492.0,1391.0,3548.0,1708.0,-2099.0,3235.0,1602.0,0.996975,0.073492,-0.026418,17944.0,9874.0,832.0,-1883.0,-1793.0,1641.0
2879.0,2768.0,2896.0,3135.0,3031.0,0.684692,0.036377,-0.727905,0.006226,-90.0,-82.0,95.0,8971.0,4324.0,667.0,801.0,3990.0,1177.0,-1465.0,3874.0,888.0,0.997235,0.040751,-0.062327,15712.0,8294.0,-1518.0,-2053.0,-1874.0,2191.0
2879.0,2767.0,2895.0,3135.0,3047.0,0.677307,0.02124,-0.735352,0.005127,-88.0,-85.0,102.0,8585.0,4163.0,185.0,423.0,3989.0,860.0,-1043.0,3943.0,435.0,0.996336,0.021232,-0.082422,14892.0,7272.0,-2532.0,-2015.0,-1930.0,2358.0
2879.0,2781.0,2895.0,3135.0,3043.0,0.661194,-0.009766,-0.750122,0.005066,-82.0,-86.0,110.0,7932.0,3752.0,-774.0,-193.0,3920.0,254.0,-196.0,3916.0,-303.0,0.991853,-0.020514,-0.125576,13932.0,6226.0,-4386.0,-1865.0,-1950.0,2526.0
2881.0,2781.0,2895.0,3151.0,3038.0,0.643982,-0.041382,-0.763916,0.006897,-79.0,-83.0,117.0,7144.0,3295.0,-1693.0,-911.0,3817.0,-296.0,651.0,3725.0,-1088.0,0.983325,-0.063836,-0.17052,11606.0,4996.0,-6086.0,-1794.0,-1893.0,2681.0
2879.0,2769.0,2891.0,3135.0,3031.0,0.63501,-0.0578,-0.770325,0.008484,-78.0,-82.0,120.0,6662.0,2996.0,-2132.0,-1344.0,3704.0,-547.0,1076.0,3511.0,-1528.0,0.977347,-0.086478,-0.193432,10408.0,4114.0,-6932.0,-1771.0,-1865.0,2765.0
2882.0,2768.0,2895.0,3127.0,3031.0,0.616699,-0.091431,-0.781799,0.012939,-74.0,-74.0,124.0,6036.0,2098.0,-2926.0,-1843.0,3187.0,-967.0,1749.0,2750.0,-1965.0,0.961904,-0.133003,-0.239084,10980.0,1006.0,-7974.0,-1691.0,-1680.0,2853.0
2885.0,2771.0,2895.0,3139.0,3035.0,0.60083,-0.124939,-0.789368,0.018372,-71.0,-52.0,118.0,5767.0,861.0,-3577.0,-1965.0,2328.0,-1304.0,2135.0,1664.0,-1910.0,0.943961,-0.179138,-0.277377,10610.0,-2406.0,-9096.0,-1606.0,-1184.0,2721.0
2883.0,2783.0,2911.0,3138.0,3027.0,0.594116,-0.14093,-0.791687,0.020813,-68.0,-41.0,109.0,5552.0,82.0,-3916.0,-2106.0,1723.0,-1513.0,2309.0,927.0,-1870.0,0.934842,-0.200413,-0.293222,9730.0,-4682.0,-9904.0,-1544.0,-930.0,2515.0
2879.0,2766.0,2899.0,3141.0,3031.0,0.583374,-0.168457,-0.794128,0.02478,-55.0,-20.0,78.0,5067.0,-1605.0,-4562.0,-2454.0,327.0,-1956.0,2550.0,-726.0,-1708.0,0.918199,-0.235904,-0.318078,8586.0,-8528.0,-10934.0,-1259.0,-448.0,1788.0
2875.0,2767.0,2891.0,3143.0,3029.0,0.576965,-0.1875,-0.794495,0.026794,-37.0,0.0,39.0,4475.0,-3290.0,-5057.0,-2953.0,-1168.0,-2330.0,2626.0,-2460.0,-1599.0,0.906744,-0.258938,-0.332771,6938.0,-11884.0,-11278.0,-845.0,18.0,903.0
2879.0,2765.0,2907.0,3120.0,3031.0,0.575378,-0.193542,-0.794189,0.027649,-26.0,7.0,21.0,4095.0,-4136.0,-5169.0,-3304.0,-1951.0,-2413.0,2562.0,-3354.0,-1652.0,0.903216,-0.266637,-0.336371,5738.0,-13252.0,-11124.0,-577.0,172.0,500.0
2881.0,2765.0,2891.0,3135.0,3038.0,0.573608,-0.199463,-0.793945,0.03009,-2.0,8.0,-5.0,3480.0,-5266.0,-5088.0,-3883.0,-3000.0,-2301.0,2295.0,-4536.0,-1877.0,0.898824,-0.276607,-0.340203,5946.0,-12934.0,-9414.0,-40.0,187.0,-101.0
2881.0,2775.0,2903.0,3125.0,3039.0,0.57373,-0.198181,-0.794067,0.032593,11.0,8.0,-20.0,3702.0,-5214.0,-4535.0,-3656.0,-2927.0,-1753.0,1770.0,-4286.0,-1871.0,0.898243,-0.279167,-0.33959,8930.0,-8894.0,-7066.0,270.0,195.0,-450.0
2863.0,2768.0,2910.0,3173.0,3057.0,0.574402,-0.195984,-0.794067,0.032959,11.0,9.0,-24.0,4057.0,-4844.0,-4185.0,-3310.0,-2570.0,-1416.0,1478.0,-3767.0,-1785.0,0.899309,-0.27749,-0.337929,10452.0,-7278.0,-6216.0,257.0,222.0,-535.0
2878.0,2783.0,2919.0,3143.0,3051.0,0.577087,-0.190369,-0.793579,0.03125,7.0,16.0,-31.0,4935.0,-4148.0,-3584.0,-2470.0,-1941.0,-864.0,931.0,-2778.0,-1423.0,0.904031,-0.269317,-0.332002,12324.0,-6810.0,-5720.0,177.0,369.0,-710.0
2881.0,2766.0,2918.0,3151.0,3039.0,0.581055,-0.182495,-0.792664,0.028198,12.0,18.0,-43.0,5592.0,-3772.0,-3196.0,-1869.0,-1668.0,-548.0,565.0,-2248.0,-1096.0,0.91087,-0.256783,-0.3232,12796.0,-6930.0,-5648.0,290.0,423.0,-982.0
2883.0,2755.0,2899.0,3139.0,3019.0,0.58313,-0.177307,-0.792358,0.026611,17.0,17.0,-49.0,5836.0,-3655.0,-3068.0,-1656.0,-1615.0,-458.0,449.0,-2103.0,-966.0,0.914659,-0.248958,-0.318521,13032.0,-6478.0,-5310.0,392.0,409.0,-1113.0
2887.0,2769.0,2890.0,3125.0,3025.0,0.586853,-0.164734,-0.792419,0.023376,22.0,11.0,-56.0,5893.0,-3173.0,-2845.0,-1663.0,-1285.0,-304.0,412.0,-1741.0,-1143.0,0.922366,-0.230397,-0.310123,11604.0,-4356.0,-4856.0,521.0,266.0,-1279.0
2881.0,2771.0,2893.0,3141.0,3047.0,0.588684,-0.151184,-0.793884,0.019104,16.0,3.0,-58.0,5955.0,-2492.0,-2695.0,-1654.0,-785.0,-186.0,436.0,-1210.0,-1315.0,0.928918,-0.208332,-0.306195,12478.0,-3296.0,-5144.0,386.0,71.0,-1311.0
2875.0,2765.0,2879.0,3143.0,3031.0,0.589172,-0.144592,-0.7948,0.016418,14.0,3.0,-59.0,6088.0,-2320.0,-2735.0,-1545.0,-710.0,-234.0,478.0,-1098.0,-1228.0,0.9318,-0.196478,-0.30522,13022.0,-3846.0,-5886.0,334.0,87.0,-1344.0
2882.0,2768.0,2907.0,3135.0,3051.0,0.590942,-0.130249,-0.796082,0.010864,20.0,13.0,-69.0,6402.0,-2288.0,-3106.0,-1282.0,-885.0,-637.0,772.0,-1224.0,-859.0,0.938047,-0.171237,-0.30138,13814.0,-4604.0,-7614.0,475.0,302.0,-1560.0
2887.0,2767.0,2875.0,3115.0,3055.0,0.594971,-0.111633,-0.795959,0.005737,36.0,28.0,-84.0,6645.0,-2349.0,-3652.0,-1103.0,-1185.0,-1260.0,1287.0,-1514.0,-507.0,0.945864,-0.14197,-0.29199,13536.0,-4802.0,-8976.0,847.0,642.0,-1905.0
2879.0,2768.0,2895.0,3121.0,3058.0,0.5979,-0.100342,-0.795288,0.003662,46.0,33.0,-90.0,6567.0,-2228.0,-3894.0,-1217.0,-1197.0,-1558.0,1619.0,-1550.0,-561.0,0.950271,-0.125814,-0.285053,12436.0,-3456.0,-9220.0,1068.0,777.0,-2057.0
2877.0,2769.0,2887.0,3139.0,3039.0,0.604126,-0.074219,-0.793457,-0.000305,57.0,37.0,-99.0,6219.0,-1442.0,-4182.0,-1635.0,-711.0,-1969.0,2227.0,-1072.0,-972.0,0.958741,-0.089191,-0.270114,11554.0,514.0,-8718.0,1308.0,862.0,-2245.0
2871.0,2759.0,2903.0,3151.0,3045.0,0.610413,-0.046814,-0.790649,-0.00592,50.0,40.0,-96.0,6047.0,-237.0,-4173.0,-1864.0,154.0,-2086.0,2491.0,-109.0,-1276.0,0.965799,-0.04779,-0.254679,11838.0,2966.0,-8246.0,1163.0,918.0,-2196.0
2885.0,2762.0,2901.0,3135.0,3047.0,0.613647,-0.03363,-0.788818,-0.009033,49.0,42.0,-93.0,6054.0,205.0,-4118.0,-1881.0,426.0,-2096.0,2515.0,229.0,-1316.0,0.96872,-0.027023,-0.246721,12242.0,2852.0,-7850.0,1125.0,967.0,-2114.0
2879.0,2763.0,2871.0,3151.0,3087.0,0.621155,-0.007141,-0.783569,-0.013367,59.0,51.0,-89.0,6170.0,940.0,-3961.0,-1805.0,841.0,-2093.0,2472.0,788.0,-1269.0,0.973627,0.012076,-0.22802,12978.0,3990.0,-7244.0,1371.0,1182.0,-2016.0
2882.0,2772.0,2867.0,3151.0,3014.0,0.625671,0.007019,-0.779968,-0.014465,69.0,58.0,-89.0,6299.0,1281.0,-3839.0,-1694.0,1024.0,-2063.0,2388.0,1044.0,-1173.0,0.975805,0.031348,-0.216726,13384.0,4634.0,-6976.0,1581.0,1347.0,-2032.0
2883.0,2779.0,2894.0,3118.0,3053.0,0.636475,0.038879,-0.770203,-0.014587,90.0,74.0,-96.0,6554.0,2053.0,-3583.0,-1468.0,1463.0,-2031.0,2207.0,1628.0,-947.0,0.979295,0.071962,-0.189411,13624.0,6504.0,-6238.0,2062.0,1716.0,-2193.0
2875.0,2787.0,2903.0,3122.0,3015.0,0.64917,0.075256,-0.756775,-0.012756,101.0,86.0,-97.0,6778.0,3323.0,-2858.0,-1255.0,2364.0,-1573.0,1501.0,2623.0,-707.0,0.980631,0.117016,-0.156787,14616.0,11140.0,-2696.0,2318.0,1972.0,-2218.0
2863.0,2749.0,2894.0,3143.0,3007.0,0.656311,0.092651,-0.748718,-0.011902,93.0,89.0,-86.0,7074.0,4051.0,-2214.0,-958.0,2908.0,-1081.0,823.0,3117.0,-384.0,0.980579,0.139439,-0.138277,16092.0,12330.0,-334.0,2135.0,2052.0,-1957.0
2881.0,2773.0,2899.0,3139.0,3087.0,0.67157,0.119141,-0.731262,-0.008484,69.0,88.0,-42.0,7814.0,5083.0,-676.0,-215.0,3670.0,125.0,-705.0,3586.0,409.0,0.980166,0.17243,-0.097861,17930.0,12652.0,3234.0,1588.0,2036.0,-952.0
2879.0,2779.0,2911.0,3139.0,3007.0,0.686218,0.134033,-0.714905,-0.001221,53.0,77.0,-2.0,8644.0,5445.0,706.0,609.0,3923.0,1182.0,-1918.0,3448.0,1257.0,0.980834,0.185697,-0.058157,19774.0,10888.0,5124.0,1229.0,1771.0,-27.0
2877.0,2762.0,2891.0,3143.0,3005.0,0.692749,0.138489,-0.707764,0.004211,52.0,70.0,13.0,9016.0,5335.0,1211.0,973.0,3811.0,1540.0,-2279.0,3175.0,1601.0,0.981772,0.185915,-0.04019,20196.0,9834.0,5238.0,1212.0,1617.0,298.0
2883.0,2783.0,2903.0,3122.0,3015.0,0.703674,0.144226,-0.695435,0.018433,54.0,58.0,33.0,9624.0,4833.0,2064.0,1562.0,3380.0,2137.0,-2795.0,2475.0,2117.0,0.984036,0.177339,-0.008933,20642.0,8170.0,6710.0,1237.0,1342.0,772.0
2895.0,2773.0,2899.0,3167.0,3013.0,0.708557,0.145874,-0.68988,0.026367,51.0,54.0,38.0,9757.0,4565.0,2429.0,1685.0,3169.0,2383.0,-2988.0,2174.0,2213.0,0.985332,0.17034,0.005534,20144.0,7394.0,6776.0,1169.0,1250.0,874.0
2863.0,2768.0,2906.0,3138.0,3031.0,0.716797,0.145996,-0.680542,0.041199,34.0,43.0,41.0,9762.0,3360.0,2785.0,1671.0,2104.0,2530.0,-2862.0,1102.0,2051.0,0.98765,0.153224,0.031043,19152.0,1766.0,6172.0,784.0,993.0,951.0
2880.0,2778.0,2901.0,3123.0,3037.0,0.720276,0.144531,-0.676758,0.048462,29.0,39.0,42.0,9541.0,2528.0,2785.0,1439.0,1359.0,2438.0,-2589.0,447.0,1719.0,0.988913,0.142611,0.042255,17394.0,92.0,5376.0,676.0,900.0,968.0
2886.0,2779.0,2896.0,3135.0,3035.0,0.724426,0.143005,-0.671631,0.060608,33.0,15.0,11.0,8251.0,207.0,2352.0,137.0,-823.0,1885.0,-1558.0,-1341.0,139.0,0.990429,0.125781,0.056928,12362.0,-8712.0,3398.0,760.0,353.0,267.0
2869.0,2761.0,2863.0,3135.0,3063.0,0.724243,0.145996,-0.670715,0.06543,51.0,-1.0,-19.0,7688.0,-1351.0,2176.0,-427.0,-2364.0,1703.0,-974.0,-2709.0,-617.0,0.990627,0.123704,0.057635,12212.0,-11648.0,3212.0,1190.0,0.0,-421.0
2879.0,2767.0,2864.0,3125.0,3039.0,0.720703,0.161255,-0.670166,0.07373,78.0,-16.0,-42.0,7540.0,-2281.0,2018.0,-568.0,-3375.0,1610.0,-480.0,-3633.0,-933.0,0.98976,0.13361,0.049724,15928.0,-1926.0,4002.0,1805.0,-349.0,-959.0
2883.0,2783.0,2903.0,3142.0,3014.0,0.719055,0.169739,-0.669556,0.076172,61.0,-14.0,-34.0,7775.0,-1117.0,2061.0,-324.0,-2281.0,1686.0,-841.0,-2668.0,-567.0,0.988754,0.1421,0.045726,17106.0,5794.0,4548.0,1400.0,-309.0,-765.0
2879.0,2768.0,2895.0,3135.0,3022.0,0.71875,0.176575,-0.668335,0.074585,-9.0,-3.0,-3.0,8301.0,1092.0,2039.0,214.0,-170.0,1675.0,-1486.0,-777.0,259.0,0.987071,0.154131,0.044314,17884.0,6232.0,3556.0,-196.0,-68.0,-50.0
2871.0,2755.0,2897.0,3135.0,3029.0,0.720581,0.170593,-0.668152,0.072083,-29.0,1.0,16.0,8249.0,1483.0,1571.0,159.0,258.0,1170.0,-1168.0,-179.0,252.0,0.987509,0.149528,0.048904,15762.0,2872.0,1504.0,-657.0,45.0,374.0
2875.0,2768.0,2886.0,3139.0,3055.0,0.721069,0.167358,-0.668579,0.07135,-22.0,-1.0,12.0,8161.0,1290.0,1349.0,66.0,94.0,939.0,-907.0,-236.0,125.0,0.988066,0.145948,0.050025,15898.0,1274.0,1462.0,-492.0,-21.0,283.0
2865.0,2767.0,2886.0,3135.0,3023.0,0.720764,0.165161,-0.669434,0.071045,0.0,-5.0,0.0,8082.0,1174.0,962.0,-15.0,2.0,559.0,-528.0,-182.0,12.0,0.988475,0.142965,0.049129,15946.0,2632.0,924.0,6.0,-107.0,4.0
2871.0,2769.0,2891.0,3131.0,3055.0,0.720337,0.165894,-0.669739,0.071045,5.0,-5.0,-3.0,7977.0,1261.0,780.0,-120.0,82.0,387.0,-402.0,-38.0,-88.0,0.988447,0.143835,0.047862,15176.0,3110.0,388.0,137.0,-106.0,-68.0
2871.0,2774.0,2907.0,3135.0,3039.0,0.719116,0.168457,-0.670349,0.071045,7.0,-6.0,-5.0,7687.0,1386.0,476.0,-407.0,181.0,112.0,-201.0,181.0,-370.0,0.988054,0.147031,0.04443,14540.0,2958.0,250.0,183.0,-116.0,-104.0
2875.0,2758.0,2862.0,3151.0,3038.0,0.718567,0.169434,-0.670715,0.071045,4.0,-5.0,-3.0,7577.0,1412.0,389.0,-516.0,197.0,38.0,-147.0,235.0,-478.0,0.987982,0.148197,0.042819,14598.0,2946.0,348.0,107.0,-113.0,-59.0
2879.0,2768.0,2883.0,3123.0,3039.0,0.718018,0.168884,-0.67157,0.070312,-9.0,-3.0,2.0,7583.0,1244.0,292.0,-511.0,30.0,-43.0,-14.0,106.0,-502.0,0.988147,0.148084,0.040965,15472.0,1502.0,352.0,-199.0,-61.0,65.0
2875.0,2763.0,2898.0,3143.0,3039.0,0.718079,0.167297,-0.671936,0.069824,-14.0,-1.0,4.0,7634.0,1033.0,272.0,-462.0,-166.0,-64.0,73.0,-76.0,-483.0,0.988369,0.14643,0.041026,15556.0,782.0,506.0,-312.0,-5.0,98.0
2871.0,2771.0,2891.0,3127.0,3027.0,0.718994,0.162842,-0.67218,0.068237,-21.0,2.0,3.0,7726.0,668.0,333.0,-374.0,-498.0,-21.0,145.0,-414.0,-441.0,0.988811,0.142429,0.043265,15834.0,252.0,1074.0,-469.0,68.0,86.0
2875.0,2768.0,2883.0,3151.0,3026.0,0.719788,0.160217,-0.672119,0.067078,-23.0,3.0,3.0,7800.0,509.0,459.0,-302.0,-641.0,88.0,90.0,-594.0,-384.0,0.98906,0.140476,0.04518,16020.0,162.0,1784.0,-523.0,89.0,79.0
2875.0,2757.0,2879.0,3141.0,3023.0,0.721802,0.154236,-0.671631,0.064148,-29.0,3.0,2.0,7970.0,356.0,829.0,-134.0,-762.0,417.0,-179.0,-832.0,-215.0,0.989357,0.136488,0.050236,16450.0,370.0,2846.0,-655.0,75.0,60.0
2887.0,2783.0,2897.0,3151.0,3025.0,0.722839,0.15094,-0.671448,0.062195,-32.0,1.0,2.0,8022.0,288.0,1030.0,-83.0,-815.0,597.0,-337.0,-942.0,-160.0,0.989473,0.13469,0.05274,16306.0,198.0,3278.0,-718.0,44.0,46.0
2890.0,2778.0,2915.0,3127.0,3053.0,0.724487,0.144104,-0.671631,0.057434,-36.0,-6.0,-1.0,8074.0,270.0,1461.0,-33.0,-808.0,999.0,-735.0,-1051.0,-82.0,0.989729,0.131654,0.056327,16322.0,610.0,4380.0,-802.0,-131.0,-5.0
2867.0,2750.0,2895.0,3149.0,3019.0,0.724915,0.140564,-0.67218,0.054504,-38.0,-12.0,0.0,8118.0,332.0,1735.0,8.0,-737.0,1268.0,-1018.0,-1055.0,-16.0,0.989869,0.13052,0.056887,16508.0,1234.0,5096.0,-853.0,-261.0,0.0
2887.0,2754.0,2887.0,3126.0,3055.0,0.724243,0.132935,-0.674927,0.047302,-45.0,-27.0,0.0,8385.0,664.0,2162.0,273.0,-390.0,1723.0,-1543.0,-846.0,312.0,0.990198,0.128703,0.053568,18064.0,2344.0,5362.0,-1010.0,-602.0,8.0
2869.0,2774.0,2897.0,3135.0,3039.0,0.723206,0.128845,-0.677185,0.043152,-47.0,-32.0,0.0,8650.0,805.0,2288.0,534.0,-242.0,1880.0,-1720.0,-753.0,591.0,0.990608,0.12792,0.049708,18924.0,2490.0,5230.0,-1058.0,-731.0,20.0
2871.0,2763.0,2897.0,3151.0,3014.0,0.719788,0.120117,-0.682861,0.034485,-50.0,-41.0,5.0,9036.0,1288.0,2340.0,915.0,257.0,2024.0,-1968.0,-301.0,1017.0,0.991315,0.125821,0.038556,18960.0,4320.0,4566.0,-1137.0,-930.0,133.0
2881.0,2769.0,2881.0,3135.0,3035.0,0.717468,0.115234,-0.68634,0.029968,-54.0,-46.0,9.0,9149.0,1607.0,2301.0,1024.0,589.0,2044.0,-2059.0,32.0,1152.0,0.991762,0.124217,0.031317,18908.0,5188.0,4264.0,-1217.0,-1031.0,221.0
2883.0,2758.0,2871.0,3115.0,3039.0,0.711914,0.104248,-0.694214,0.020325,-59.0,-50.0,14.0,9377.0,2201.0,2042.0,1244.0,1216.0,1923.0,-2059.0,704.0,1408.0,0.992679,0.120212,0.014434,19482.0,6006.0,3096.0,-1340.0,-1130.0,341.0
2886.0,2797.0,2887.0,3131.0,3037.0,0.708923,0.098267,-0.698242,0.015564,-60.0,-50.0,18.0,9473.0,2477.0,1867.0,1337.0,1513.0,1820.0,-2004.0,1035.0,1515.0,0.993059,0.117592,0.005616,19428.0,6630.0,2646.0,-1364.0,-1123.0,424.0
2907.0,2768.0,2885.0,3153.0,3031.0,0.702576,0.084839,-0.706482,0.006775,-64.0,-51.0,32.0,9430.0,3099.0,1523.0,1288.0,2200.0,1626.0,-1894.0,1816.0,1500.0,0.993864,0.109639,-0.012656,18326.0,8022.0,1972.0,-1457.0,-1161.0,743.0
2871.0,2756.0,2911.0,3127.0,3031.0,0.695129,0.067505,-0.715759,-0.000549,-72.0,-58.0,53.0,9186.0,3702.0,1209.0,1034.0,2926.0,1484.0,-1782.0,2660.0,1255.0,0.995016,0.094636,-0.033663,17544.0,9144.0,1414.0,-1632.0,-1310.0,1229.0
2851.0,2753.0,2902.0,3139.0,3035.0,0.690735,0.056824,-0.720825,-0.003601,-77.0,-61.0,65.0,9025.0,3916.0,1012.0,870.0,3230.0,1386.0,-1663.0,3031.0,1072.0,0.995389,0.083692,-0.04569,16998.0,8996.0,762.0,-1756.0,-1394.0,1495.0
2882.0,2766.0,2895.0,3151.0,3007.0,0.680603,0.031128,-0.731934,-0.00824,-86.0,-67.0,87.0,8744.0,3946.0,464.0,586.0,3500.0,1065.0,-1223.0,3427.0,695.0,0.995799,0.054433,-0.073407,16942.0,7112.0,-830.0,-1961.0,-1514.0,1993.0
2878.0,2781.0,2914.0,3139.0,3039.0,0.67511,0.016663,-0.737488,-0.00946,-85.0,-66.0,94.0,8619.0,3750.0,164.0,464.0,3451.0,887.0,-965.0,3423.0,509.0,0.995455,0.036452,-0.088303,16396.0,6238.0,-1534.0,-1945.0,-1509.0,2159.0
2879.0,2775.0,2896.0,3143.0,3053.0,0.663208,-0.013794,-0.74823,-0.010071,-84.0,-67.0,104.0,8126.0,3212.0,-490.0,-6.0,3238.0,493.0,-378.0,3252.0,-75.0,0.992742,-0.003226,-0.120092,14510.0,4680.0,-2858.0,-1920.0,-1516.0,2398.0
2879.0,2781.0,2905.0,3151.0,3035.0,0.649963,-0.046631,-0.758484,-0.009583,-90.0,-68.0,113.0,7489.0,2756.0,-1145.0,-595.0,3133.0,124.0,228.0,3093.0,-750.0,0.986867,-0.04608,-0.154928,13012.0,4008.0,-4476.0,-2055.0,-1555.0,2595.0
2883.0,2759.0,2881.0,3135.0,3051.0,0.642578,-0.064209,-0.763489,-0.009399,-95.0,-70.0,117.0,7179.0,2406.0,-1585.0,-868.0,2964.0,-159.0,626.0,2849.0,-1027.0,0.982409,-0.068166,-0.174043,12454.0,2498.0,-6036.0,-2169.0,-1587.0,2685.0
2871.0,2768.0,2876.0,3111.0,3023.0,0.626709,-0.100891,-0.772644,-0.008057,-92.0,-65.0,119.0,6696.0,1377.0,-2495.0,-1250.0,2310.0,-739.0,1340.0,1977.0,-1317.0,0.970072,-0.114009,-0.214329,11992.0,-472.0,-7820.0,-2085.0,-1475.0,2734.0
2864.0,2753.0,2898.0,3151.0,3031.0,0.611755,-0.135437,-0.779358,-0.005005,-79.0,-52.0,111.0,6257.0,427.0,-3306.0,-1565.0,1720.0,-1245.0,1895.0,1120.0,-1452.0,0.954908,-0.157907,-0.251472,11266.0,-1864.0,-8772.0,-1803.0,-1182.0,2558.0
2877.0,2771.0,2887.0,3139.0,2999.0,-0.002625,0.006409,0.370056,0.001343,-3651.0,-19862.0,-31958.0,-18511.0,-14911.0,-29834.0,-18527.0,-14918.0,-28711.0,2520.0,-2159.0,3882.0,0.00196,0.00096,-0.136974,10934.0,-2304.0,-10102.0,-1502.0,-729.0,2234.0
2879.0,2770.0,2895.0,3143.0,3047.0,0.594666,-0.179382,-0.783691,-0.000488,-63.0,-20.0,88.0,5807.0,-565.0,-4302.0,-1829.0,1176.0,-1904.0,2523.0,179.0,-1397.0,0.932244,-0.21258,-0.292723,11124.0,-2880.0,-10318.0,-1424.0,-454.0,2037.0
2892.0,2775.0,2911.0,3153.0,3039.0,0.588562,-0.203674,-0.78241,0.000244,-57.0,4.0,73.0,5524.0,-1225.0,-4841.0,-2019.0,742.0,-2324.0,2829.0,-519.0,-1323.0,0.920894,-0.240132,-0.307243,9942.0,-4776.0,-11182.0,-1300.0,109.0,1683.0
2882.0,2786.0,2891.0,3135.0,3023.0,0.585999,-0.223999,-0.778748,0.000671,-41.0,18.0,54.0,4794.0,-2452.0,-5220.0,-2680.0,-292.0,-2654.0,2891.0,-1893.0,-1536.0,0.912389,-0.263572,-0.313229,6590.0,-9090.0,-11506.0,-935.0,427.0,1241.0
2881.0,2766.0,2911.0,3143.0,3051.0,0.585205,-0.231567,-0.7771,0.00177,-27.0,16.0,39.0,4369.0,-3137.0,-5206.0,-3075.0,-894.0,-2625.0,2708.0,-2615.0,-1722.0,0.908706,-0.27378,-0.315039,6346.0,-10450.0,-9992.0,-618.0,371.0,903.0
2883.0,2783.0,2863.0,3135.0,3027.0,0.584473,-0.239624,-0.775208,0.005615,0.0,8.0,9.0,3906.0,-4351.0,-4911.0,-3495.0,-1985.0,-2316.0,2086.0,-3706.0,-1850.0,0.903484,-0.288813,-0.316727,7334.0,-11782.0,-8348.0,5.0,187.0,226.0
2864.0,2763.0,2877.0,3135.0,3051.0,0.242371,-0.287903,-0.280396,-1.21228,23535.0,32758.0,-8877.0,-14629.0,-24297.0,32549.0,-21460.0,-28722.0,21351.0,20672.0,1750.0,-4230.0,0.833957,0.540278,1.366857,9854.0,-10182.0,-6100.0,358.0,103.0,-150.0
2883.0,2769.0,2898.0,3135.0,3033.0,0.585449,-0.238953,-0.774597,0.012329,17.0,5.0,-11.0,4499.0,-4720.0,-3818.0,-2882.0,-2271.0,-1244.0,904.0,-3443.0,-1527.0,0.901082,-0.298889,-0.314196,10964.0,-8226.0,-5254.0,390.0,118.0,-245.0
2864.0,2775.0,2903.0,3135.0,3023.0,0.586975,-0.235413,-0.774536,0.013184,6.0,5.0,-19.0,5058.0,-4113.0,-3193.0,-2339.0,-1681.0,-648.0,474.0,-2549.0,-1412.0,0.90306,-0.296785,-0.310612,11662.0,-6710.0,-4868.0,160.0,135.0,-423.0
2883.0,2768.0,2896.0,3143.0,3047.0,0.588013,-0.230774,-0.775146,0.011658,7.0,3.0,-29.0,5472.0,-3859.0,-2893.0,-1951.0,-1487.0,-368.0,219.0,-2146.0,-1224.0,0.906211,-0.289469,-0.308214,12042.0,-7124.0,-5266.0,163.0,76.0,-649.0
2863.0,2772.0,2902.0,3119.0,3045.0,0.588379,-0.227417,-0.775879,0.010864,11.0,1.0,-34.0,5700.0,-3714.0,-2841.0,-1738.0,-1383.0,-322.0,180.0,-1955.0,-1085.0,0.90808,-0.284473,-0.307399,12902.0,-6346.0,-5448.0,271.0,38.0,-764.0
2864.0,2767.0,2873.0,3143.0,2998.0,0.5896,-0.218018,-0.77771,0.008301,16.0,6.0,-46.0,6077.0,-3234.0,-2980.0,-1406.0,-1022.0,-484.0,403.0,-1533.0,-860.0,0.913456,-0.269997,-0.304668,12448.0,-5288.0,-6728.0,378.0,139.0,-1033.0
2879.0,2775.0,2896.0,3111.0,3011.0,0.590637,-0.206177,-0.780151,0.004944,20.0,3.0,-54.0,5799.0,-2819.0,-3146.0,-1733.0,-760.0,-669.0,754.0,-1420.0,-1200.0,0.919534,-0.251265,-0.302268,10270.0,-4178.0,-6858.0,476.0,71.0,-1229.0
2883.0,2775.0,2899.0,3142.0,3043.0,0.590515,-0.199707,-0.781921,0.003174,20.0,-2.0,-57.0,5692.0,-2601.0,-3219.0,-1862.0,-628.0,-740.0,905.0,-1337.0,-1342.0,0.922205,-0.240823,-0.302566,11054.0,-4010.0,-6814.0,469.0,-45.0,-1290.0
2875.0,2769.0,2895.0,3135.0,3045.0,0.589844,-0.185974,-0.785828,-0.00116,18.0,-2.0,-61.0,5997.0,-2279.0,-3378.0,-1600.0,-496.0,-886.0,1051.0,-1123.0,-1106.0,0.927462,-0.217569,-0.304194,13428.0,-3842.0,-7428.0,421.0,-29.0,-1393.0
2879.0,2801.0,2896.0,3147.0,3039.0,0.590637,-0.171448,-0.788513,-0.006958,19.0,12.0,-68.0,6444.0,-2163.0,-3662.0,-1205.0,-593.0,-1185.0,1229.0,-1127.0,-653.0,0.933836,-0.191554,-0.302247,13962.0,-4042.0,-8162.0,436.0,283.0,-1541.0
2864.0,2768.0,2915.0,3135.0,3047.0,0.592224,-0.163208,-0.789062,-0.010071,24.0,21.0,-73.0,6519.0,-2117.0,-3822.0,-1164.0,-663.0,-1377.0,1389.0,-1201.0,-563.0,0.937891,-0.177418,-0.298426,13284.0,-3850.0,-8660.0,559.0,501.0,-1662.0
2883.0,2767.0,2879.0,3127.0,3047.0,0.597473,-0.143127,-0.788818,-0.015991,40.0,36.0,-87.0,6217.0,-1774.0,-4153.0,-1542.0,-579.0,-1814.0,1937.0,-1229.0,-858.0,0.947173,-0.145801,-0.28549,10878.0,-2352.0,-9166.0,922.0,828.0,-1970.0
2875.0,2774.0,2897.0,3139.0,3027.0,0.603638,-0.117432,-0.788269,-0.020508,61.0,36.0,-98.0,5569.0,-1163.0,-4393.0,-2266.0,-266.0,-2178.0,2558.0,-1001.0,-1549.0,0.956474,-0.109441,-0.270359,9644.0,-262.0,-9208.0,1412.0,829.0,-2242.0
2879.0,2768.0,2896.0,3135.0,3019.0,0.609741,-0.085632,-0.787659,-0.02301,82.0,37.0,-108.0,5571.0,-200.0,-4249.0,-2329.0,358.0,-2156.0,2683.0,-199.0,-1719.0,0.964477,-0.068179,-0.255425,11906.0,3250.0,-7728.0,1886.0,849.0,-2470.0
2879.0,2768.0,2896.0,3135.0,3039.0,0.61322,-0.067993,-0.786621,-0.02417,86.0,41.0,-111.0,5803.0,393.0,-4074.0,-2127.0,764.0,-2052.0,2584.0,342.0,-1587.0,0.968031,-0.045364,-0.246773,13156.0,4254.0,-7016.0,1976.0,943.0,-2539.0
2883.0,2770.0,2896.0,3135.0,3029.0,0.621887,-0.031067,-0.782043,-0.026367,92.0,54.0,-112.0,6266.0,1642.0,-3600.0,-1715.0,1620.0,-1755.0,2221.0,1447.0,-1271.0,0.974324,0.0026,-0.225118,13624.0,7030.0,-5800.0,2125.0,1245.0,-2550.0
2879.0,2769.0,2895.0,3135.0,3035.0,0.632141,0.007202,-0.774353,-0.0271,102.0,64.0,-105.0,6518.0,2855.0,-3012.0,-1498.0,2436.0,-1379.0,1707.0,2454.0,-1066.0,0.97861,0.051075,-0.199338,13506.0,9690.0,-4260.0,2343.0,1466.0,-2401.0
2879.0,2767.0,2894.0,3135.0,3035.0,0.637451,0.026245,-0.769592,-0.02655,103.0,65.0,-98.0,6716.0,3414.0,-2677.0,-1310.0,2805.0,-1154.0,1359.0,2885.0,-860.0,0.979761,0.074326,-0.185912,14994.0,9870.0,-3164.0,2377.0,1505.0,-2240.0
2874.0,2771.0,2903.0,3135.0,3031.0,0.648987,0.061951,-0.757935,-0.021912,112.0,73.0,-79.0,7452.0,3828.0,-1906.0,-584.0,2897.0,-622.0,511.0,2972.0,-146.0,0.981064,0.113626,-0.156639,17248.0,8198.0,-1584.0,2578.0,1689.0,-1803.0
2877.0,2769.0,2895.0,3135.0,3035.0,0.661682,0.096191,-0.74353,-0.011414,125.0,82.0,-65.0,8252.0,4033.0,-914.0,209.0,2851.0,102.0,-487.0,2753.0,603.0,0.981766,0.144269,-0.124137,18746.0,9216.0,1746.0,2865.0,1900.0,-1474.0
2881.0,2771.0,2896.0,3143.0,3038.0,0.668518,0.112305,-0.735168,-0.005249,119.0,85.0,-55.0,8563.0,4343.0,-261.0,520.0,3049.0,608.0,-1122.0,2795.0,927.0,0.981768,0.157873,-0.106141,18900.0,10638.0,3500.0,2735.0,1951.0,-1255.0
2886.0,2775.0,2896.0,3135.0,3026.0,0.682434,0.13623,-0.71814,0.006348,82.0,78.0,-20.0,9021.0,4620.0,1151.0,977.0,3171.0,1712.0,-2353.0,2536.0,1402.0,0.981895,0.17682,-0.068527,19096.0,9128.0,6334.0,1880.0,1803.0,-446.0
2878.0,2769.0,2891.0,3133.0,3027.0,0.689026,0.142639,-0.710449,0.01239,62.0,71.0,2.0,9130.0,4424.0,1706.0,1080.0,2957.0,2117.0,-2725.0,2181.0,1484.0,0.98257,0.178959,-0.050174,18846.0,7320.0,6564.0,1436.0,1636.0,58.0
2879.0,2770.0,2895.0,3134.0,3027.0,0.700806,0.147278,-0.69751,0.02594,46.0,61.0,26.0,9446.0,3352.0,2575.0,1374.0,1957.0,2709.0,-3065.0,979.0,1642.0,0.985278,0.17024,-0.016409,19872.0,2362.0,7030.0,1062.0,1411.0,617.0
2879.0,2771.0,2899.0,3143.0,3043.0,0.705994,0.147888,-0.691772,0.033813,45.0,56.0,31.0,9539.0,2506.0,2738.0,1455.0,1178.0,2744.0,-2891.0,194.0,1624.0,0.986775,0.162034,-0.00085,19446.0,-178.0,6274.0,1047.0,1296.0,713.0
2879.0,2779.0,2902.0,3135.0,3035.0,0.713074,0.150146,-0.683044,0.049133,54.0,30.0,10.0,9097.0,568.0,2936.0,996.0,-636.0,2757.0,-2408.0,-1514.0,951.0,0.988876,0.147011,0.021795,16188.0,-4722.0,6540.0,1242.0,709.0,233.0
2874.0,2771.0,2895.0,3135.0,3030.0,0.714355,0.154846,-0.680176,0.054993,64.0,12.0,-17.0,8877.0,-265.0,3074.0,776.0,-1464.0,2855.0,-2249.0,-2332.0,629.0,0.988805,0.146421,0.026711,16774.0,-5302.0,6816.0,1469.0,288.0,-385.0
2879.0,2771.0,2896.0,3135.0,3027.0,0.713867,0.169067,-0.676636,0.062378,59.0,-7.0,-32.0,8994.0,-265.0,3153.0,907.0,-1550.0,2931.0,-2207.0,-2530.0,731.0,0.987148,0.156969,0.027078,18550.0,2978.0,6124.0,1352.0,-147.0,-724.0
2870.0,2772.0,2894.0,3139.0,3035.0,0.713379,0.176697,-0.675232,0.0625,2.0,-9.0,-7.0,9019.0,1295.0,2761.0,945.0,-78.0,2550.0,-2298.0,-1071.0,983.0,0.98548,0.1677,0.025656,17912.0,6162.0,3886.0,57.0,-191.0,-144.0
