flex_1,flex_2,flex_3,flex_4,flex_5,Qw,Qx,Qy,Qz,GYRx,GYRy,GYRz,ACCx,ACCy,ACCz,ACCx_real,ACCy_real,ACCz_real,ACCx_world,ACCy_world,ACCz_world,GRAx,GRAy,GRAz,ACCx_raw,ACCy_raw,ACCz_raw,GYRx_raw,GYRy_raw,GYRz_raw
2831.0,2749.0,2815.0,3063.0,2967.0,1.0,0.0,0.0,0.0,0.0,0.0,0.0,0.0,0.0,0.0,0.0,0.0,0.0,0.0,0.0,0.0,0.0,0.0,0.0,0.0,0.0,0.0,0.0,0.0,0.0
2827.0,2757.0,2823.0,3087.0,2975.0,0.86731,0.004578,-0.49292,0.069214,9.0,-1.0,-19.0,6056.0,-2219.0,1692.0,-953.0,-1725.0,-2518.0,1885.0,-1626.0,-2005.0,0.855662,-0.060293,0.514025,14086.0,-1542.0,3934.0,211.0,-1.0,-424.0
2831.0,2758.0,2838.0,3071.0,2993.0,0.866455,0.007812,-0.494751,0.065857,2.0,-2.0,-19.0,6655.0,-1393.0,1774.0,-376.0,-970.0,-2405.0,1989.0,-812.0,-1499.0,0.858388,-0.051627,0.510242,14936.0,-742.0,3604.0,58.0,-39.0,-419.0
2815.0,2759.0,2847.0,3069.0,2971.0,0.865356,0.010559,-0.497192,0.062012,2.0,-4.0,-21.0,7029.0,-1059.0,1679.0,-30.0,-703.0,-2461.0,2182.0,-503.0,-1239.0,0.861807,-0.043389,0.505375,14870.0,-1674.0,2906.0,66.0,-71.0,-460.0
2829.0,2767.0,2831.0,3091.0,2995.0,0.864624,0.012207,-0.498596,0.06012,5.0,-5.0,-23.0,7099.0,-1038.0,1598.0,23.0,-719.0,-2518.0,2262.0,-507.0,-1217.0,0.863664,-0.038842,0.502442,14498.0,-2044.0,2732.0,125.0,-99.0,-510.0
2815.0,2758.0,2835.0,3089.0,2965.0,0.863037,0.016663,-0.501831,0.055725,10.0,-9.0,-31.0,6993.0,-1243.0,1423.0,-118.0,-1020.0,-2638.0,2337.0,-799.0,-1382.0,0.868055,-0.027168,0.495826,13330.0,-3538.0,2268.0,242.0,-192.0,-710.0
2831.0,2767.0,2845.0,3071.0,2991.0,0.862,0.019653,-0.503723,0.053162,14.0,-12.0,-37.0,6864.0,-1401.0,1353.0,-267.0,-1239.0,-2675.0,2325.0,-1016.0,-1523.0,0.870508,-0.019675,0.491746,12948.0,-3608.0,2338.0,326.0,-252.0,-843.0
2827.0,2757.0,2833.0,3098.0,2997.0,0.859924,0.026794,-0.507568,0.046204,10.0,-12.0,-48.0,6646.0,-1545.0,1378.0,-525.0,-1538.0,-2580.0,2157.0,-1316.0,-1705.0,0.875417,-0.000821,0.483261,12696.0,-3566.0,2964.0,247.0,-273.0,-1091.0
2815.0,2763.0,2859.0,3088.0,2987.0,0.858582,0.032104,-0.510315,0.036987,-4.0,-6.0,-50.0,6423.0,-1670.0,1514.0,-775.0,-1812.0,-2394.0,1897.0,-1604.0,-1854.0,0.878669,0.017378,0.477078,12142.0,-3466.0,3488.0,-78.0,-124.0,-1141.0
2827.0,2746.0,2832.0,3088.0,2961.0,0.858398,0.033447,-0.510925,0.031433,-13.0,-1.0,-52.0,6285.0,-1654.0,1573.0,-917.0,-1861.0,-2323.0,1760.0,-1663.0,-1958.0,0.879258,0.025302,0.475673,11720.0,-3218.0,3460.0,-289.0,-7.0,-1178.0
2823.0,2747.0,2830.0,3071.0,3007.0,0.858948,0.034973,-0.510559,0.018127,-20.0,7.0,-62.0,5838.0,-1806.0,1540.0,-1357.0,-2146.0,-2361.0,1562.0,-1947.0,-2405.0,0.878355,0.04157,0.476226,10006.0,-4122.0,2716.0,-450.0,168.0,-1399.0
2821.0,2770.0,2849.0,3095.0,2959.0,0.859497,0.038818,-0.509583,0.002625,-14.0,4.0,-75.0,5323.0,-1606.0,1454.0,-1854.0,-2130.0,-2458.0,1355.0,-1887.0,-2934.0,0.876173,0.064054,0.477561,9436.0,-2076.0,2774.0,-314.0,108.0,-1701.0
2827.0,2751.0,2837.0,3071.0,2967.0,0.859497,0.041809,-0.509338,-0.006104,-14.0,2.0,-81.0,5210.0,-1400.0,1433.0,-1958.0,-2039.0,-2479.0,1295.0,-1764.0,-3056.0,0.875039,0.078087,0.477599,9924.0,-1544.0,2750.0,-303.0,57.0,-1841.0
2839.0,2755.0,2831.0,3107.0,2992.0,0.858948,0.049133,-0.509033,-0.025452,-13.0,2.0,-91.0,5286.0,-874.0,1423.0,-1857.0,-1777.0,-2483.0,1296.0,-1446.0,-2999.0,0.871965,0.110317,0.47691,11034.0,110.0,2910.0,-296.0,50.0,-2083.0
2823.0,2779.0,2870.0,3099.0,2967.0,0.858582,0.053528,-0.508606,-0.036072,-14.0,3.0,-97.0,5381.0,-481.0,1450.0,-1741.0,-1534.0,-2456.0,1307.0,-1182.0,-2882.0,0.869498,0.128609,0.476918,11412.0,1602.0,3126.0,-304.0,88.0,-2204.0
2822.0,2763.0,2831.0,3095.0,3015.0,0.85791,0.06311,-0.506409,-0.059448,-21.0,10.0,-104.0,5759.0,662.0,1664.0,-1297.0,-718.0,-2260.0,1330.0,-383.0,-2321.0,0.861403,0.168496,0.479111,12860.0,5066.0,3964.0,-468.0,246.0,-2366.0
2815.0,2741.0,2855.0,3093.0,3011.0,0.857544,0.071899,-0.502258,-0.084778,-30.0,17.0,-103.0,6281.0,1823.0,1726.0,-675.0,115.0,-2248.0,1647.0,344.0,-1639.0,0.849226,0.208475,0.485136,14218.0,6880.0,3376.0,-667.0,411.0,-2355.0
2815.0,2751.0,2850.0,3071.0,2989.0,0.857239,0.076172,-0.499878,-0.097229,-28.0,19.0,-100.0,6563.0,2373.0,1705.0,-336.0,506.0,-2297.0,1886.0,648.0,-1290.0,0.842217,0.2278,0.488632,14838.0,8194.0,3312.0,-631.0,443.0,-2281.0
2827.0,2781.0,2831.0,3103.0,2979.0,0.855957,0.085632,-0.495422,-0.120667,-23.0,17.0,-92.0,7249.0,3947.0,1793.0,470.0,1766.0,-2257.0,2401.0,1612.0,-257.0,0.827455,0.266157,0.494447,16938.0,13302.0,4208.0,-526.0,410.0,-2093.0
2829.0,2758.0,2843.0,3091.0,2999.0,0.853943,0.095337,-0.491394,-0.14209,-21.0,16.0,-78.0,8192.0,5623.0,2085.0,1538.0,3145.0,-2001.0,2935.0,2489.0,1202.0,0.812152,0.302469,0.498851,19206.0,15806.0,5142.0,-478.0,386.0,-1783.0
2833.0,2785.0,2854.0,3061.0,2983.0,0.852783,0.099854,-0.489868,-0.151001,-17.0,14.0,-67.0,8598.0,6324.0,2223.0,2000.0,3716.0,-1873.0,3163.0,2803.0,1856.0,0.805347,0.318248,0.500099,19520.0,16756.0,5248.0,-376.0,327.0,-1512.0
2819.0,2759.0,2823.0,3095.0,2973.0,0.849915,0.107178,-0.489136,-0.16394,-12.0,2.0,-37.0,9200.0,7305.0,2414.0,2676.0,4498.0,-1669.0,3479.0,3162.0,2839.0,0.796306,0.342562,0.49849,19970.0,16696.0,5162.0,-262.0,52.0,-844.0
2833.0,2789.0,2861.0,3067.0,2999.0,0.848328,0.109253,-0.490051,-0.16803,-12.0,-4.0,-23.0,9412.0,7439.0,2423.0,2901.0,4571.0,-1638.0,3579.0,3099.0,3093.0,0.794733,0.350051,0.495807,20012.0,15214.0,4810.0,-271.0,-85.0,-524.0
2830.0,2767.0,2831.0,3071.0,2987.0,0.845276,0.110168,-0.493774,-0.172058,-11.0,-10.0,-2.0,9613.0,6945.0,2240.0,3085.0,4027.0,-1758.0,3665.0,2486.0,3034.0,0.79684,0.356161,0.488145,19392.0,11648.0,3728.0,-243.0,-216.0,-26.0
2823.0,2759.0,2851.0,3071.0,2983.0,0.842957,0.108032,-0.498108,-0.17218,-12.0,-8.0,11.0,9470.0,5904.0,1954.0,2895.0,3006.0,-1981.0,3573.0,1626.0,2434.0,0.802565,0.353662,0.480439,18126.0,8204.0,3054.0,-262.0,-163.0,253.0
2841.0,2747.0,2830.0,3088.0,2960.0,0.842285,0.106201,-0.499878,-0.171387,-12.0,-5.0,14.0,9267.0,5273.0,1813.0,2666.0,2403.0,-2099.0,3459.0,1170.0,1986.0,0.805677,0.350248,0.477661,17194.0,6762.0,2822.0,-263.0,-92.0,337.0
2805.0,2734.0,2845.0,3101.0,2991.0,0.841858,0.101868,-0.50238,-0.168701,-11.0,1.0,17.0,8680.0,4085.0,1595.0,2032.0,1291.0,-2291.0,3141.0,410.0,1002.0,0.811495,0.341021,0.474422,15440.0,4750.0,2652.0,-246.0,36.0,409.0
2832.0,2767.0,2837.0,3069.0,2991.0,0.84198,0.099731,-0.503235,-0.167114,-10.0,3.0,17.0,8346.0,3563.0,1546.0,1676.0,809.0,-2334.0,2935.0,107.0,530.0,0.814094,0.336139,0.473666,14668.0,4074.0,2888.0,-209.0,77.0,405.0
2832.0,2766.0,2823.0,3099.0,2995.0,0.842407,0.09613,-0.504272,-0.163818,-5.0,5.0,14.0,7748.0,2745.0,1543.0,1046.0,64.0,-2331.0,2523.0,-338.0,-225.0,0.81811,0.32718,0.472955,13908.0,3382.0,3198.0,-110.0,118.0,342.0
2825.0,2771.0,2847.0,3089.0,2975.0,0.84259,0.094971,-0.504639,-0.162231,-2.0,5.0,12.0,7518.0,2481.0,1573.0,803.0,-171.0,-2298.0,2346.0,-463.0,-483.0,0.819593,0.323779,0.472598,13746.0,3552.0,3382.0,-39.0,124.0,281.0
2823.0,2763.0,2847.0,3069.0,2983.0,0.842773,0.094238,-0.505249,-0.159851,3.0,6.0,4.0,7224.0,2271.0,1712.0,494.0,-353.0,-2151.0,2051.0,-514.0,-721.0,0.821493,0.320372,0.471662,13812.0,4368.0,3960.0,73.0,142.0,112.0
2823.0,2768.0,2836.0,3071.0,2967.0,0.842834,0.094543,-0.505371,-0.159058,3.0,6.0,2.0,7154.0,2302.0,1808.0,421.0,-320.0,-2053.0,1940.0,-454.0,-724.0,0.821813,0.320135,0.471331,13916.0,4878.0,4200.0,90.0,156.0,48.0
2827.0,2769.0,2859.0,3071.0,2983.0,0.842896,0.095581,-0.505432,-0.157959,3.0,6.0,1.0,7043.0,2464.0,1961.0,310.0,-164.0,-1896.0,1781.0,-262.0,-690.0,0.821857,0.320805,0.470827,13774.0,5680.0,4298.0,90.0,143.0,39.0
2827.0,2763.0,2830.0,3071.0,2990.0,0.842834,0.096008,-0.505615,-0.15741,2.0,4.0,3.0,7023.0,2656.0,2025.0,288.0,26.0,-1827.0,1743.0,-75.0,-614.0,0.822075,0.321016,0.470283,14018.0,6592.0,4428.0,62.0,105.0,76.0
2815.0,2753.0,2832.0,3091.0,2967.0,0.842529,0.096191,-0.506348,-0.156372,-2.0,3.0,5.0,7137.0,3004.0,2104.0,393.0,378.0,-1735.0,1767.0,217.0,-368.0,0.823142,0.320445,0.468667,14658.0,6752.0,4230.0,-25.0,71.0,137.0
2832.0,2766.0,2845.0,3087.0,2967.0,0.842346,0.096191,-0.506958,-0.155701,0.0,2.0,7.0,7193.0,3112.0,2091.0,441.0,491.0,-1739.0,1811.0,306.0,-292.0,0.824114,0.31992,0.467531,14726.0,6904.0,4116.0,11.0,50.0,170.0
2831.0,2778.0,2832.0,3071.0,2986.0,0.841614,0.096375,-0.508667,-0.153687,2.0,-1.0,9.0,7358.0,3377.0,2054.0,586.0,767.0,-1746.0,1924.0,517.0,-81.0,0.826579,0.318571,0.463903,15382.0,7554.0,3944.0,68.0,-5.0,224.0
2835.0,2763.0,2823.0,3071.0,2991.0,0.841187,0.096497,-0.509705,-0.152466,2.0,-1.0,10.0,7490.0,3484.0,2032.0,706.0,880.0,-1750.0,1997.0,584.0,56.0,0.828088,0.317768,0.46173,15780.0,7538.0,3936.0,63.0,-11.0,251.0
2831.0,2756.0,2843.0,3071.0,2983.0,0.840454,0.096497,-0.511841,-0.149597,4.0,0.0,13.0,7683.0,3515.0,1949.0,871.0,931.0,-1798.0,2116.0,583.0,195.0,0.831486,0.315342,0.45745,15706.0,6966.0,3552.0,112.0,13.0,303.0
2831.0,2756.0,2837.0,3095.0,2987.0,0.840027,0.09668,-0.513,-0.147705,7.0,-1.0,14.0,7712.0,3550.0,1920.0,885.0,977.0,-1806.0,2134.0,628.0,222.0,0.833308,0.313973,0.454945,15572.0,7374.0,3728.0,167.0,-9.0,342.0
2829.0,2761.0,2862.0,3061.0,2999.0,0.83905,0.096985,-0.515747,-0.143372,7.0,-3.0,19.0,7781.0,3692.0,1929.0,918.0,1147.0,-1750.0,2116.0,791.0,339.0,0.837666,0.310637,0.44916,15864.0,7804.0,4014.0,171.0,-62.0,442.0
2823.0,2749.0,2831.0,3103.0,2987.0,0.838562,0.096802,-0.517273,-0.14093,6.0,-4.0,22.0,7826.0,3707.0,1939.0,942.0,1182.0,-1715.0,2096.0,824.0,390.0,0.840246,0.308147,0.446106,15886.0,7382.0,3900.0,157.0,-71.0,505.0
2823.0,2750.0,2845.0,3071.0,2991.0,0.837708,0.096069,-0.520386,-0.134827,9.0,-4.0,28.0,7872.0,3722.0,1950.0,941.0,1253.0,-1653.0,2038.0,911.0,446.0,0.845957,0.30128,0.439902,15820.0,7606.0,3980.0,216.0,-84.0,644.0
2815.0,2768.0,2847.0,3103.0,2983.0,0.83728,0.095642,-0.522095,-0.131287,10.0,-5.0,31.0,7879.0,3752.0,1958.0,922.0,1316.0,-1618.0,2000.0,989.0,467.0,0.849166,0.297247,0.436544,15806.0,7706.0,3970.0,243.0,-95.0,713.0
2832.0,2763.0,2838.0,3109.0,2979.0,0.836365,0.094482,-0.525635,-0.123169,11.0,-5.0,37.0,7914.0,3799.0,1979.0,901.0,1443.0,-1539.0,1918.0,1142.0,525.0,0.85597,0.287527,0.429458,15948.0,7658.0,3996.0,268.0,-112.0,849.0
2815.0,2763.0,2846.0,3071.0,2975.0,0.835999,0.093689,-0.527466,-0.118652,11.0,-5.0,40.0,7930.0,3780.0,1972.0,887.0,1471.0,-1517.0,1886.0,1187.0,530.0,0.859688,0.281818,0.425974,15924.0,7402.0,3888.0,272.0,-98.0,917.0
2832.0,2773.0,2850.0,3091.0,2989.0,0.83551,0.091614,-0.530762,-0.108704,12.0,-3.0,45.0,7887.0,3768.0,2005.0,784.0,1568.0,-1433.0,1755.0,1339.0,499.0,0.866996,0.26848,0.419793,15564.0,7614.0,4216.0,287.0,-59.0,1041.0
2829.0,2789.0,2839.0,3071.0,2975.0,0.835327,0.090576,-0.532227,-0.103394,13.0,-3.0,47.0,7839.0,3784.0,2033.0,708.0,1642.0,-1383.0,1672.0,1446.0,468.0,0.870437,0.261379,0.416992,15388.0,7652.0,4248.0,298.0,-50.0,1082.0
2827.0,2768.0,2855.0,3089.0,2995.0,0.8349,0.08844,-0.535461,-0.091858,17.0,-5.0,52.0,7687.0,3707.0,2055.0,495.0,1691.0,-1311.0,1495.0,1577.0,311.0,0.877866,0.24605,0.410955,14872.0,7036.0,4088.0,404.0,-114.0,1197.0
2823.0,2755.0,2803.0,3071.0,2981.0,0.834412,0.087402,-0.537415,-0.085327,21.0,-8.0,55.0,7611.0,3613.0,2050.0,386.0,1666.0,-1284.0,1408.0,1594.0,213.0,0.881934,0.237571,0.40707,14772.0,6626.0,4042.0,482.0,-177.0,1277.0
2829.0,2771.0,2821.0,3071.0,2967.0,0.832886,0.085449,-0.542114,-0.070923,24.0,-12.0,61.0,7530.0,3447.0,2085.0,231.0,1651.0,-1171.0,1206.0,1638.0,102.0,0.890918,0.219235,0.397539,14814.0,6282.0,4232.0,560.0,-263.0,1410.0
2843.0,2767.0,2855.0,3063.0,2991.0,0.832031,0.084167,-0.544617,-0.063293,24.0,-12.0,63.0,7502.0,3316.0,2083.0,165.0,1603.0,-1133.0,1126.0,1615.0,38.0,0.895622,0.209001,0.392591,14868.0,5748.0,4180.0,553.0,-268.0,1456.0
2831.0,2768.0,2810.0,3063.0,2989.0,0.830444,0.080811,-0.549133,-0.047302,23.0,-10.0,68.0,7316.0,2802.0,2026.0,-92.0,1276.0,-1118.0,979.0,1360.0,-274.0,0.904404,0.186168,0.383798,13790.0,4064.0,3766.0,548.0,-227.0,1561.0
2831.0,2737.0,2841.0,3055.0,2955.0,0.829712,0.078674,-0.55127,-0.03894,21.0,-10.0,70.0,7169.0,2603.0,2001.0,-274.0,1181.0,-1110.0,889.0,1301.0,-465.0,0.908663,0.173487,0.37985,13462.0,4058.0,3904.0,502.0,-217.0,1606.0
2815.0,2751.0,2867.0,3071.0,2958.0,0.828247,0.072998,-0.555176,-0.022339,16.0,-10.0,72.0,6837.0,1916.0,1895.0,-670.0,722.0,-1160.0,782.0,904.0,-941.0,0.916384,0.145725,0.372943,12454.0,1230.0,3160.0,372.0,-210.0,1668.0
2823.0,2774.0,2847.0,3071.0,2987.0,0.827393,0.069702,-0.557068,-0.013733,18.0,-10.0,72.0,6636.0,1496.0,1827.0,-899.0,425.0,-1200.0,744.0,630.0,-1214.0,0.919913,0.130642,0.369584,12036.0,554.0,3238.0,434.0,-208.0,1657.0
2833.0,2783.0,2837.0,3071.0,2991.0,0.825378,0.064148,-0.560913,0.003235,22.0,-12.0,65.0,6246.0,697.0,1725.0,-1342.0,-140.0,-1244.0,664.0,86.0,-1708.0,0.926346,0.102264,0.362522,11496.0,-1092.0,3288.0,506.0,-254.0,1498.0
2815.0,2766.0,2843.0,3071.0,2987.0,0.82312,0.059204,-0.564453,0.018738,19.0,-12.0,55.0,5993.0,-167.0,1743.0,-1637.0,-792.0,-1171.0,570.0,-588.0,-2001.0,0.931444,0.076311,0.355765,11430.0,-2898.0,3652.0,458.0,-252.0,1277.0
2831.0,2733.0,2851.0,3071.0,2989.0,0.822083,0.05658,-0.565979,0.025696,16.0,-10.0,51.0,5919.0,-590.0,1767.0,-1727.0,-1113.0,-1124.0,542.0,-929.0,-2079.0,0.933471,0.06394,0.352946,11460.0,-3716.0,3666.0,374.0,-222.0,1191.0
2831.0,2759.0,2851.0,3047.0,2967.0,0.820374,0.049988,-0.56842,0.037598,3.0,-6.0,44.0,5857.0,-1299.0,1762.0,-1813.0,-1620.0,-1095.0,572.0,-1479.0,-2143.0,0.936393,0.039275,0.348826,11630.0,-4474.0,3358.0,69.0,-131.0,1016.0
2835.0,2767.0,2843.0,3095.0,2999.0,0.819763,0.045959,-0.569275,0.042053,-6.0,-3.0,38.0,5876.0,-1602.0,1702.0,-1801.0,-1827.0,-1145.0,658.0,-1701.0,-2136.0,0.937207,0.027472,0.347594,11896.0,-5066.0,2960.0,-127.0,-68.0,876.0
2829.0,2775.0,2835.0,3071.0,2967.0,0.819153,0.037354,-0.570374,0.047485,-15.0,3.0,20.0,6003.0,-2322.0,1489.0,-1681.0,-2379.0,-1349.0,962.0,-2265.0,-2060.0,0.937994,0.007028,0.346545,12394.0,-7046.0,2244.0,-323.0,74.0,467.0
2815.0,2747.0,2847.0,3071.0,2991.0,0.819031,0.033936,-0.570618,0.048889,-11.0,4.0,8.0,6018.0,-2686.0,1327.0,-1666.0,-2684.0,-1511.0,1153.0,-2565.0,-2085.0,0.938025,-0.000206,0.346445,12078.0,-7350.0,1656.0,-234.0,102.0,205.0
2823.0,2746.0,2807.0,3055.0,2975.0,0.818726,0.031433,-0.571167,0.049194,-1.0,1.0,-12.0,6112.0,-2752.0,1157.0,-1574.0,-2713.0,-1673.0,1336.0,-2584.0,-2042.0,0.938351,-0.004726,0.345512,12690.0,-4836.0,2010.0,-5.0,31.0,-268.0
2823.0,2755.0,2831.0,3067.0,2959.0,0.818054,0.032898,-0.572266,0.046692,1.0,-2.0,-23.0,6450.0,-2295.0,1177.0,-1245.0,-2298.0,-1631.0,1360.0,-2156.0,-1729.0,0.939361,0.000384,0.342823,14142.0,-2984.0,2620.0,41.0,-36.0,-505.0
2831.0,2765.0,2843.0,3071.0,2985.0,0.817749,0.034241,-0.572754,0.044739,1.0,-2.0,-26.0,6675.0,-2000.0,1257.0,-1023.0,-2038.0,-1540.0,1319.0,-1894.0,-1497.0,0.939802,0.004752,0.341496,14708.0,-2186.0,3016.0,37.0,-28.0,-576.0
2833.0,2773.0,2854.0,3098.0,2991.0,0.817444,0.037537,-0.573364,0.039673,-2.0,0.0,-30.0,7023.0,-1357.0,1452.0,-680.0,-1487.0,-1330.0,1172.0,-1350.0,-1114.0,0.940365,0.015874,0.339633,14880.0,-804.0,3570.0,-35.0,12.0,-669.0
2826.0,2766.0,2839.0,3067.0,2993.0,0.817444,0.039124,-0.573547,0.03656,-5.0,0.0,-31.0,7104.0,-1126.0,1517.0,-600.0,-1306.0,-1260.0,1110.0,-1174.0,-1020.0,0.940546,0.022025,0.339064,14552.0,-1046.0,3328.0,-93.0,8.0,-698.0
2813.0,2751.0,2851.0,3071.0,2983.0,0.816772,0.042542,-0.574585,0.03009,-1.0,-6.0,-35.0,7057.0,-952.0,1501.0,-653.0,-1238.0,-1252.0,1072.0,-1101.0,-1078.0,0.941171,0.034915,0.336065,13798.0,-1508.0,2798.0,-8.0,-129.0,-787.0
2830.0,2767.0,2823.0,3071.0,2971.0,0.815063,0.047852,-0.576965,0.02301,1.0,-13.0,-42.0,6969.0,-709.0,1493.0,-753.0,-1130.0,-1207.0,986.0,-984.0,-1165.0,0.942729,0.051452,0.329679,13890.0,-526.0,3066.0,45.0,-285.0,-944.0
2815.0,2772.0,2841.0,3071.0,2987.0,0.814026,0.050537,-0.578369,0.018799,-3.0,-14.0,-43.0,6975.0,-544.0,1512.0,-754.0,-1039.0,-1157.0,930.0,-891.0,-1151.0,0.943515,0.060532,0.325927,13976.0,-114.0,3140.0,-65.0,-303.0,-983.0
2831.0,2768.0,2841.0,3247.0,2983.0,0.812256,0.053589,-0.58075,0.00885,-19.0,-10.0,-41.0,6875.0,-370.0,1487.0,-861.0,-998.0,-1131.0,862.0,-840.0,-1251.0,0.944383,0.076776,0.319696,13242.0,-276.0,2836.0,-435.0,-227.0,-929.0
2821.0,2759.0,2833.0,3071.0,2985.0,0.811646,0.053528,-0.581604,0.003296,-29.0,-8.0,-39.0,6753.0,-300.0,1441.0,-984.0,-980.0,-1161.0,843.0,-812.0,-1379.0,0.944465,0.083057,0.317651,12710.0,-242.0,2566.0,-661.0,-161.0,-876.0
2827.0,2753.0,2833.0,3067.0,2979.0,0.811279,0.050842,-0.582336,-0.009155,-41.0,0.0,-39.0,6404.0,-349.0,1231.0,-1328.0,-1112.0,-1362.0,910.0,-909.0,-1788.0,0.943944,0.093157,0.316557,11668.0,-1106.0,1776.0,-917.0,9.0,-891.0
2823.0,2758.0,2835.0,3071.0,2975.0,0.811584,0.049438,-0.581726,-0.022217,-31.0,5.0,-49.0,5983.0,-365.0,985.0,-1734.0,-1234.0,-1622.0,1002.0,-976.0,-2280.0,0.942043,0.106095,0.318314,10830.0,-122.0,1326.0,-701.0,125.0,-1115.0
2831.0,2768.0,2837.0,3087.0,2997.0,0.811707,0.050659,-0.581116,-0.029297,-24.0,7.0,-58.0,5856.0,-186.0,895.0,-1847.0,-1138.0,-1722.0,1046.0,-850.0,-2419.0,0.940423,0.116291,0.319464,11066.0,816.0,1266.0,-542.0,162.0,-1322.0
2831.0,2768.0,2839.0,3089.0,2989.0,0.811829,0.057861,-0.579285,-0.044983,-9.0,9.0,-77.0,5775.0,368.0,772.0,-1887.0,-828.0,-1867.0,1147.0,-476.0,-2487.0,0.935354,0.146063,0.322171,11542.0,2870.0,1364.0,-199.0,222.0,-1762.0
2826.0,2763.0,2847.0,3091.0,2983.0,0.811768,0.063477,-0.578003,-0.053589,-6.0,10.0,-84.0,5823.0,768.0,814.0,-1808.0,-583.0,-1837.0,1138.0,-209.0,-2375.0,0.931605,0.165005,0.323722,12004.0,4044.0,1996.0,-117.0,248.0,-1912.0
2831.0,2762.0,2837.0,3071.0,2979.0,0.811829,0.074829,-0.574646,-0.071899,-12.0,13.0,-84.0,5961.0,1595.0,1013.0,-1594.0,-77.0,-1677.0,1055.0,312.0,-2036.0,0.922268,0.20413,0.328418,12296.0,5508.0,2648.0,-274.0,314.0,-1902.0
2831.0,2767.0,2843.0,3089.0,2991.0,0.811951,0.079651,-0.572571,-0.081116,-17.0,14.0,-80.0,6034.0,1969.0,1105.0,-1477.0,148.0,-1611.0,1035.0,532.0,-1855.0,0.916877,0.222234,0.331662,12522.0,6126.0,2742.0,-379.0,343.0,-1811.0
2829.0,2767.0,2847.0,3087.0,2991.0,0.812134,0.088379,-0.568115,-0.098999,-16.0,15.0,-75.0,6244.0,2564.0,1222.0,-1171.0,466.0,-1553.0,1096.0,803.0,-1466.0,0.905272,0.256037,0.338796,13248.0,6654.0,2668.0,-364.0,362.0,-1708.0
2833.0,2767.0,2839.0,3107.0,2991.0,0.811646,0.098755,-0.564087,-0.115417,-3.0,14.0,-76.0,6659.0,3190.0,1348.0,-655.0,810.0,-1471.0,1221.0,1012.0,-855.0,0.892881,0.290519,0.344143,14912.0,8584.0,3232.0,-67.0,329.0,-1727.0
2827.0,2770.0,2846.0,3071.0,2987.0,0.810974,0.105225,-0.562256,-0.123047,4.0,12.0,-77.0,6963.0,3615.0,1459.0,-295.0,1083.0,-1372.0,1275.0,1164.0,-400.0,0.886055,0.309037,0.345616,15804.0,9894.0,3638.0,95.0,297.0,-1746.0
2829.0,2759.0,2835.0,3071.0,2991.0,0.808594,0.119873,-0.559509,-0.137024,15.0,6.0,-73.0,7586.0,4528.0,1701.0,442.0,1683.0,-1126.0,1351.0,1459.0,581.0,0.87198,0.34719,0.345179,17080.0,11824.0,4156.0,349.0,150.0,-1659.0
2815.0,2769.0,2845.0,3089.0,2982.0,0.806824,0.127319,-0.558899,-0.143005,18.0,1.0,-66.0,7901.0,5001.0,1852.0,811.0,2008.0,-956.0,1345.0,1601.0,1107.0,0.865451,0.3653,0.342837,17696.0,12870.0,4656.0,418.0,37.0,-1507.0
2831.0,2766.0,2847.0,3099.0,2983.0,0.802856,0.139526,-0.559082,-0.152771,10.0,-7.0,-45.0,8595.0,5949.0,2191.0,1590.0,2714.0,-560.0,1290.0,1873.0,2243.0,0.855094,0.394862,0.335877,19466.0,14414.0,5380.0,243.0,-146.0,-1012.0
2831.0,2759.0,2835.0,3071.0,2986.0,0.801147,0.14325,-0.55957,-0.156555,2.0,-7.0,-32.0,8964.0,6206.0,2319.0,1986.0,2890.0,-406.0,1288.0,1835.0,2726.0,0.851744,0.404735,0.332707,20132.0,13586.0,5308.0,63.0,-155.0,-731.0
2831.0,2766.0,2839.0,3071.0,2975.0,0.799011,0.146301,-0.560547,-0.161011,-5.0,-2.0,-10.0,9491.0,6157.0,2369.0,2538.0,2763.0,-323.0,1373.0,1449.0,3192.0,0.848654,0.414301,0.328727,19916.0,11676.0,4634.0,-99.0,-41.0,-221.0
2830.0,2766.0,2835.0,3063.0,2983.0,0.581604,0.364319,0.141357,-1.21228,-2532.0,-31438.0,18494.0,5183.0,-13064.0,2859.0,13766.0,-13727.0,-10700.0,-27100.0,7285.0,32290.0,-1.047741,0.081049,1.655177,18118.0,9562.0,3880.0,-142.0,1.0,133.0
2823.0,2773.0,2850.0,3087.0,2983.0,0.798157,0.144836,-0.562073,-0.161377,-7.0,-2.0,11.0,9246.0,5339.0,2138.0,2278.0,1958.0,-534.0,1409.0,842.0,2571.0,0.850498,0.412616,0.326193,17264.0,8550.0,3748.0,-143.0,-30.0,257.0
2831.0,2770.0,2846.0,3091.0,2987.0,0.797729,0.141724,-0.564087,-0.159119,-6.0,-6.0,16.0,8755.0,4575.0,1963.0,1751.0,1252.0,-686.0,1313.0,445.0,1782.0,0.854876,0.405628,0.323411,16036.0,6790.0,3422.0,-115.0,-115.0,374.0
2827.0,2769.0,2850.0,3071.0,2987.0,0.797424,0.140015,-0.565308,-0.157776,-5.0,-6.0,16.0,8532.0,4195.0,1905.0,1508.0,904.0,-729.0,1242.0,238.0,1421.0,0.857398,0.401686,0.321602,15802.0,6114.0,3548.0,-97.0,-132.0,382.0
2829.0,2767.0,2835.0,3071.0,2993.0,0.79718,0.136414,-0.567383,-0.154785,-4.0,-3.0,16.0,8100.0,3484.0,1845.0,1035.0,263.0,-767.0,1069.0,-142.0,751.0,0.862383,0.393137,0.318923,14834.0,5062.0,3526.0,-90.0,-66.0,374.0
2831.0,2763.0,2843.0,3103.0,2992.0,0.797241,0.134644,-0.568115,-0.153259,-5.0,-2.0,16.0,7858.0,3216.0,1810.0,775.0,30.0,-796.0,994.0,-248.0,428.0,0.864579,0.388825,0.318198,14238.0,4952.0,3418.0,-104.0,-29.0,367.0
2835.0,2771.0,2833.0,3071.0,2995.0,0.797607,0.131104,-0.569153,-0.150696,-6.0,0.0,14.0,7385.0,2808.0,1739.0,271.0,-310.0,-864.0,873.0,-358.0,-157.0,0.868408,0.380676,0.317764,13504.0,4548.0,3330.0,-134.0,1.0,325.0
2829.0,2753.0,2839.0,3087.0,2975.0,0.797791,0.129578,-0.569519,-0.149536,-5.0,1.0,12.0,7205.0,2677.0,1709.0,78.0,-412.0,-893.0,832.0,-377.0,-371.0,0.869961,0.377079,0.317688,13288.0,4678.0,3250.0,-105.0,23.0,288.0
2819.0,2768.0,2847.0,3071.0,2993.0,0.797974,0.127625,-0.57019,-0.147583,-1.0,0.0,8.0,6943.0,2605.0,1653.0,-203.0,-442.0,-944.0,792.0,-297.0,-640.0,0.872323,0.371983,0.317137,13322.0,5248.0,3098.0,-5.0,16.0,190.0
2832.0,2780.0,2839.0,3071.0,2975.0,0.797913,0.127319,-0.570557,-0.14679,1.0,0.0,5.0,6879.0,2657.0,1629.0,-273.0,-379.0,-963.0,795.0,-212.0,-683.0,0.87313,0.370683,0.316467,13404.0,5700.0,3130.0,30.0,21.0,128.0
2829.0,2763.0,2843.0,3087.0,2981.0,0.797668,0.127502,-0.571045,-0.145996,1.0,1.0,1.0,6743.0,2836.0,1570.0,-415.0,-196.0,-1012.0,815.0,12.0,-754.0,0.873779,0.37015,0.315241,13040.0,6234.0,2950.0,27.0,24.0,38.0
2831.0,2763.0,2833.0,3071.0,2994.0,0.797424,0.127686,-0.57135,-0.145874,0.0,-1.0,1.0,6687.0,2939.0,1543.0,-472.0,-94.0,-1032.0,826.0,129.0,-771.0,0.873965,0.370329,0.31442,13096.0,6490.0,2938.0,1.0,-10.0,28.0
2831.0,2769.0,2835.0,3067.0,2975.0,0.796753,0.127686,-0.572388,-0.145996,-2.0,-3.0,0.0,6674.0,3026.0,1480.0,-492.0,-9.0,-1077.0,873.0,217.0,-769.0,0.87482,0.3706,0.312199,13342.0,6100.0,2710.0,-26.0,-51.0,21.0
2835.0,2754.0,2827.0,3063.0,2992.0,0.796265,0.127686,-0.572998,-0.145935,0.0,-4.0,1.0,6682.0,3017.0,1448.0,-488.0,-18.0,-1097.0,893.0,207.0,-774.0,0.875249,0.370584,0.310704,13440.0,5918.0,2704.0,5.0,-71.0,29.0
2836.0,2763.0,2835.0,3071.0,2999.0,0.795166,0.127991,-0.574646,-0.145264,3.0,-4.0,2.0,6808.0,3067.0,1433.0,-373.0,31.0,-1080.0,918.0,209.0,-646.0,0.876693,0.370498,0.306791,14140.0,6486.0,2928.0,84.0,-88.0,65.0
2822.0,2771.0,2847.0,3087.0,2973.0,0.794617,0.128235,-0.575439,-0.144775,3.0,-4.0,3.0,6917.0,3180.0,1455.0,-270.0,145.0,-1041.0,922.0,274.0,-500.0,0.877377,0.370414,0.304801,14520.0,7116.0,3060.0,72.0,-70.0,75.0
2827.0,2782.0,2834.0,3071.0,2991.0,0.793945,0.128235,-0.576477,-0.144226,-2.0,0.0,3.0,7138.0,3332.0,1460.0,-57.0,301.0,-1017.0,976.0,338.0,-246.0,0.878393,0.369909,0.30238,14780.0,6724.0,2742.0,-34.0,6.0,87.0
2831.0,2743.0,2869.0,3071.0,2955.0,0.793823,0.128052,-0.576843,-0.143921,-2.0,1.0,4.0,7216.0,3341.0,1444.0,15.0,315.0,-1027.0,1008.0,324.0,-180.0,0.878965,0.369341,0.301723,14848.0,6704.0,2810.0,-25.0,26.0,92.0
2827.0,2783.0,2854.0,3103.0,2983.0,0.793457,0.12793,-0.577576,-0.142822,2.0,0.0,5.0,7222.0,3327.0,1387.0,12.0,312.0,-1070.0,1047.0,325.0,-195.0,0.880021,0.367995,0.300013,14318.0,6750.0,2670.0,50.0,13.0,129.0
2815.0,2775.0,2859.0,3071.0,2957.0,0.793152,0.12793,-0.578247,-0.142029,3.0,-2.0,7.0,7240.0,3385.0,1418.0,23.0,376.0,-1027.0,1015.0,379.0,-148.0,0.880936,0.367191,0.298526,14686.0,7186.0,3106.0,74.0,-37.0,168.0
2813.0,2775.0,2837.0,3093.0,2987.0,0.79248,0.127625,-0.579773,-0.139893,3.0,-3.0,11.0,7473.0,3502.0,1541.0,237.0,516.0,-877.0,943.0,426.0,138.0,0.88321,0.364492,0.295171,15792.0,7380.0,3464.0,78.0,-52.0,261.0
2843.0,2733.0,2855.0,3107.0,2997.0,0.792297,0.127136,-0.580444,-0.138489,2.0,-2.0,14.0,7612.0,3591.0,1611.0,365.0,623.0,-796.0,909.0,477.0,314.0,0.884555,0.362229,0.293835,16050.0,7712.0,3618.0,52.0,-25.0,321.0
2803.0,2766.0,2845.0,3111.0,2951.0,0.79248,0.125244,-0.58136,-0.135132,0.0,2.0,20.0,7901.0,3660.0,1707.0,629.0,746.0,-690.0,891.0,497.0,621.0,0.887584,0.355628,0.292621,16618.0,7452.0,3618.0,2.0,66.0,461.0
2831.0,2775.0,2858.0,3063.0,2999.0,0.792908,0.124023,-0.581543,-0.132935,0.0,5.0,23.0,7998.0,3722.0,1749.0,713.0,844.0,-649.0,881.0,562.0,740.0,0.889246,0.351293,0.2928,16492.0,7920.0,3754.0,10.0,122.0,530.0
2821.0,2765.0,2842.0,3070.0,2975.0,0.794128,0.121155,-0.581604,-0.12793,-1.0,6.0,28.0,8079.0,3915.0,1861.0,765.0,1119.0,-547.0,814.0,810.0,903.0,0.892738,0.341234,0.294064,16288.0,8400.0,4176.0,-11.0,153.0,660.0
2829.0,2755.0,2846.0,3071.0,2975.0,0.794861,0.119324,-0.581604,-0.125122,-2.0,5.0,32.0,8057.0,4008.0,1922.0,727.0,1261.0,-494.0,759.0,961.0,927.0,0.894728,0.335235,0.294958,15880.0,8660.0,4194.0,-29.0,134.0,751.0
2815.0,2767.0,2847.0,3071.0,2999.0,0.796021,0.114563,-0.582397,-0.118591,-3.0,0.0,42.0,7979.0,4202.0,2034.0,605.0,1576.0,-385.0,632.0,1312.0,935.0,0.900028,0.320524,0.295401,15780.0,8880.0,4372.0,-64.0,11.0,975.0
2837.0,2764.0,2859.0,3095.0,2979.0,0.796387,0.111572,-0.583252,-0.114685,-3.0,-3.0,48.0,7965.0,4280.0,2085.0,564.0,1728.0,-329.0,570.0,1477.0,950.0,0.903397,0.31149,0.294753,15804.0,9092.0,4486.0,-63.0,-48.0,1111.0
2831.0,2782.0,2838.0,3058.0,3007.0,0.796936,0.104126,-0.58551,-0.105591,-6.0,-5.0,58.0,7984.0,4350.0,2167.0,519.0,1977.0,-229.0,461.0,1748.0,978.0,0.911239,0.289613,0.292592,16144.0,8478.0,4412.0,-135.0,-114.0,1348.0
2829.0,2750.0,2795.0,3055.0,2971.0,0.797241,0.099609,-0.586853,-0.100525,-7.0,-6.0,62.0,8017.0,4221.0,2150.0,515.0,1953.0,-236.0,460.0,1741.0,943.0,0.9157,0.276812,0.29138,16164.0,7470.0,4124.0,-154.0,-123.0,1436.0
2823.0,2774.0,2806.0,3069.0,3007.0,0.797729,0.089539,-0.5896,-0.089294,-8.0,-6.0,68.0,7919.0,3896.0,2014.0,343.0,1863.0,-351.0,503.0,1731.0,678.0,0.924691,0.248151,0.288701,15316.0,6892.0,3564.0,-183.0,-118.0,1577.0
2832.0,2751.0,2835.0,3071.0,2962.0,0.797974,0.083984,-0.590881,-0.083679,-11.0,-6.0,69.0,7808.0,3680.0,1908.0,197.0,1771.0,-447.0,545.0,1690.0,466.0,0.92896,0.232924,0.28757,14910.0,5864.0,3102.0,-243.0,-122.0,1591.0
2831.0,2757.0,2864.0,3067.0,2987.0,0.798035,0.072998,-0.593811,-0.072083,-5.0,-8.0,66.0,7466.0,2846.0,1637.0,-211.0,1190.0,-690.0,634.0,1228.0,-153.0,0.93724,0.202117,0.284115,13676.0,2812.0,2436.0,-109.0,-161.0,1516.0
2843.0,2764.0,2832.0,3095.0,3011.0,0.797729,0.068298,-0.59552,-0.065735,2.0,-10.0,65.0,7197.0,2435.0,1505.0,-512.0,900.0,-800.0,644.0,1003.0,-538.0,0.941149,0.18726,0.281385,12752.0,2598.0,2268.0,60.0,-212.0,1493.0
2813.0,2757.0,2835.0,3087.0,2995.0,0.796326,0.059998,-0.59967,-0.052124,8.0,-15.0,65.0,6935.0,1821.0,1437.0,-837.0,526.0,-804.0,548.0,675.0,-931.0,0.948811,0.15807,0.273647,13706.0,2050.0,2930.0,186.0,-335.0,1511.0
2823.0,2759.0,2847.0,3087.0,3003.0,0.79541,0.055298,-0.601807,-0.045227,3.0,-15.0,68.0,6947.0,1605.0,1467.0,-854.0,438.0,-740.0,482.0,576.0,-950.0,0.952364,0.142405,0.269494,14038.0,1948.0,3174.0,72.0,-340.0,1578.0
2819.0,2736.0,2835.0,3095.0,2959.0,0.79425,0.044373,-0.605103,-0.03186,-5.0,-9.0,70.0,6974.0,1103.0,1422.0,-877.0,209.0,-738.0,477.0,322.0,-1012.0,0.958379,0.109043,0.263731,13832.0,434.0,2512.0,-103.0,-193.0,1621.0
2819.0,2743.0,2843.0,3071.0,2977.0,0.793884,0.038269,-0.606323,-0.025269,-8.0,-6.0,71.0,6954.0,815.0,1373.0,-916.0,66.0,-771.0,501.0,168.0,-1075.0,0.960767,0.091404,0.261798,13772.0,4.0,2522.0,-166.0,-127.0,1635.0
2823.0,2766.0,2825.0,3071.0,2981.0,0.793701,0.025146,-0.607605,-0.012756,-13.0,0.0,69.0,6824.0,259.0,1256.0,-1072.0,-194.0,-876.0,567.0,-117.0,-1272.0,0.963872,0.055419,0.260308,13126.0,-1246.0,2116.0,-279.0,15.0,1594.0
2819.0,2751.0,2843.0,3071.0,2992.0,0.793823,0.018555,-0.607849,-0.006775,-12.0,2.0,67.0,6667.0,-22.0,1168.0,-1236.0,-330.0,-965.0,612.0,-268.0,-1456.0,0.964798,0.037695,0.260376,12248.0,-1668.0,1770.0,-272.0,60.0,1544.0
2827.0,2757.0,2830.0,3087.0,2975.0,0.793457,0.006653,-0.608521,0.004761,-7.0,-2.0,59.0,6279.0,-569.0,983.0,-1632.0,-608.0,-1140.0,687.0,-588.0,-1874.0,0.965733,0.004763,0.259255,11634.0,-2734.0,1598.0,-155.0,-38.0,1358.0
2819.0,2750.0,2831.0,3055.0,2967.0,0.792969,0.001526,-0.609192,0.010193,-5.0,-5.0,54.0,6232.0,-798.0,966.0,-1682.0,-716.0,-1145.0,685.0,-722.0,-1913.0,0.966171,-0.009999,0.257786,12406.0,-2946.0,1920.0,-97.0,-93.0,1249.0
2815.0,2733.0,2826.0,3071.0,2975.0,0.791809,-0.006836,-0.610352,0.019897,0.0,-3.0,42.0,6431.0,-1219.0,1039.0,-1484.0,-931.0,-1048.0,657.0,-975.0,-1668.0,0.966292,-0.035114,0.254782,13624.0,-3564.0,2404.0,8.0,-58.0,965.0
2827.0,2767.0,2853.0,3071.0,2975.0,0.791504,-0.01001,-0.610596,0.024048,2.0,0.0,35.0,6556.0,-1394.0,1088.0,-1358.0,-1023.0,-993.0,642.0,-1076.0,-1518.0,0.966096,-0.045213,0.254129,13834.0,-3774.0,2432.0,49.0,5.0,810.0
2833.0,2764.0,2851.0,3071.0,2983.0,0.791565,-0.014465,-0.610107,0.030762,5.0,5.0,20.0,6625.0,-1824.0,1161.0,-1280.0,-1328.0,-928.0,613.0,-1396.0,-1391.0,0.964989,-0.060436,0.255081,13224.0,-5288.0,2496.0,126.0,120.0,474.0
2815.0,2747.0,2829.0,3071.0,2963.0,0.791809,-0.015747,-0.60968,0.033386,8.0,6.0,12.0,6587.0,-2097.0,1202.0,-1313.0,-1559.0,-896.0,584.0,-1635.0,-1393.0,0.964449,-0.065647,0.256118,12840.0,-5732.0,2666.0,185.0,138.0,296.0
2831.0,2751.0,2832.0,3091.0,2975.0,0.792175,-0.016418,-0.608948,0.036682,7.0,2.0,-2.0,6355.0,-2403.0,1289.0,-1538.0,-1823.0,-822.0,470.0,-1921.0,-1565.0,0.963582,-0.070688,0.2578,12184.0,-5566.0,2938.0,176.0,47.0,-41.0
2815.0,2749.0,2815.0,3059.0,2987.0,0.791931,-0.015808,-0.609253,0.037598,6.0,-2.0,-10.0,6402.0,-2443.0,1384.0,-1493.0,-1862.0,-722.0,392.0,-1958.0,-1492.0,0.963784,-0.070851,0.257129,13146.0,-4314.0,2944.0,142.0,-45.0,-211.0
2831.0,2751.0,2835.0,3088.0,2975.0,0.791687,-0.015076,-0.609558,0.037292,4.0,-3.0,-13.0,6497.0,-2277.0,1416.0,-1400.0,-1709.0,-684.0,374.0,-1797.0,-1406.0,0.964034,-0.069334,0.256371,13642.0,-3480.0,3052.0,97.0,-66.0,-279.0
2827.0,2768.0,2833.0,3071.0,2975.0,0.791199,-0.013306,-0.610413,0.034912,-2.0,-3.0,-19.0,6739.0,-1899.0,1448.0,-1166.0,-1377.0,-636.0,374.0,-1442.0,-1199.0,0.964986,-0.063676,0.254434,14178.0,-2876.0,2864.0,-37.0,-52.0,-433.0
2818.0,2745.0,2827.0,3070.0,2987.0,0.791016,-0.012329,-0.610718,0.032837,-3.0,-2.0,-23.0,6823.0,-1811.0,1419.0,-1085.0,-1322.0,-658.0,411.0,-1377.0,-1135.0,0.965365,-0.059613,0.253656,14070.0,-3168.0,2636.0,-63.0,-27.0,-525.0
2807.0,2754.0,2847.0,3055.0,2983.0,0.79071,-0.009216,-0.611511,0.027954,0.0,-2.0,-32.0,6812.0,-1731.0,1281.0,-1105.0,-1331.0,-783.0,524.0,-1374.0,-1200.0,0.966541,-0.048763,0.251974,13368.0,-3378.0,2082.0,17.0,-36.0,-721.0
2835.0,2765.0,2807.0,3087.0,2965.0,0.789978,-0.003662,-0.612671,0.022217,6.0,-5.0,-41.0,6703.0,-1573.0,1181.0,-1225.0,-1302.0,-860.0,568.0,-1330.0,-1356.0,0.96783,-0.033009,0.24918,13106.0,-2412.0,2192.0,140.0,-109.0,-927.0
2826.0,2779.0,2819.0,3062.0,2982.0,0.789551,-0.000244,-0.613403,0.018738,4.0,-6.0,-44.0,6681.0,-1443.0,1162.0,-1253.0,-1251.0,-865.0,565.0,-1268.0,-1398.0,0.968617,-0.023373,0.247478,13318.0,-2086.0,2266.0,114.0,-129.0,-999.0
2833.0,2761.0,2819.0,3061.0,2970.0,0.788757,0.005859,-0.614624,0.010498,-5.0,-3.0,-46.0,6646.0,-1240.0,1129.0,-1297.0,-1210.0,-873.0,558.0,-1202.0,-1466.0,0.969701,-0.003661,0.244451,13076.0,-2128.0,2046.0,-97.0,-65.0,-1053.0
2835.0,2737.0,2834.0,3090.0,2999.0,0.788513,0.010376,-0.614929,0.00061,-10.0,3.0,-51.0,6487.0,-1268.0,983.0,-1457.0,-1395.0,-1011.0,644.0,-1360.0,-1680.0,0.969772,0.015613,0.243508,12254.0,-2618.0,1540.0,-224.0,71.0,-1152.0
2831.0,2747.0,2847.0,3071.0,2989.0,0.788696,0.013184,-0.614624,-0.004822,-8.0,5.0,-57.0,6335.0,-1201.0,943.0,-1606.0,-1419.0,-1056.0,643.0,-1364.0,-1852.0,0.969376,0.026723,0.244129,11724.0,-1802.0,1714.0,-177.0,131.0,-1283.0
2805.0,2736.0,2853.0,3046.0,2992.0,0.789368,0.020569,-0.613281,-0.017944,-10.0,8.0,-69.0,6158.0,-808.0,979.0,-1767.0,-1254.0,-1043.0,570.0,-1146.0,-2035.0,0.967471,0.054483,0.246886,12220.0,-574.0,2140.0,-222.0,203.0,-1570.0
2831.0,2751.0,2853.0,3071.0,2982.0,0.789917,0.024902,-0.612183,-0.025391,-9.0,11.0,-74.0,6168.0,-648.0,1006.0,-1744.0,-1224.0,-1035.0,555.0,-1089.0,-2028.0,0.965882,0.070429,0.249226,12414.0,-226.0,2188.0,-191.0,260.0,-1684.0
2829.0,2770.0,2875.0,3071.0,3013.0,0.790955,0.035156,-0.609436,-0.041199,-8.0,12.0,-79.0,6189.0,71.0,1117.0,-1684.0,-795.0,-969.0,491.0,-603.0,-1949.0,0.961176,0.10583,0.254658,12448.0,2682.0,2640.0,-173.0,285.0,-1802.0
2834.0,2761.0,2827.0,3067.0,2975.0,0.791748,0.044983,-0.606384,-0.058533,-19.0,12.0,-74.0,6423.0,1154.0,1398.0,-1399.0,-11.0,-736.0,349.0,195.0,-1529.0,0.954941,0.142217,0.260566,14030.0,5512.0,3846.0,-428.0,282.0,-1695.0
2811.0,2741.0,2826.0,3087.0,2995.0,0.792297,0.048462,-0.604431,-0.067505,-27.0,14.0,-68.0,6640.0,1617.0,1525.0,-1152.0,319.0,-642.0,334.0,502.0,-1215.0,0.951236,0.158397,0.264606,14610.0,5894.0,3740.0,-615.0,341.0,-1557.0
2835.0,2730.0,2847.0,3071.0,2979.0,0.79425,0.052917,-0.599365,-0.084351,-31.0,23.0,-56.0,7078.0,2333.0,1672.0,-648.0,816.0,-588.0,449.0,917.0,-622.0,0.943165,0.185173,0.27591,15336.0,6778.0,3656.0,-704.0,530.0,-1271.0
2830.0,2749.0,2835.0,3071.0,3003.0,0.795471,0.055237,-0.596375,-0.091858,-26.0,25.0,-53.0,7280.0,2714.0,1739.0,-409.0,1096.0,-575.0,528.0,1144.0,-329.0,0.93865,0.197442,0.282499,15806.0,7728.0,3946.0,-575.0,593.0,-1211.0
2837.0,2757.0,2827.0,3091.0,2967.0,0.797729,0.062988,-0.590515,-0.104858,-3.0,25.0,-54.0,7681.0,3437.0,1913.0,71.0,1599.0,-501.0,647.0,1522.0,277.0,0.928933,0.224336,0.294692,16466.0,8988.0,4434.0,-65.0,578.0,-1235.0
2832.0,2747.0,2823.0,3071.0,2961.0,0.798279,0.068726,-0.588135,-0.110046,9.0,20.0,-53.0,7862.0,3787.0,2037.0,293.0,1827.0,-410.0,647.0,1682.0,585.0,0.923865,0.239169,0.298734,16836.0,9688.0,4862.0,219.0,474.0,-1200.0
2818.0,2763.0,2803.0,3071.0,2971.0,0.798035,0.081726,-0.585327,-0.117554,23.0,8.0,-42.0,8378.0,4578.0,2376.0,882.0,2382.0,-92.0,559.0,2033.0,1417.0,0.915008,0.268055,0.301391,18566.0,11454.0,5894.0,530.0,204.0,-956.0
2819.0,2757.0,2823.0,3103.0,2975.0,0.797546,0.087585,-0.584656,-0.120117,21.0,5.0,-34.0,8705.0,4885.0,2561.0,1237.0,2589.0,95.0,495.0,2110.0,1881.0,0.911539,0.280161,0.301015,19408.0,11464.0,6228.0,489.0,125.0,-758.0
2821.0,2765.0,2837.0,3094.0,2993.0,0.796875,0.094971,-0.583801,-0.123291,7.0,3.0,-12.0,9207.0,5118.0,2830.0,1776.0,2698.0,369.0,390.0,2018.0,2518.0,0.907015,0.295314,0.300367,19486.0,10060.0,6116.0,162.0,86.0,-256.0
2838.0,2762.0,2819.0,3069.0,2955.0,0.796936,0.096008,-0.583435,-0.123901,-1.0,4.0,-1.0,9283.0,4956.0,2842.0,1859.0,2518.0,377.0,392.0,1815.0,2547.0,0.90613,0.297602,0.300844,18824.0,8738.0,5642.0,-11.0,94.0,-18.0
2832.0,2751.0,2843.0,3071.0,2991.0,0.797485,0.094421,-0.582947,-0.123535,-9.0,3.0,11.0,9074.0,4183.0,2654.0,1648.0,1769.0,175.0,464.0,1176.0,2067.0,0.906454,0.294628,0.302501,17122.0,5438.0,4526.0,-192.0,70.0,264.0
2829.0,2765.0,2832.0,3071.0,2999.0,0.797729,0.092712,-0.583008,-0.122742,-7.0,1.0,13.0,8873.0,3649.0,2515.0,1439.0,1264.0,33.0,496.0,766.0,1683.0,0.907406,0.291038,0.302944,16488.0,4042.0,4204.0,-159.0,32.0,305.0
2826.0,2751.0,2832.0,3088.0,2992.0,0.797852,0.090027,-0.583923,-0.120056,1.0,-2.0,11.0,8469.0,2662.0,2277.0,1013.0,336.0,-196.0,508.0,20.0,958.0,0.910152,0.283863,0.301909,15806.0,2672.0,3970.0,37.0,-41.0,262.0
2819.0,2747.0,2831.0,3063.0,2935.0,0.797668,0.089355,-0.584534,-0.118469,5.0,-3.0,8.0,8297.0,2320.0,2222.0,831.0,17.0,-240.0,470.0,-226.0,689.0,0.911356,0.281051,0.300646,15564.0,2822.0,4140.0,134.0,-54.0,204.0
2813.0,2748.0,2827.0,3071.0,2938.0,0.797302,0.088928,-0.585632,-0.116089,4.0,-2.0,4.0,8027.0,1958.0,2229.0,546.0,-317.0,-214.0,335.0,-460.0,346.0,0.913205,0.277776,0.298294,15390.0,3038.0,4664.0,100.0,-45.0,102.0
2831.0,2775.0,2850.0,3089.0,2979.0,0.797241,0.088684,-0.585876,-0.115234,2.0,-1.0,3.0,7920.0,1823.0,2260.0,434.0,-441.0,-179.0,260.0,-546.0,221.0,0.913731,0.276431,0.297756,15184.0,2888.0,4690.0,66.0,-15.0,81.0
2831.0,2763.0,2851.0,3067.0,2971.0,0.797485,0.087891,-0.585876,-0.114258,-2.0,1.0,2.0,7646.0,1769.0,2320.0,155.0,-476.0,-121.0,122.0,-499.0,-24.0,0.914371,0.274065,0.298062,14374.0,3552.0,4738.0,-32.0,23.0,59.0
2819.0,2755.0,2843.0,3059.0,2975.0,0.797607,0.08728,-0.585815,-0.114075,-4.0,0.0,2.0,7490.0,1739.0,2310.0,-2.0,-496.0,-134.0,87.0,-474.0,-177.0,0.914589,0.272884,0.298393,14018.0,3234.0,4466.0,-75.0,11.0,62.0
2825.0,2753.0,2781.0,3067.0,2979.0,0.797546,0.085938,-0.586182,-0.113708,-3.0,-3.0,3.0,7232.0,1753.0,2236.0,-267.0,-462.0,-205.0,81.0,-367.0,-430.0,0.91547,0.270386,0.298016,13940.0,3804.0,4276.0,-62.0,-62.0,83.0
2829.0,2749.0,2839.0,3111.0,2987.0,0.797363,0.085327,-0.586548,-0.113525,-3.0,-4.0,3.0,7193.0,1805.0,2204.0,-310.0,-400.0,-231.0,99.0,-296.0,-460.0,0.91601,0.26925,0.297357,14246.0,3932.0,4204.0,-62.0,-85.0,75.0
2826.0,2767.0,2839.0,3071.0,2975.0,0.796814,0.084412,-0.587463,-0.113403,-2.0,-4.0,1.0,7183.0,1925.0,2100.0,-329.0,-268.0,-321.0,191.0,-164.0,-468.0,0.917053,0.267761,0.295534,14376.0,4320.0,3948.0,-40.0,-78.0,39.0
2820.0,2755.0,2831.0,3071.0,2975.0,0.796509,0.084167,-0.587891,-0.113464,-3.0,-4.0,1.0,7203.0,2010.0,2057.0,-312.0,-181.0,-356.0,237.0,-86.0,-439.0,0.91742,0.26749,0.294601,14542.0,4510.0,3884.0,-49.0,-70.0,31.0
2819.0,2752.0,2835.0,3069.0,2959.0,0.796021,0.083557,-0.588562,-0.113586,-2.0,-2.0,1.0,7235.0,2069.0,1931.0,-285.0,-116.0,-470.0,359.0,-32.0,-430.0,0.918033,0.266732,0.293163,14454.0,4250.0,3436.0,-41.0,-27.0,34.0
2829.0,2755.0,2833.0,3071.0,2975.0,0.795837,0.083374,-0.588867,-0.113464,-2.0,-1.0,1.0,7223.0,2124.0,1865.0,-300.0,-57.0,-531.0,418.0,28.0,-446.0,0.918365,0.266335,0.292516,14334.0,4606.0,3338.0,-25.0,-18.0,39.0
2827.0,2755.0,2839.0,3071.0,2963.0,0.79541,0.083191,-0.589539,-0.113464,-1.0,-2.0,1.0,7211.0,2182.0,1763.0,-317.0,1.0,-621.0,505.0,88.0,-471.0,0.918972,0.266125,0.291075,14492.0,4358.0,3206.0,-16.0,-32.0,29.0
2827.0,2759.0,2835.0,3071.0,2975.0,0.795105,0.08313,-0.589966,-0.113342,0.0,-2.0,1.0,7246.0,2180.0,1720.0,-285.0,1.0,-656.0,548.0,79.0,-452.0,0.919325,0.26593,0.290068,14748.0,4400.0,3224.0,19.0,-41.0,28.0
2823.0,2743.0,2833.0,3071.0,2979.0,0.794434,0.08374,-0.59082,-0.112854,3.0,-2.0,0.0,7362.0,2278.0,1720.0,-173.0,95.0,-637.0,569.0,139.0,-317.0,0.919834,0.266405,0.28778,15068.0,4994.0,3534.0,84.0,-33.0,9.0
2827.0,2766.0,2845.0,3071.0,2981.0,0.794128,0.084229,-0.591309,-0.11261,4.0,-2.0,0.0,7415.0,2365.0,1741.0,-123.0,178.0,-606.0,560.0,205.0,-239.0,0.92018,0.266951,0.286581,15174.0,5232.0,3638.0,92.0,-42.0,16.0
2819.0,2766.0,2847.0,3089.0,2971.0,0.793457,0.084961,-0.592224,-0.111755,4.0,-3.0,3.0,7557.0,2493.0,1785.0,13.0,304.0,-542.0,546.0,289.0,-60.0,0.920819,0.267194,0.284116,15576.0,5350.0,3694.0,106.0,-50.0,82.0
2827.0,2754.0,2832.0,3063.0,2975.0,0.793091,0.085266,-0.592773,-0.111023,5.0,-3.0,5.0,7625.0,2582.0,1815.0,77.0,395.0,-500.0,530.0,359.0,35.0,0.921313,0.26687,0.282668,15644.0,5770.0,3838.0,116.0,-57.0,125.0
2825.0,2751.0,2832.0,3063.0,2975.0,0.792358,0.085449,-0.594055,-0.109192,4.0,-5.0,9.0,7729.0,2715.0,1834.0,169.0,542.0,-456.0,522.0,477.0,172.0,0.922749,0.265145,0.279552,15808.0,5640.0,3630.0,113.0,-97.0,219.0
2823.0,2768.0,2839.0,3087.0,2975.0,0.79187,0.085327,-0.594971,-0.107849,5.0,-6.0,12.0,7808.0,2739.0,1827.0,239.0,580.0,-445.0,531.0,495.0,250.0,0.923874,0.26347,0.277419,16126.0,5620.0,3626.0,136.0,-128.0,280.0
2828.0,2763.0,2847.0,3071.0,2975.0,0.79071,0.084839,-0.597229,-0.104187,8.0,-8.0,16.0,8038.0,2825.0,1840.0,445.0,706.0,-389.0,536.0,565.0,489.0,0.926792,0.258613,0.272198,16812.0,5926.0,3736.0,190.0,-169.0,389.0
2823.0,2755.0,2834.0,3067.0,2983.0,0.7901,0.084595,-0.59845,-0.10199,9.0,-8.0,18.0,8169.0,2865.0,1847.0,563.0,769.0,-359.0,539.0,598.0,622.0,0.928415,0.255748,0.269362,17118.0,5962.0,3754.0,224.0,-172.0,430.0
2826.0,2755.0,2838.0,3071.0,2979.0,0.788879,0.084167,-0.601013,-0.096497,14.0,-9.0,23.0,8312.0,2908.0,1863.0,676.0,869.0,-294.0,502.0,674.0,768.0,0.93201,0.248787,0.263341,16898.0,6002.0,3726.0,324.0,-188.0,534.0
2831.0,2749.0,2847.0,3091.0,2979.0,0.788147,0.083984,-0.602539,-0.09314,16.0,-10.0,26.0,8362.0,2973.0,1870.0,709.0,969.0,-257.0,474.0,767.0,832.0,0.934134,0.244625,0.259744,17042.0,6424.0,3834.0,378.0,-228.0,612.0
2831.0,2765.0,2843.0,3071.0,2989.0,0.786377,0.083618,-0.606079,-0.085449,18.0,-13.0,33.0,8451.0,3193.0,1906.0,759.0,1267.0,-153.0,380.0,1056.0,972.0,0.938923,0.235089,0.251366,16982.0,6968.0,3796.0,426.0,-296.0,761.0
2823.0,2758.0,2837.0,3069.0,2989.0,0.785278,0.083069,-0.608093,-0.081116,18.0,-15.0,37.0,8459.0,3272.0,1906.0,745.0,1395.0,-113.0,330.0,1190.0,993.0,0.941569,0.229116,0.246564,16984.0,6958.0,3858.0,426.0,-343.0,851.0
2833.0,2751.0,2837.0,3071.0,2975.0,0.782837,0.08136,-0.612793,-0.071106,21.0,-19.0,45.0,8435.0,3308.0,1869.0,670.0,1550.0,-62.0,238.0,1374.0,952.0,0.947864,0.214529,0.235755,16720.0,6702.0,3654.0,501.0,-422.0,1042.0
2827.0,2766.0,2854.0,3071.0,2975.0,0.781372,0.080383,-0.615356,-0.065308,24.0,-20.0,49.0,8367.0,3310.0,1837.0,575.0,1622.0,-44.0,182.0,1473.0,870.0,0.951145,0.205993,0.229682,16264.0,6586.0,3430.0,554.0,-454.0,1132.0
2830.0,2763.0,2843.0,3087.0,2983.0,0.778076,0.078064,-0.621094,-0.052185,28.0,-24.0,57.0,8159.0,3207.0,1728.0,308.0,1680.0,-43.0,84.0,1597.0,598.0,0.958369,0.186303,0.216274,15606.0,5840.0,3016.0,643.0,-530.0,1326.0
2823.0,2763.0,2837.0,3087.0,2991.0,0.776245,0.076599,-0.624146,-0.044678,30.0,-25.0,62.0,8034.0,3081.0,1641.0,152.0,1649.0,-72.0,59.0,1602.0,419.0,0.962135,0.17469,0.209128,15298.0,5354.0,2716.0,690.0,-551.0,1432.0
2806.0,2757.0,2837.0,3071.0,2997.0,0.772339,0.072632,-0.630371,-0.028503,28.0,-24.0,70.0,7737.0,2679.0,1397.0,-205.0,1465.0,-197.0,81.0,1489.0,-20.0,0.96958,0.148128,0.194677,14536.0,3784.0,2014.0,658.0,-537.0,1606.0
2819.0,2765.0,2846.0,3071.0,2975.0,0.770508,0.070007,-0.63324,-0.019958,28.0,-21.0,71.0,7571.0,2389.0,1253.0,-400.0,1298.0,-288.0,127.0,1355.0,-270.0,0.973038,0.133159,0.188187,14048.0,3008.0,1578.0,660.0,-463.0,1643.0
2833.0,2769.0,2843.0,3094.0,2967.0,0.767395,0.064636,-0.637939,-0.002563,28.0,-14.0,70.0,7030.0,1714.0,892.0,-988.0,874.0,-564.0,299.0,1006.0,-977.0,0.978772,0.102474,0.177757,12278.0,1192.0,742.0,655.0,-319.0,1609.0
2829.0,2762.0,2838.0,3071.0,2979.0,0.76593,0.062012,-0.639893,0.006104,29.0,-12.0,67.0,6735.0,1281.0,712.0,-1301.0,566.0,-708.0,407.0,725.0,-1349.0,0.980983,0.087182,0.173378,11726.0,-130.0,404.0,676.0,-263.0,1552.0
2823.0,2768.0,2843.0,3071.0,2990.0,0.763489,0.057251,-0.642822,0.023376,31.0,-6.0,62.0,6346.0,412.0,539.0,-1716.0,-57.0,-828.0,520.0,105.0,-1830.0,0.984252,0.057367,0.166963,11942.0,-1804.0,876.0,731.0,-127.0,1427.0
2832.0,2751.0,2834.0,3091.0,2992.0,0.762756,0.055115,-0.643555,0.031921,33.0,-2.0,58.0,6258.0,-19.0,553.0,-1813.0,-371.0,-803.0,522.0,-227.0,-1935.0,0.98527,0.042992,0.165616,12128.0,-2520.0,1238.0,761.0,-24.0,1350.0
2839.0,2757.0,2834.0,3071.0,2963.0,0.762329,0.051514,-0.643311,0.048035,31.0,7.0,50.0,6175.0,-719.0,732.0,-1900.0,-856.0,-635.0,420.0,-771.0,-1993.0,0.985778,0.016738,0.166951,12150.0,-3628.0,2170.0,711.0,172.0,1153.0
2815.0,2763.0,2843.0,3063.0,2967.0,0.762634,0.049988,-0.642517,0.055359,30.0,9.0,42.0,6109.0,-1240.0,876.0,-1964.0,-1281.0,-511.0,358.0,-1231.0,-2028.0,0.985546,0.005107,0.169349,11696.0,-5998.0,2536.0,708.0,227.0,974.0
2827.0,2758.0,2838.0,3071.0,2975.0,0.763245,0.049622,-0.640564,0.067993,38.0,7.0,13.0,5840.0,-2598.0,1117.0,-2225.0,-2504.0,-311.0,342.0,-2507.0,-2216.0,0.984562,-0.011361,0.174381,10784.0,-8398.0,3100.0,876.0,177.0,299.0
2826.0,2771.0,2837.0,3087.0,2951.0,0.763428,0.051697,-0.639709,0.07251,39.0,3.0,-3.0,5735.0,-2915.0,1276.0,-2327.0,-2801.0,-167.0,259.0,-2831.0,-2280.0,0.984241,-0.013837,0.176179,11016.0,-7332.0,3512.0,902.0,75.0,-49.0
2827.0,2768.0,2850.0,3126.0,2992.0,0.763367,0.058228,-0.638672,0.077209,31.0,-3.0,-19.0,5993.0,-2725.0,1649.0,-2068.0,-2645.0,195.0,-36.0,-2722.0,-1974.0,0.984073,-0.009725,0.177398,13526.0,-3582.0,4514.0,712.0,-67.0,-428.0
2815.0,2774.0,2829.0,3071.0,2991.0,0.763428,0.061462,-0.638245,0.077759,21.0,-3.0,-19.0,6317.0,-2241.0,1826.0,-1744.0,-2196.0,369.0,-225.0,-2294.0,-1638.0,0.984066,-0.005414,0.177735,14690.0,-1312.0,4644.0,494.0,-61.0,-424.0
2827.0,2767.0,2851.0,3071.0,2979.0,0.763977,0.064758,-0.63739,0.076538,-1.0,0.0,-10.0,7093.0,-1101.0,2015.0,-966.0,-1112.0,548.0,-476.0,-1230.0,-853.0,0.983816,0.001378,0.179059,16524.0,1006.0,4296.0,-14.0,11.0,-217.0
2833.0,2768.0,2847.0,3069.0,2951.0,0.764893,0.064148,-0.636658,0.073975,-13.0,3.0,-3.0,7708.0,-328.0,1952.0,-348.0,-360.0,468.0,-443.0,-454.0,-258.0,0.98344,0.00394,0.181085,16796.0,1066.0,3420.0,-283.0,78.0,-62.0
2827.0,2750.0,2855.0,3063.0,2989.0,0.76532,0.063232,-0.636414,0.072693,-13.0,2.0,-2.0,7838.0,-131.0,1836.0,-217.0,-165.0,345.0,-340.0,-233.0,-151.0,0.983313,0.004261,0.181978,16304.0,738.0,2934.0,-297.0,61.0,-41.0
2827.0,2753.0,2851.0,3115.0,2992.0,0.765259,0.06189,-0.636841,0.070435,-8.0,-4.0,-4.0,7908.0,-44.0,1569.0,-148.0,-85.0,84.0,-91.0,-103.0,-130.0,0.983414,0.005012,0.181185,15754.0,-300.0,2288.0,-183.0,-74.0,-88.0
2838.0,2772.0,2850.0,3057.0,2991.0,0.764832,0.061829,-0.637451,0.06958,-4.0,-7.0,-7.0,7858.0,-126.0,1436.0,-200.0,-174.0,-35.0,30.0,-170.0,-204.0,0.98369,0.005869,0.179642,15324.0,-808.0,2104.0,-88.0,-152.0,-138.0
2821.0,2749.0,2847.0,3091.0,2995.0,0.763184,0.063171,-0.639465,0.067932,2.0,-12.0,-14.0,7699.0,-402.0,1232.0,-367.0,-480.0,-194.0,212.0,-444.0,-399.0,0.984642,0.009542,0.174157,14812.0,-1886.0,1942.0,46.0,-258.0,-299.0
2813.0,2781.0,2818.0,3093.0,2981.0,0.762207,0.064453,-0.640625,0.066956,3.0,-13.0,-17.0,7576.0,-606.0,1147.0,-494.0,-708.0,-252.0,290.0,-659.0,-538.0,0.985209,0.012466,0.170888,14426.0,-2402.0,1798.0,83.0,-289.0,-382.0
2837.0,2758.0,2867.0,3119.0,2974.0,0.760315,0.067078,-0.642944,0.063965,-3.0,-12.0,-21.0,7400.0,-850.0,1071.0,-679.0,-1011.0,-274.0,338.0,-950.0,-734.0,0.986262,0.019749,0.164293,14430.0,-2440.0,1970.0,-48.0,-272.0,-476.0
2815.0,2759.0,2829.0,3103.0,2967.0,0.759644,0.067749,-0.64386,0.06189,-8.0,-10.0,-22.0,7340.0,-981.0,1029.0,-742.0,-1171.0,-296.0,378.0,-1102.0,-807.0,0.986594,0.023234,0.161743,14268.0,-2756.0,1766.0,-165.0,-207.0,-486.0
2838.0,2757.0,2833.0,3095.0,2978.0,0.759155,0.068115,-0.644897,0.05658,-15.0,-3.0,-26.0,7084.0,-1222.0,866.0,-1000.0,-1471.0,-436.0,517.0,-1369.0,-1100.0,0.986862,0.030444,0.158986,13202.0,-3286.0,1154.0,-328.0,-54.0,-583.0
2825.0,2765.0,2829.0,3095.0,2993.0,0.759155,0.069336,-0.645203,0.050232,-8.0,-1.0,-36.0,6642.0,-1654.0,581.0,-1440.0,-1985.0,-711.0,786.0,-1815.0,-1613.0,0.986584,0.040454,0.157746,11896.0,-4562.0,338.0,-171.0,-5.0,-817.0
2825.0,2734.0,2823.0,3091.0,2961.0,0.759094,0.071655,-0.645264,0.047058,1.0,-1.0,-45.0,6395.0,-1792.0,466.0,-1685.0,-2185.0,-819.0,880.0,-1978.0,-1895.0,0.986376,0.048056,0.156939,11288.0,-4214.0,344.0,24.0,-21.0,-1009.0
2829.0,2747.0,2855.0,3089.0,2960.0,0.75885,0.080566,-0.645081,0.038879,7.0,-3.0,-62.0,6053.0,-1479.0,523.0,-2018.0,-2069.0,-744.0,728.0,-1816.0,-2252.0,0.985304,0.072115,0.154745,11548.0,-1548.0,1666.0,166.0,-61.0,-1419.0
2827.0,2749.0,2849.0,3071.0,2975.0,0.758911,0.08551,-0.644653,0.033447,1.0,-2.0,-66.0,5996.0,-1234.0,627.0,-2066.0,-1943.0,-636.0,587.0,-1677.0,-2299.0,0.984189,0.086666,0.154175,11672.0,-1022.0,1884.0,24.0,-35.0,-1490.0
2807.0,2772.0,2831.0,3095.0,2973.0,0.759949,0.092957,-0.642944,0.020752,-17.0,4.0,-62.0,5851.0,-760.0,756.0,-2185.0,-1698.0,-521.0,387.0,-1387.0,-2419.0,0.981068,0.1146,0.155934,11066.0,-234.0,1516.0,-384.0,109.0,-1412.0
2818.0,2743.0,2865.0,3043.0,2999.0,0.760803,0.095703,-0.641724,0.013794,-20.0,7.0,-62.0,5695.0,-634.0,671.0,-2325.0,-1681.0,-623.0,439.0,-1311.0,-2589.0,0.979091,0.127919,0.158044,10340.0,-676.0,650.0,-452.0,176.0,-1419.0
2815.0,2755.0,2834.0,3091.0,2983.0,0.761902,0.104675,-0.63916,0.000183,2.0,6.0,-80.0,5148.0,-301.0,353.0,-2830.0,-1605.0,-966.0,638.0,-1037.0,-3167.0,0.973993,0.159271,0.161012,8558.0,1518.0,-6.0,63.0,158.0,-1813.0
2837.0,2763.0,2864.0,3071.0,2991.0,0.761841,0.112915,-0.637817,-0.007202,14.0,3.0,-92.0,5002.0,278.0,338.0,-2945.0,-1206.0,-980.0,565.0,-559.0,-3233.0,0.970204,0.181234,0.160892,9574.0,4398.0,814.0,322.0,70.0,-2099.0
2835.0,2771.0,2859.0,3071.0,2975.0,0.76123,0.133057,-0.634216,-0.024597,14.0,3.0,-105.0,5441.0,1815.0,667.0,-2415.0,-100.0,-644.0,169.0,512.0,-2442.0,0.959024,0.233773,0.160142,12752.0,8458.0,2460.0,343.0,89.0,-2389.0
2823.0,2775.0,2829.0,3063.0,2999.0,0.35498,0.161865,0.054321,-1.21228,-20948.0,2691.0,-14746.0,-9884.0,32280.0,-11341.0,-6353.0,32417.0,-24173.0,-20123.0,32545.0,29864.0,-0.431018,-0.016787,1.566483,15058.0,11590.0,3528.0,80.0,248.0,-2132.0
2831.0,2767.0,2827.0,3093.0,2975.0,0.761902,0.159729,-0.625549,-0.05188,1.0,13.0,-82.0,6653.0,4151.0,1282.0,-1019.0,1625.0,-80.0,-334.0,1831.0,-466.0,0.936641,0.308302,0.166361,15764.0,12324.0,3494.0,23.0,304.0,-1872.0
2830.0,2764.0,2843.0,3071.0,2963.0,0.762878,0.172241,-0.619629,-0.065857,-3.0,12.0,-57.0,7508.0,5499.0,1538.0,-50.0,2677.0,123.0,-432.0,2488.0,897.0,0.922716,0.344412,0.172714,17738.0,15110.0,3894.0,-50.0,296.0,-1288.0
2829.0,2753.0,2879.0,3071.0,2967.0,0.763428,0.177063,-0.617004,-0.071716,-6.0,12.0,-47.0,7965.0,6127.0,1625.0,455.0,3187.0,183.0,-420.0,2771.0,1592.0,0.91668,0.358848,0.175919,18674.0,15832.0,3660.0,-126.0,279.0,-1071.0
2833.0,2775.0,2837.0,3091.0,2974.0,0.764221,0.183716,-0.612793,-0.081726,-10.0,9.0,-33.0,8809.0,6733.0,1624.0,1382.0,3612.0,137.0,-168.0,2811.0,2653.0,0.90659,0.380961,0.181446,19970.0,14214.0,3026.0,-226.0,210.0,-741.0
2828.0,2758.0,2847.0,3089.0,2967.0,0.764343,0.187927,-0.610413,-0.088257,-5.0,4.0,-20.0,9348.0,6535.0,1523.0,1975.0,3298.0,14.0,147.0,2291.0,3082.0,0.899958,0.395028,0.18409,19834.0,11612.0,2730.0,-95.0,99.0,-440.0
2831.0,2755.0,2834.0,3071.0,2943.0,0.764099,0.189453,-0.610046,-0.089966,0.0,1.0,-13.0,9486.0,6260.0,1491.0,2128.0,2989.0,-15.0,244.0,1944.0,3102.0,0.898183,0.399289,0.183892,19710.0,10890.0,2884.0,8.0,29.0,-286.0
2829.0,2750.0,2832.0,3071.0,2995.0,0.763306,0.191162,-0.610352,-0.091187,1.0,-3.0,-2.0,9547.0,5626.0,1527.0,2199.0,2323.0,37.0,269.0,1288.0,2915.0,0.896907,0.403142,0.181879,18992.0,9066.0,3232.0,26.0,-68.0,-38.0
2835.0,2763.0,2850.0,3071.0,2979.0,0.762939,0.19104,-0.610779,-0.091187,-2.0,-5.0,3.0,9475.0,5255.0,1564.0,2125.0,1954.0,82.0,240.0,972.0,2708.0,0.897134,0.402894,0.180845,18426.0,8292.0,3388.0,-25.0,-93.0,82.0
2831.0,2775.0,2846.0,3067.0,2982.0,0.762817,0.188171,-0.611938,-0.090393,-11.0,-4.0,13.0,9208.0,4510.0,1652.0,1838.0,1251.0,175.0,146.0,434.0,2182.0,0.899576,0.397711,0.180184,17400.0,6796.0,3470.0,-234.0,-78.0,302.0
2832.0,2761.0,2815.0,3063.0,2991.0,0.763184,0.185486,-0.612366,-0.089905,-16.0,-2.0,16.0,9011.0,4112.0,1657.0,1627.0,890.0,173.0,132.0,191.0,1847.0,0.901343,0.393229,0.181135,16800.0,5760.0,3268.0,-360.0,-36.0,378.0
2829.0,2747.0,2826.0,3095.0,2981.0,0.764587,0.178894,-0.612854,-0.088684,-18.0,1.0,17.0,8428.0,3237.0,1567.0,1010.0,105.0,52.0,176.0,-270.0,964.0,0.905431,0.382261,0.184866,14756.0,3740.0,2738.0,-396.0,42.0,408.0
2819.0,2743.0,2843.0,3071.0,2995.0,0.765198,0.175964,-0.613037,-0.087708,-13.0,1.0,16.0,8034.0,2832.0,1484.0,601.0,-254.0,-43.0,202.0,-437.0,441.0,0.907322,0.376831,0.186442,13654.0,3448.0,2478.0,-276.0,30.0,388.0
2827.0,2759.0,2832.0,3091.0,2999.0,0.765564,0.172302,-0.613953,-0.085449,-3.0,-3.0,12.0,7471.0,2543.0,1480.0,11.0,-477.0,-49.0,88.0,-437.0,-175.0,0.910594,0.36874,0.186764,13844.0,4658.0,3158.0,-67.0,-59.0,287.0
2823.0,2763.0,2857.0,3088.0,2970.0,0.765625,0.171021,-0.614319,-0.084534,-3.0,-2.0,10.0,7385.0,2493.0,1528.0,-84.0,-503.0,-1.0,22.0,-437.0,-260.0,0.911762,0.365736,0.186692,14408.0,4722.0,3348.0,-51.0,-44.0,240.0
2822.0,2714.0,2853.0,3071.0,2939.0,0.766357,0.168762,-0.614197,-0.083008,-6.0,4.0,8.0,7284.0,2550.0,1583.0,-198.0,-404.0,39.0,-51.0,-315.0,-319.0,0.913371,0.360631,0.188476,14134.0,5410.0,3212.0,-117.0,97.0,200.0
2831.0,2747.0,2843.0,3062.0,2993.0,0.76709,0.16748,-0.613708,-0.082642,-9.0,6.0,8.0,7137.0,2592.0,1528.0,-349.0,-343.0,-33.0,-22.0,-197.0,-448.0,0.913857,0.358381,0.190569,13326.0,5400.0,2644.0,-194.0,145.0,195.0
2818.0,2753.0,2839.0,3088.0,2991.0,0.768433,0.164307,-0.612976,-0.082458,-11.0,4.0,8.0,6849.0,2515.0,1339.0,-646.0,-381.0,-254.0,122.0,-104.0,-775.0,0.914965,0.353607,0.194552,12890.0,4500.0,1978.0,-248.0,97.0,192.0
2814.0,2736.0,2843.0,3063.0,2983.0,0.768738,0.162903,-0.612976,-0.082275,-8.0,1.0,7.0,6752.0,2462.0,1241.0,-748.0,-416.0,-360.0,203.0,-90.0,-901.0,0.91563,0.351325,0.19545,13026.0,4730.0,1976.0,-178.0,45.0,172.0
2823.0,2743.0,2829.0,3093.0,2943.0,0.768738,0.161499,-0.613342,-0.08197,-2.0,-1.0,2.0,6742.0,2469.0,1142.0,-766.0,-388.0,-458.0,292.0,-46.0,-926.0,0.916523,0.348852,0.195406,13810.0,4998.0,2110.0,-45.0,-22.0,48.0
2833.0,2771.0,2821.0,3071.0,2970.0,0.768555,0.161499,-0.613586,-0.081909,0.0,-1.0,-1.0,6831.0,2506.0,1130.0,-678.0,-351.0,-465.0,317.0,-39.0,-834.0,0.916693,0.348758,0.194815,14260.0,5280.0,2250.0,17.0,-21.0,-7.0
2831.0,2759.0,2847.0,3071.0,3003.0,0.76825,0.16217,-0.61377,-0.08197,1.0,1.0,-2.0,7057.0,2706.0,1152.0,-450.0,-159.0,-436.0,329.0,62.0,-552.0,0.91647,0.349796,0.193914,14814.0,6130.0,2374.0,29.0,25.0,-39.0
2819.0,2722.0,2839.0,3071.0,3007.0,0.768311,0.162415,-0.613647,-0.082092,-1.0,2.0,-2.0,7168.0,2789.0,1165.0,-338.0,-80.0,-425.0,339.0,98.0,-420.0,0.916278,0.350321,0.194099,14942.0,5986.0,2418.0,-4.0,61.0,-32.0
2823.0,2714.0,2841.0,3103.0,2979.0,0.768616,0.162476,-0.61322,-0.082214,-2.0,3.0,1.0,7203.0,2945.0,1162.0,-300.0,72.0,-436.0,347.0,229.0,-334.0,0.915946,0.350594,0.195092,14296.0,6494.0,2312.0,-43.0,74.0,25.0
2843.0,2736.0,2853.0,3095.0,2998.0,0.768677,0.162292,-0.613159,-0.082397,-4.0,1.0,2.0,7195.0,3072.0,1162.0,-308.0,200.0,-438.0,337.0,352.0,-297.0,0.915897,0.350546,0.19535,14386.0,6904.0,2386.0,-83.0,25.0,54.0
2822.0,2761.0,2832.0,3093.0,2992.0,0.768372,0.161438,-0.61377,-0.082642,-3.0,-4.0,4.0,7320.0,3172.0,1175.0,-188.0,308.0,-417.0,338.0,410.0,-145.0,0.916523,0.349535,0.194449,15198.0,6540.0,2352.0,-62.0,-75.0,96.0
2810.0,2735.0,2851.0,3071.0,2989.0,0.767944,0.161133,-0.61438,-0.082397,0.0,-5.0,4.0,7433.0,3238.0,1184.0,-79.0,381.0,-397.0,339.0,439.0,-16.0,0.917065,0.348729,0.193101,15574.0,6948.0,2476.0,1.0,-104.0,110.0
2823.0,2771.0,2822.0,3071.0,2987.0,0.766968,0.161133,-0.615784,-0.081421,3.0,-6.0,6.0,7704.0,3399.0,1237.0,181.0,552.0,-317.0,308.0,504.0,297.0,0.918333,0.347443,0.189716,16200.0,7352.0,2658.0,91.0,-115.0,145.0
2815.0,2775.0,2822.0,3095.0,2975.0,0.766418,0.161194,-0.616516,-0.080688,4.0,-5.0,7.0,7820.0,3521.0,1271.0,291.0,681.0,-267.0,274.0,582.0,453.0,0.919006,0.346575,0.187832,16276.0,7830.0,2758.0,103.0,-109.0,180.0
2832.0,2751.0,2831.0,3063.0,2987.0,0.765625,0.160645,-0.61792,-0.078674,2.0,-5.0,14.0,7973.0,3717.0,1348.0,428.0,905.0,-165.0,185.0,735.0,674.0,0.920913,0.343216,0.18474,16194.0,7902.0,2886.0,58.0,-99.0,326.0
2835.0,2759.0,2837.0,3071.0,2975.0,0.76532,0.159729,-0.618713,-0.077209,1.0,-6.0,19.0,8001.0,3805.0,1375.0,445.0,1019.0,-127.0,141.0,833.0,733.0,0.922362,0.340029,0.183356,16156.0,8210.0,2896.0,36.0,-119.0,450.0
2823.0,2749.0,2863.0,3089.0,2993.0,0.764587,0.156555,-0.62085,-0.073242,-1.0,-7.0,29.0,8117.0,4003.0,1444.0,527.0,1296.0,-30.0,37.0,1061.0,910.0,0.926455,0.330345,0.179995,16626.0,8444.0,3078.0,-15.0,-155.0,685.0
2827.0,2755.0,2833.0,3095.0,3007.0,0.764343,0.154358,-0.62207,-0.070679,-1.0,-7.0,34.0,8174.0,4043.0,1454.0,562.0,1389.0,-7.0,11.0,1141.0,970.0,0.929131,0.323899,0.178418,16690.0,8270.0,2934.0,-10.0,-148.0,782.0
2833.0,2757.0,2835.0,3071.0,2983.0,0.763855,0.149353,-0.624573,-0.064331,0.0,-7.0,41.0,8225.0,4102.0,1471.0,565.0,1574.0,35.0,-53.0,1324.0,1020.0,0.93495,0.308527,0.175215,16528.0,8424.0,3074.0,20.0,-146.0,945.0
2831.0,2741.0,2831.0,3059.0,2963.0,0.763611,0.146545,-0.625854,-0.06073,0.0,-7.0,44.0,8249.0,4112.0,1503.0,564.0,1655.0,80.0,-109.0,1404.0,1039.0,0.938019,0.299824,0.17362,16634.0,8284.0,3180.0,22.0,-143.0,1023.0
2833.0,2768.0,2837.0,3071.0,2978.0,0.763367,0.140259,-0.628357,-0.052551,0.0,-6.0,52.0,8226.0,4183.0,1589.0,487.0,1887.0,188.0,-264.0,1649.0,1020.0,0.944592,0.28018,0.170985,16096.0,8540.0,3340.0,20.0,-117.0,1194.0
2832.0,2751.0,2832.0,3071.0,2987.0,0.763306,0.136597,-0.629639,-0.048035,-1.0,-6.0,56.0,8111.0,4159.0,1592.0,344.0,1955.0,200.0,-318.0,1759.0,886.0,0.948091,0.269019,0.169839,15450.0,8056.0,3196.0,-8.0,-137.0,1294.0
2820.0,2753.0,2843.0,3090.0,2987.0,0.762573,0.127991,-0.632996,-0.037842,-1.0,-11.0,65.0,7797.0,3955.0,1519.0,-32.0,1963.0,160.0,-367.0,1876.0,473.0,0.955724,0.243112,0.165885,14652.0,7174.0,2738.0,-9.0,-249.0,1507.0
2821.0,2739.0,2832.0,3056.0,2979.0,0.761841,0.12323,-0.635071,-0.032166,0.0,-13.0,69.0,7637.0,3777.0,1419.0,-225.0,1904.0,84.0,-329.0,1876.0,233.0,0.959718,0.228618,0.162935,14304.0,6350.0,2130.0,8.0,-295.0,1581.0
2815.0,2749.0,2832.0,3071.0,2967.0,0.759827,0.11377,-0.639832,-0.019409,7.0,-14.0,71.0,7313.0,3235.0,1047.0,-616.0,1615.0,-225.0,-78.0,1713.0,-311.0,0.967906,0.197727,0.155385,13650.0,4832.0,878.0,175.0,-304.0,1646.0
2833.0,2768.0,2867.0,3088.0,2983.0,0.758606,0.109619,-0.64209,-0.01239,12.0,-12.0,71.0,7140.0,2998.0,847.0,-818.0,1505.0,-392.0,56.0,1657.0,-579.0,0.97147,0.182227,0.151341,13206.0,4616.0,502.0,282.0,-263.0,1627.0
2827.0,2765.0,2845.0,3071.0,2993.0,0.75647,0.102722,-0.645874,0.002319,21.0,-6.0,66.0,6745.0,2407.0,440.0,-1263.0,1158.0,-744.0,359.0,1414.0,-1165.0,0.977645,0.152416,0.144547,12404.0,2716.0,-190.0,483.0,-119.0,1534.0
2831.0,2751.0,2829.0,3069.0,2971.0,0.755493,0.099792,-0.6474,0.010132,24.0,-3.0,66.0,6521.0,2079.0,234.0,-1509.0,951.0,-927.0,523.0,1255.0,-1479.0,0.980235,0.137666,0.141787,11700.0,2148.0,-544.0,557.0,-57.0,1520.0
2763.0,2755.0,2833.0,3071.0,2991.0,0.754211,0.095337,-0.649109,0.026611,31.0,4.0,62.0,6223.0,1317.0,107.0,-1839.0,421.0,-1032.0,649.0,750.0,-1907.0,0.984205,0.109261,0.139112,11966.0,-10.0,212.0,713.0,100.0,1435.0
2823.0,2758.0,2843.0,3071.0,2979.0,0.753967,0.093018,-0.649292,0.035095,30.0,8.0,61.0,6211.0,834.0,157.0,-1863.0,58.0,-985.0,660.0,366.0,-1968.0,0.985619,0.09469,0.139466,12474.0,-1334.0,738.0,708.0,191.0,1412.0
2819.0,2759.0,2834.0,3071.0,2983.0,0.755066,0.087585,-0.647705,0.051819,26.0,21.0,55.0,6369.0,-349.0,493.0,-1718.0,-882.0,-699.0,579.0,-663.0,-1855.0,0.987197,0.065139,0.145617,13274.0,-4616.0,2270.0,604.0,495.0,1270.0
2830.0,2761.0,2839.0,3071.0,2981.0,0.756531,0.084717,-0.64563,0.059875,27.0,27.0,49.0,6352.0,-1212.0,763.0,-1733.0,-1628.0,-481.0,514.0,-1461.0,-1866.0,0.987023,0.050867,0.151909,12438.0,-8190.0,3400.0,624.0,640.0,1123.0
2823.0,2755.0,2833.0,3071.0,2989.0,0.759888,0.081909,-0.640503,0.074829,38.0,23.0,12.0,5857.0,-3625.0,1142.0,-2217.0,-3859.0,-218.0,680.0,-3735.0,-2331.0,0.985679,0.028627,0.166076,9846.0,-13262.0,3454.0,891.0,541.0,286.0
2827.0,2757.0,2842.0,3071.0,2983.0,0.760864,0.083252,-0.63855,0.079712,38.0,13.0,-9.0,5598.0,-4135.0,1415.0,-2470.0,-4338.0,17.0,546.0,-4263.0,-2537.0,0.984972,0.024887,0.170592,9826.0,-10404.0,4556.0,880.0,307.0,-190.0
2826.0,2767.0,2839.0,3089.0,2989.0,0.761597,0.089111,-0.636658,0.082092,20.0,-7.0,-32.0,5789.0,-3806.0,2042.0,-2275.0,-4061.0,620.0,-23.0,-4117.0,-2258.0,0.984384,0.031204,0.173495,13588.0,-5104.0,5928.0,472.0,-146.0,-726.0
2825.0,2751.0,2837.0,3071.0,2983.0,0.761475,0.091858,-0.636536,0.080811,9.0,-10.0,-31.0,6294.0,-3144.0,2313.0,-1769.0,-3447.0,897.0,-341.0,-3572.0,-1713.0,0.984258,0.037017,0.172758,15822.0,-1828.0,6116.0,221.0,-224.0,-707.0
2827.0,2755.0,2839.0,3099.0,2975.0,0.761658,0.093689,-0.636658,0.075623,-19.0,-8.0,-16.0,7412.0,-1384.0,2615.0,-648.0,-1764.0,1208.0,-856.0,-1998.0,-512.0,0.984001,0.046426,0.171731,18022.0,2282.0,5702.0,-421.0,-167.0,-355.0
2829.0,2751.0,2832.0,3071.0,2979.0,0.762329,0.089417,-0.637207,0.069275,-35.0,-4.0,-2.0,8237.0,-198.0,2447.0,176.0,-591.0,1038.0,-834.0,-810.0,323.0,0.983912,0.048045,0.171917,18340.0,2232.0,3950.0,-796.0,-72.0,-23.0
2825.0,2765.0,2849.0,3087.0,2983.0,0.762573,0.086304,-0.637634,0.066467,-35.0,-3.0,1.0,8409.0,116.0,2224.0,348.0,-267.0,815.0,-664.0,-440.0,470.0,0.983958,0.046862,0.17191,17584.0,1882.0,3004.0,-796.0,-61.0,44.0
2823.0,2769.0,2847.0,3071.0,2981.0,0.762146,0.080811,-0.639343,0.061829,-26.0,-9.0,0.0,8328.0,285.0,1682.0,262.0,-76.0,294.0,-222.0,-136.0,304.0,0.984539,0.044119,0.169399,16038.0,434.0,1694.0,-589.0,-192.0,16.0
2827.0,2763.0,2841.0,3071.0,2979.0,0.76123,0.079041,-0.640808,0.06012,-18.0,-14.0,-3.0,8192.0,163.0,1409.0,121.0,-191.0,47.0,12.0,-197.0,118.0,0.985109,0.043286,0.166204,15516.0,-588.0,1174.0,-409.0,-299.0,-49.0
2830.0,2751.0,2831.0,3069.0,2991.0,0.758362,0.078613,-0.64447,0.057617,-3.0,-19.0,-11.0,8003.0,-59.0,1062.0,-78.0,-427.0,-223.0,283.0,-374.0,-131.0,0.986542,0.044969,0.15691,15588.0,-428.0,1470.0,-59.0,-420.0,-244.0
2829.0,2763.0,2835.0,3087.0,2979.0,0.756897,0.079407,-0.64624,0.056335,-2.0,-18.0,-13.0,7943.0,-111.0,999.0,-144.0,-499.0,-247.0,310.0,-439.0,-203.0,0.987221,0.047393,0.152135,15534.0,-536.0,1726.0,-39.0,-408.0,-297.0
2830.0,2773.0,2843.0,3071.0,2983.0,0.754517,0.080017,-0.64917,0.053406,-9.0,-14.0,-11.0,7836.0,-188.0,955.0,-259.0,-609.0,-227.0,293.0,-548.0,-320.0,0.988166,0.05141,0.144323,15306.0,-488.0,1784.0,-197.0,-302.0,-242.0
2826.0,2755.0,2839.0,3071.0,2979.0,0.753845,0.079468,-0.650208,0.051636,-14.0,-10.0,-10.0,7756.0,-253.0,916.0,-341.0,-684.0,-246.0,312.0,-617.0,-408.0,0.988518,0.052665,0.141864,14990.0,-966.0,1500.0,-311.0,-213.0,-221.0
2831.0,2761.0,2832.0,3071.0,2975.0,0.753174,0.077698,-0.651489,0.047913,-14.0,-3.0,-13.0,7379.0,-558.0,686.0,-721.0,-1005.0,-453.0,509.0,-886.0,-830.0,0.988815,0.054611,0.139091,13196.0,-2074.0,514.0,-319.0,-64.0,-279.0
2831.0,2769.0,2839.0,3088.0,2979.0,0.752869,0.077515,-0.651917,0.046082,-9.0,-3.0,-17.0,7098.0,-715.0,542.0,-1001.0,-1178.0,-587.0,626.0,-1023.0,-1137.0,0.988759,0.056634,0.137931,12464.0,-2388.0,242.0,-206.0,-59.0,-383.0
2830.0,2763.0,2847.0,3071.0,2987.0,0.752014,0.080444,-0.652893,0.042114,3.0,-6.0,-31.0,6574.0,-782.0,368.0,-1525.0,-1322.0,-734.0,718.0,-1107.0,-1693.0,0.988745,0.065998,0.134558,11834.0,-980.0,598.0,73.0,-129.0,-702.0
2831.0,2765.0,2839.0,3071.0,2983.0,0.025208,-1.21228,-1.006653,0.722534,17566.0,-2332.0,13765.0,4371.0,26135.0,-15624.0,18306.0,-26984.0,434.0,-1315.0,5587.0,8911.0,-1.701077,-1.515799,-1.960282,12586.0,50.0,1464.0,-41.0,-113.0,-930.0
2827.0,2763.0,2847.0,3071.0,2971.0,0.751221,0.088745,-0.65332,0.031494,-10.0,-2.0,-41.0,6373.0,-285.0,573.0,-1713.0,-1040.0,-497.0,407.0,-817.0,-1851.0,0.987165,0.092183,0.130621,12624.0,578.0,1648.0,-216.0,-35.0,-925.0
2827.0,2768.0,2845.0,3071.0,2967.0,0.752563,0.090698,-0.651855,0.021362,-28.0,7.0,-37.0,6213.0,-7.0,660.0,-1856.0,-897.0,-434.0,282.0,-650.0,-1983.0,0.985,0.108662,0.133666,11658.0,464.0,1262.0,-639.0,174.0,-841.0
2830.0,2763.0,2847.0,3088.0,2983.0,0.753784,0.090454,-0.650696,0.015869,-32.0,11.0,-37.0,6044.0,-15.0,613.0,-2015.0,-962.0,-508.0,325.0,-677.0,-2163.0,0.983839,0.115714,0.136855,10982.0,-132.0,882.0,-729.0,266.0,-828.0
2835.0,2758.0,2849.0,3095.0,2991.0,0.756653,0.091064,-0.6474,0.004333,-28.0,15.0,-45.0,5641.0,241.0,538.0,-2391.0,-841.0,-650.0,354.0,-467.0,-2549.0,0.980503,0.132197,0.145123,10258.0,1704.0,994.0,-625.0,362.0,-1010.0
2831.0,2761.0,2842.0,3071.0,2983.0,0.758179,0.092896,-0.645386,-0.002075,-23.0,16.0,-53.0,5511.0,423.0,543.0,-2502.0,-752.0,-683.0,338.0,-336.0,-2657.0,0.97825,0.143541,0.149687,10276.0,1864.0,1134.0,-521.0,389.0,-1204.0
2831.0,2747.0,2847.0,3071.0,2973.0,0.760986,0.100403,-0.640747,-0.015564,-9.0,17.0,-68.0,5378.0,878.0,680.0,-2585.0,-537.0,-620.0,201.0,-49.0,-2703.0,0.972074,0.172755,0.158705,10512.0,3590.0,1996.0,-195.0,391.0,-1540.0
2815.0,2747.0,2832.0,3087.0,3003.0,0.762146,0.105835,-0.638245,-0.022644,-5.0,15.0,-72.0,5370.0,1270.0,803.0,-2560.0,-288.0,-530.0,75.0,223.0,-2619.0,0.968078,0.190228,0.162822,10788.0,5048.0,2390.0,-95.0,353.0,-1642.0
2829.0,2751.0,2819.0,3071.0,2992.0,0.763733,0.117859,-0.633545,-0.037842,-6.0,10.0,-75.0,5743.0,2235.0,1117.0,-2111.0,367.0,-271.0,-179.0,828.0,-1986.0,0.958798,0.227974,0.16945,13322.0,7260.0,3200.0,-123.0,232.0,-1700.0
2832.0,2747.0,2826.0,3088.0,2989.0,0.764893,0.129272,-0.628845,-0.05304,-6.0,12.0,-71.0,6510.0,2921.0,1346.0,-1258.0,754.0,-93.0,-226.0,1043.0,-1009.0,0.948285,0.264466,0.175716,15370.0,7718.0,3286.0,-119.0,281.0,-1625.0
2826.0,2767.0,2839.0,3067.0,2991.0,0.765503,0.134888,-0.626282,-0.060059,-4.0,13.0,-68.0,6880.0,3300.0,1455.0,-842.0,991.0,-12.0,-240.0,1169.0,-516.0,0.942639,0.281741,0.179178,15908.0,9000.0,3586.0,-74.0,318.0,-1557.0
2834.0,2751.0,2835.0,3071.0,2991.0,0.766663,0.145081,-0.621094,-0.073364,-7.0,12.0,-58.0,7581.0,4102.0,1684.0,-46.0,1533.0,157.0,-266.0,1444.0,467.0,0.931051,0.313588,0.186348,17436.0,10350.0,4066.0,-146.0,287.0,-1312.0
2827.0,2758.0,2832.0,3087.0,2991.0,0.767151,0.149231,-0.618774,-0.079102,-7.0,11.0,-51.0,7958.0,4410.0,1771.0,374.0,1732.0,217.0,-237.0,1490.0,953.0,0.925778,0.326857,0.189626,18148.0,10582.0,3944.0,-155.0,268.0,-1149.0
2831.0,2754.0,2831.0,3111.0,3007.0,0.767639,0.156067,-0.615295,-0.088379,-3.0,6.0,-36.0,8479.0,4821.0,1778.0,966.0,1967.0,187.0,-73.0,1499.0,1607.0,0.917064,0.348364,0.194135,18248.0,10610.0,3586.0,-61.0,138.0,-823.0
2833.0,2747.0,2832.0,3071.0,2979.0,0.767334,0.159058,-0.61438,-0.091736,0.0,1.0,-30.0,8708.0,4990.0,1816.0,1223.0,2066.0,223.0,-50.0,1486.0,1897.0,0.913687,0.356822,0.194455,18816.0,11020.0,3920.0,19.0,27.0,-666.0
2827.0,2765.0,2847.0,3071.0,2991.0,0.766296,0.163696,-0.613708,-0.096619,1.0,-3.0,-19.0,9262.0,5138.0,1948.0,1816.0,2111.0,366.0,-53.0,1276.0,2501.0,0.908933,0.369471,0.193111,20194.0,10156.0,4302.0,34.0,-52.0,-424.0
2839.0,2773.0,2838.0,3111.0,2982.0,0.76593,0.165161,-0.613525,-0.098145,1.0,-2.0,-13.0,9465.0,5085.0,1988.0,2031.0,2025.0,410.0,-41.0,1104.0,2678.0,0.907416,0.373432,0.19259,20010.0,9954.0,4214.0,25.0,-29.0,-297.0
2819.0,2743.0,2851.0,3119.0,2961.0,0.765991,0.165649,-0.613037,-0.100037,-9.0,1.0,0.0,9573.0,4888.0,2076.0,2150.0,1804.0,490.0,-75.0,838.0,2721.0,0.90602,0.376424,0.193496,18896.0,8750.0,4262.0,-187.0,35.0,22.0
2833.0,2747.0,2846.0,3089.0,2971.0,0.766479,0.164124,-0.612793,-0.100342,-13.0,1.0,8.0,9460.0,4669.0,2047.0,2034.0,1600.0,448.0,-45.0,701.0,2530.0,0.90645,0.374572,0.195108,18118.0,7952.0,3808.0,-294.0,40.0,201.0
2825.0,2739.0,2855.0,3070.0,2983.0,0.767456,0.159363,-0.612915,-0.099792,-14.0,0.0,15.0,9036.0,4009.0,1876.0,1589.0,1003.0,254.0,74.0,347.0,1862.0,0.908964,0.366937,0.197886,16608.0,5766.0,3132.0,-306.0,7.0,357.0
2835.0,2749.0,2839.0,3051.0,2987.0,0.767761,0.157104,-0.613281,-0.09906,-10.0,-2.0,14.0,8770.0,3666.0,1775.0,1310.0,694.0,149.0,125.0,176.0,1474.0,0.910582,0.362741,0.198475,15922.0,5356.0,2964.0,-220.0,-24.0,332.0
2831.0,2759.0,2811.0,3059.0,2992.0,0.767761,0.153992,-0.614258,-0.097473,-3.0,-3.0,9.0,8279.0,3043.0,1605.0,798.0,124.0,-16.0,191.0,-152.0,769.0,0.913187,0.356205,0.197932,15236.0,4466.0,2868.0,-57.0,-64.0,208.0
2831.0,2775.0,2849.0,3071.0,2992.0,0.767639,0.153137,-0.614746,-0.09668,-1.0,-3.0,6.0,8077.0,2814.0,1567.0,587.0,-85.0,-48.0,182.0,-271.0,497.0,0.914196,0.353975,0.197253,14950.0,4318.0,2920.0,-10.0,-55.0,158.0
2815.0,2757.0,2837.0,3071.0,2991.0,0.7677,0.151733,-0.615234,-0.095276,-2.0,0.0,5.0,7689.0,2543.0,1538.0,187.0,-325.0,-75.0,128.0,-357.0,42.0,0.915718,0.350206,0.196905,14132.0,4530.0,2984.0,-31.0,4.0,133.0
2831.0,2768.0,2855.0,3071.0,3014.0,0.767883,0.150818,-0.615295,-0.094788,-4.0,0.0,6.0,7482.0,2486.0,1529.0,-24.0,-366.0,-87.0,93.0,-324.0,-166.0,0.916359,0.348266,0.197295,13734.0,4682.0,3012.0,-88.0,15.0,160.0
2836.0,2769.0,2855.0,3071.0,2967.0,0.768555,0.148071,-0.615234,-0.094055,-9.0,1.0,9.0,7182.0,2417.0,1494.0,-336.0,-395.0,-136.0,71.0,-245.0,-471.0,0.917829,0.343334,0.199084,13620.0,4518.0,2716.0,-201.0,38.0,212.0
2839.0,2779.0,2833.0,3071.0,2963.0,0.768982,0.146423,-0.615173,-0.09375,-9.0,1.0,9.0,7071.0,2347.0,1429.0,-454.0,-442.0,-211.0,118.0,-244.0,-609.0,0.91866,0.340539,0.200244,13530.0,4300.0,2462.0,-206.0,42.0,217.0
2830.0,2768.0,2867.0,3069.0,2959.0,0.76947,0.143921,-0.615295,-0.093079,-5.0,1.0,5.0,6944.0,2286.0,1307.0,-593.0,-466.0,-343.0,216.0,-211.0,-771.0,0.920111,0.336027,0.201446,13674.0,4368.0,2276.0,-111.0,28.0,134.0
2831.0,2783.0,2843.0,3071.0,3025.0,0.769531,0.143372,-0.615356,-0.092773,-2.0,0.0,2.0,6943.0,2258.0,1269.0,-597.0,-484.0,-382.0,253.0,-224.0,-788.0,0.92047,0.334835,0.201566,13928.0,4404.0,2334.0,-31.0,18.0,68.0
2803.0,2752.0,2813.0,3042.0,2941.0,0.769348,0.14386,-0.61554,-0.092285,3.0,0.0,-2.0,6976.0,2393.0,1258.0,-565.0,-351.0,-387.0,261.0,-108.0,-715.0,0.920576,0.334967,0.200829,14112.0,5436.0,2638.0,89.0,9.0,-37.0
2834.0,2795.0,2830.0,3071.0,2999.0,0.769165,0.144409,-0.615662,-0.092224,4.0,-1.0,-3.0,7002.0,2486.0,1275.0,-538.0,-264.0,-365.0,243.0,-36.0,-656.0,0.920455,0.335707,0.200227,14158.0,5504.0,2624.0,94.0,-2.0,-46.0
2838.0,2779.0,2819.0,3071.0,2983.0,0.768738,0.145386,-0.616028,-0.091858,2.0,-2.0,1.0,7090.0,2774.0,1345.0,-450.0,15.0,-283.0,174.0,189.0,-465.0,0.920418,0.336701,0.198768,14544.0,6644.0,2988.0,67.0,-39.0,32.0
2835.0,2759.0,2847.0,3051.0,2975.0,0.768555,0.145447,-0.616272,-0.091736,-1.0,-3.0,3.0,7167.0,2909.0,1383.0,-374.0,151.0,-240.0,144.0,288.0,-341.0,0.920592,0.336636,0.198146,14800.0,6508.0,2940.0,-2.0,-48.0,85.0
2835.0,2754.0,2853.0,3107.0,2954.0,0.76825,0.144531,-0.616943,-0.091064,-2.0,-3.0,7.0,7366.0,3087.0,1401.0,-183.0,347.0,-212.0,152.0,408.0,-94.0,0.92161,0.334435,0.196992,15450.0,6756.0,2828.0,-29.0,-46.0,173.0
2823.0,2774.0,2865.0,3089.0,2999.0,0.768127,0.144043,-0.617249,-0.090576,-2.0,-2.0,7.0,7487.0,3172.0,1406.0,-67.0,443.0,-203.0,165.0,460.0,45.0,0.922157,0.333103,0.19648,15672.0,6812.0,2818.0,-26.0,-23.0,182.0
2823.0,2765.0,2867.0,3071.0,2970.0,0.768127,0.143127,-0.617615,-0.089355,0.0,0.0,9.0,7634.0,3285.0,1398.0,70.0,579.0,-208.0,195.0,546.0,215.0,0.923235,0.330255,0.196071,15486.0,6790.0,2694.0,4.0,13.0,216.0
2831.0,2723.0,2830.0,3091.0,2979.0,0.768127,0.1427,-0.617859,-0.08844,1.0,-1.0,11.0,7661.0,3348.0,1393.0,92.0,656.0,-210.0,198.0,613.0,259.0,0.923948,0.328511,0.195728,15462.0,7146.0,2808.0,33.0,-1.0,258.0
2833.0,2773.0,2849.0,3071.0,2959.0,0.768005,0.141663,-0.618591,-0.086243,1.0,-2.0,13.0,7770.0,3503.0,1420.0,186.0,846.0,-173.0,173.0,761.0,412.0,0.925728,0.324293,0.194547,15946.0,7412.0,2986.0,38.0,-26.0,316.0
2819.0,2755.0,2831.0,3095.0,2981.0,0.767944,0.141052,-0.618958,-0.085022,2.0,-2.0,15.0,7832.0,3592.0,1442.0,240.0,955.0,-146.0,152.0,846.0,501.0,0.926665,0.321891,0.193963,15998.0,7764.0,3002.0,46.0,-23.0,347.0
2831.0,2766.0,2853.0,3095.0,2991.0,0.767883,0.139465,-0.619873,-0.081787,4.0,-2.0,20.0,7927.0,3588.0,1463.0,315.0,1002.0,-115.0,133.0,868.0,586.0,0.929167,0.315581,0.192641,16092.0,7002.0,2956.0,97.0,-31.0,471.0
2821.0,2746.0,2823.0,3088.0,2963.0,0.767761,0.138611,-0.620544,-0.079346,7.0,-3.0,24.0,7983.0,3606.0,1479.0,357.0,1055.0,-89.0,111.0,906.0,643.0,0.930864,0.311315,0.191465,16328.0,7434.0,3068.0,176.0,-47.0,553.0
2815.0,2742.0,2832.0,3071.0,2992.0,0.767517,0.137024,-0.621948,-0.073364,10.0,-2.0,29.0,8169.0,3723.0,1580.0,512.0,1252.0,32.0,6.0,1042.0,862.0,0.934606,0.301594,0.18887,16940.0,7746.0,3518.0,249.0,-34.0,673.0
2829.0,2755.0,2827.0,3095.0,2983.0,0.767517,0.136108,-0.622559,-0.069824,11.0,-1.0,32.0,8261.0,3800.0,1648.0,588.0,1376.0,109.0,-65.0,1135.0,978.0,0.936641,0.29587,0.187853,17034.0,8116.0,3696.0,273.0,-12.0,745.0
2829.0,2769.0,2859.0,3095.0,2971.0,0.767761,0.133545,-0.623596,-0.062012,10.0,0.0,40.0,8317.0,3919.0,1748.0,608.0,1605.0,219.0,-197.0,1348.0,1066.0,0.940983,0.282402,0.186596,16570.0,8114.0,3736.0,243.0,15.0,917.0
2815.0,2738.0,2839.0,3099.0,2977.0,0.767944,0.131714,-0.624207,-0.057678,9.0,-1.0,44.0,8262.0,3928.0,1765.0,532.0,1680.0,240.0,-247.0,1444.0,1007.0,0.943518,0.274304,0.186083,16134.0,7778.0,3530.0,212.0,-11.0,1016.0
2831.0,2759.0,2859.0,3099.0,2967.0,0.767761,0.127136,-0.626221,-0.047607,13.0,-5.0,52.0,8113.0,3711.0,1694.0,334.0,1623.0,191.0,-255.0,1459.0,765.0,0.949471,0.254846,0.183408,15794.0,6714.0,3038.0,311.0,-99.0,1197.0
2829.0,2751.0,2838.0,3089.0,2965.0,0.767273,0.125061,-0.627563,-0.041626,19.0,-6.0,54.0,8035.0,3628.0,1633.0,231.0,1627.0,150.0,-249.0,1498.0,644.0,0.952613,0.244158,0.180964,15600.0,6832.0,2876.0,445.0,-135.0,1258.0
2823.0,2750.0,2851.0,3071.0,3006.0,0.765686,0.121643,-0.630981,-0.028076,25.0,-10.0,62.0,7837.0,3658.0,1495.0,-22.0,1841.0,68.0,-274.0,1777.0,398.0,0.959437,0.221712,0.174129,15068.0,7610.0,2580.0,582.0,-217.0,1421.0
2835.0,2757.0,2832.0,3071.0,2975.0,0.764648,0.119568,-0.632874,-0.020813,23.0,-11.0,66.0,7707.0,3621.0,1380.0,-180.0,1907.0,-15.0,-248.0,1886.0,223.0,0.962874,0.209199,0.170295,14560.0,6856.0,1968.0,548.0,-244.0,1528.0
2835.0,2774.0,2847.0,3071.0,2975.0,0.762146,0.113831,-0.637329,-0.00531,22.0,-12.0,73.0,7365.0,3264.0,1024.0,-583.0,1787.0,-301.0,-61.0,1880.0,-292.0,0.970267,0.18028,0.161749,13476.0,5018.0,760.0,516.0,-265.0,1687.0
2821.0,2752.0,2832.0,3089.0,2961.0,0.760681,0.110718,-0.639587,0.00293,23.0,-12.0,74.0,7116.0,2955.0,780.0,-860.0,1605.0,-508.0,103.0,1771.0,-652.0,0.973693,0.164694,0.157314,12720.0,3916.0,72.0,540.0,-262.0,1703.0
2831.0,2769.0,2815.0,3071.0,2983.0,0.757568,0.104553,-0.643982,0.020508,30.0,-9.0,73.0,6688.0,1935.0,452.0,-1340.0,853.0,-766.0,375.0,1113.0,-1314.0,0.980009,0.131999,0.148686,12068.0,570.0,356.0,705.0,-201.0,1692.0
2831.0,2734.0,2847.0,3043.0,2991.0,0.756104,0.102112,-0.645691,0.03009,37.0,-7.0,71.0,6450.0,1462.0,383.0,-1599.0,515.0,-806.0,427.0,797.0,-1628.0,0.982563,0.115556,0.145254,11472.0,178.0,440.0,866.0,-152.0,1637.0
2822.0,2764.0,2823.0,3111.0,2949.0,0.753662,0.098022,-0.648071,0.049194,37.0,-2.0,65.0,6197.0,461.0,585.0,-1884.0,-227.0,-568.0,302.0,-1.0,-1957.0,0.986498,0.083989,0.140822,12074.0,-2368.0,2284.0,868.0,-43.0,1497.0
2826.0,2739.0,2839.0,3071.0,2949.0,0.752991,0.095642,-0.648376,0.05835,34.0,2.0,61.0,6170.0,-120.0,796.0,-1920.0,-680.0,-357.0,196.0,-515.0,-1992.0,0.987604,0.06837,0.14086,12196.0,-3764.0,2866.0,795.0,57.0,1420.0
2832.0,2768.0,2820.0,3102.0,2967.0,0.753052,0.089905,-0.647461,0.075073,25.0,10.0,49.0,6004.0,-1552.0,1326.0,-2094.0,-1864.0,134.0,-15.0,-1837.0,-2121.0,0.988642,0.038192,0.145434,11068.0,-8756.0,4384.0,574.0,237.0,1140.0
2800.0,2726.0,2825.0,3047.0,3015.0,0.753601,0.087097,-0.646301,0.082153,23.0,12.0,32.0,5759.0,-2789.0,1513.0,-2338.0,-2994.0,289.0,77.0,-3002.0,-2342.0,0.988417,0.025081,0.149373,9862.0,-13246.0,3966.0,540.0,275.0,735.0
2813.0,2758.0,2791.0,3091.0,2943.0,0.754517,0.085754,-0.644226,0.09137,24.0,2.0,-11.0,5211.0,-4539.0,1875.0,-2881.0,-4634.0,603.0,132.0,-4716.0,-2806.0,0.987829,0.011681,0.155263,9118.0,-12240.0,4866.0,560.0,55.0,-250.0
2827.0,2759.0,2847.0,3089.0,2959.0,0.754578,0.08728,-0.643677,0.092896,20.0,-5.0,-24.0,5156.0,-4667.0,2031.0,-2934.0,-4766.0,752.0,33.0,-4881.0,-2838.0,0.987624,0.01213,0.156079,10404.0,-9342.0,4980.0,467.0,-114.0,-546.0
2841.0,2757.0,2853.0,3071.0,2981.0,0.754211,0.091187,-0.643799,0.091248,1.0,-11.0,-29.0,5771.0,-3600.0,2297.0,-2320.0,-3764.0,1032.0,-383.0,-3948.0,-2207.0,0.987762,0.020058,0.154369,14070.0,-2660.0,5218.0,26.0,-239.0,-648.0
2829.0,2725.0,2827.0,3071.0,2955.0,0.754272,0.091919,-0.643982,0.08844,-13.0,-9.0,-26.0,6228.0,-2805.0,2344.0,-1863.0,-3007.0,1085.0,-567.0,-3210.0,-1747.0,0.987734,0.024756,0.153587,15214.0,-900.0,4808.0,-292.0,-193.0,-576.0
2815.0,2767.0,2800.0,3071.0,2989.0,0.755371,0.090454,-0.644043,0.080383,-32.0,-2.0,-23.0,6959.0,-1537.0,2213.0,-1130.0,-1808.0,950.0,-658.0,-1988.0,-1029.0,0.987525,0.033112,0.154074,15716.0,-58.0,3706.0,-728.0,-27.0,-513.0
2829.0,2763.0,2815.0,3039.0,2958.0,0.756775,0.088135,-0.643799,0.071289,-29.0,0.0,-26.0,7219.0,-830.0,1820.0,-866.0,-1170.0,545.0,-404.0,-1257.0,-818.0,0.986988,0.041605,0.155546,14708.0,84.0,2258.0,-662.0,3.0,-575.0
2831.0,2749.0,2844.0,3071.0,2969.0,0.75708,0.087952,-0.643921,0.066895,-23.0,-3.0,-29.0,7233.0,-569.0,1595.0,-850.0,-954.0,322.0,-243.0,-991.0,-833.0,0.986766,0.047023,0.155276,14478.0,462.0,1864.0,-524.0,-62.0,-659.0
2832.0,2767.0,2843.0,3089.0,2987.0,0.756836,0.090149,-0.644775,0.058044,-14.0,-8.0,-36.0,7284.0,-185.0,1222.0,-796.0,-689.0,-25.0,35.0,-645.0,-831.0,0.986444,0.061605,0.152308,14712.0,558.0,1472.0,-299.0,-170.0,-806.0
2829.0,2763.0,2851.0,3063.0,2962.0,0.756409,0.09198,-0.645386,0.053833,-11.0,-9.0,-36.0,7273.0,-1.0,1090.0,-806.0,-571.0,-139.0,118.0,-498.0,-855.0,0.986254,0.069663,0.150069,14472.0,1224.0,1480.0,-230.0,-199.0,-824.0
2827.0,2739.0,2847.0,3061.0,2987.0,0.755493,0.095581,-0.646545,0.045044,-16.0,-9.0,-35.0,7214.0,393.0,925.0,-859.0,-312.0,-268.0,181.0,-203.0,-912.0,0.985532,0.086176,0.145642,14294.0,1526.0,1348.0,-352.0,-193.0,-780.0
2830.0,2755.0,2857.0,3071.0,2967.0,0.755188,0.096558,-0.647034,0.040466,-19.0,-7.0,-33.0,7199.0,488.0,863.0,-870.0,-277.0,-316.0,219.0,-152.0,-928.0,0.985079,0.093472,0.14397,14312.0,1524.0,1400.0,-427.0,-143.0,-733.0
2827.0,2769.0,2845.0,3071.0,2991.0,0.755615,0.097473,-0.646973,0.031189,-24.0,1.0,-31.0,7073.0,629.0,761.0,-986.0,-247.0,-417.0,289.0,-85.0,-1056.0,0.983805,0.106948,0.143852,13534.0,1584.0,1164.0,-547.0,36.0,-699.0
2835.0,2737.0,2847.0,3095.0,3002.0,0.756165,0.097656,-0.646484,0.026428,-26.0,4.0,-32.0,6926.0,672.0,690.0,-1125.0,-257.0,-497.0,343.0,-64.0,-1206.0,0.982859,0.113518,0.145005,12872.0,1560.0,940.0,-573.0,108.0,-716.0
2832.0,2750.0,2821.0,3063.0,2961.0,0.757751,0.098816,-0.644836,0.016479,-22.0,8.0,-37.0,6557.0,792.0,580.0,-1475.0,-260.0,-639.0,414.0,5.0,-1574.0,0.980508,0.128503,0.14888,12016.0,2050.0,1008.0,-499.0,190.0,-835.0
2821.0,2767.0,2859.0,3071.0,2966.0,0.758667,0.10022,-0.643616,0.011292,-20.0,9.0,-41.0,6387.0,964.0,585.0,-1631.0,-162.0,-655.0,382.0,132.0,-1717.0,0.978843,0.137532,0.151418,11792.0,3158.0,1258.0,-438.0,213.0,-922.0
2831.0,2765.0,2847.0,3089.0,2987.0,0.760559,0.104797,-0.640747,-6.1e-05,-15.0,10.0,-50.0,6069.0,1227.0,569.0,-1915.0,-79.0,-716.0,365.0,294.0,-1991.0,0.974639,0.159487,0.156911,11234.0,2868.0,1086.0,-323.0,249.0,-1123.0
2830.0,2759.0,2827.0,3057.0,2959.0,0.761353,0.108154,-0.639221,-0.005615,-8.0,10.0,-53.0,5946.0,1373.0,576.0,-2017.0,-34.0,-729.0,346.0,377.0,-2082.0,0.972131,0.171866,0.159388,11252.0,3802.0,1292.0,-173.0,231.0,-1195.0
2831.0,2768.0,2832.0,3069.0,2983.0,0.762634,0.116699,-0.635986,-0.016846,-4.0,9.0,-56.0,6013.0,1749.0,677.0,-1901.0,115.0,-664.0,270.0,546.0,-1922.0,0.966118,0.199425,0.163797,12826.0,4502.0,1776.0,-76.0,219.0,-1274.0
2826.0,2767.0,2851.0,3093.0,2979.0,0.763306,0.121033,-0.634216,-0.022278,-3.0,11.0,-55.0,6201.0,1943.0,764.0,-1686.0,197.0,-597.0,229.0,600.0,-1680.0,0.962809,0.213028,0.166253,13610.0,5144.0,2074.0,-56.0,252.0,-1244.0
2833.0,2763.0,2832.0,3091.0,2975.0,0.764954,0.129395,-0.630066,-0.032715,-5.0,14.0,-51.0,6762.0,2456.0,1003.0,-1065.0,496.0,-410.0,125.0,769.0,-969.0,0.955476,0.239187,0.172498,15402.0,6418.0,2764.0,-104.0,338.0,-1152.0
2826.0,2759.0,2839.0,3069.0,2978.0,0.766113,0.133118,-0.627625,-0.037842,-7.0,17.0,-49.0,7073.0,2669.0,1113.0,-722.0,608.0,-334.0,107.0,799.0,-593.0,0.951588,0.251467,0.176729,15992.0,6568.0,2864.0,-138.0,394.0,-1109.0
2827.0,2750.0,2747.0,3071.0,2967.0,0.768616,0.139893,-0.622375,-0.047546,-8.0,19.0,-45.0,7703.0,3162.0,1384.0,-25.0,915.0,-140.0,37.0,903.0,201.0,0.943432,0.274231,0.18611,17332.0,7848.0,3620.0,-164.0,443.0,-1014.0
2833.0,2754.0,2839.0,3087.0,2991.0,0.769958,0.143005,-0.619629,-0.052185,-8.0,19.0,-42.0,8026.0,3373.0,1515.0,331.0,1039.0,-51.0,23.0,913.0,597.0,0.939252,0.284887,0.191169,17968.0,7928.0,3768.0,-166.0,449.0,-962.0
2829.0,2758.0,2834.0,3071.0,2961.0,0.772095,0.148987,-0.614807,-0.059937,-1.0,15.0,-36.0,8531.0,3623.0,1691.0,899.0,1134.0,56.0,55.0,818.0,1193.0,0.931519,0.303763,0.199538,18356.0,7852.0,3870.0,-6.0,347.0,-813.0
2832.0,2762.0,2851.0,3071.0,2975.0,0.772644,0.152222,-0.613159,-0.062744,5.0,10.0,-31.0,8737.0,3775.0,1795.0,1131.0,1217.0,142.0,25.0,807.0,1458.0,0.928406,0.312171,0.20178,18714.0,8564.0,4290.0,116.0,235.0,-707.0
2828.0,2758.0,2827.0,3071.0,2983.0,0.772827,0.157959,-0.610962,-0.066772,5.0,3.0,-20.0,9299.0,4199.0,2146.0,1735.0,1530.0,478.0,-174.0,848.0,2197.0,0.923241,0.325741,0.203495,20516.0,9660.0,5514.0,132.0,89.0,-442.0
2832.0,2759.0,2832.0,3071.0,2975.0,0.773132,0.159546,-0.610046,-0.068176,0.0,4.0,-12.0,9567.0,4344.0,2314.0,2017.0,1641.0,636.0,-263.0,832.0,2530.0,0.921539,0.329882,0.20477,20586.0,9396.0,5538.0,16.0,110.0,-265.0
2823.0,2755.0,2835.0,3071.0,2975.0,0.774414,0.159058,-0.608398,-0.069336,-10.0,6.0,6.0,9689.0,4286.0,2418.0,2150.0,1576.0,705.0,-278.0,719.0,2647.0,0.920248,0.330721,0.209077,19104.0,7838.0,4764.0,-213.0,154.0,152.0
2825.0,2751.0,2834.0,3071.0,2983.0,0.775269,0.157288,-0.607849,-0.068909,-11.0,6.0,14.0,9574.0,4065.0,2362.0,2030.0,1380.0,628.0,-211.0,593.0,2454.0,0.920816,0.327652,0.21157,18320.0,6642.0,4310.0,-244.0,139.0,332.0
2827.0,2759.0,2835.0,3071.0,2982.0,0.776489,0.153015,-0.607666,-0.066162,-6.0,2.0,20.0,9102.0,3518.0,2150.0,1537.0,912.0,391.0,-64.0,356.0,1793.0,0.923445,0.318038,0.214641,16472.0,5352.0,3560.0,-118.0,63.0,473.0
2831.0,2754.0,2847.0,3071.0,2989.0,0.776672,0.151245,-0.608032,-0.064392,-2.0,0.0,19.0,8812.0,3223.0,2033.0,1234.0,656.0,273.0,-6.0,227.0,1405.0,0.925006,0.313241,0.214788,15896.0,4672.0,3392.0,-42.0,2.0,448.0
2828.0,2767.0,2846.0,3088.0,2991.0,0.776672,0.14856,-0.60907,-0.060913,1.0,-3.0,14.0,8317.0,2708.0,1920.0,714.0,209.0,167.0,0.0,-24.0,762.0,0.927997,0.304965,0.213894,15290.0,4034.0,3642.0,30.0,-46.0,343.0
2827.0,2763.0,2838.0,3067.0,2975.0,0.776733,0.1474,-0.609436,-0.059448,-1.0,-1.0,13.0,8088.0,2479.0,1905.0,475.0,9.0,154.0,-30.0,-144.0,477.0,0.929213,0.301441,0.21371,14778.0,3616.0,3722.0,0.0,-21.0,312.0
2831.0,2765.0,2839.0,3071.0,2981.0,0.777222,0.144348,-0.609741,-0.056885,-5.0,1.0,14.0,7589.0,2110.0,1862.0,-40.0,-296.0,103.0,-83.0,-287.0,-102.0,0.931386,0.293751,0.214689,13652.0,3262.0,3540.0,-110.0,25.0,335.0
2831.0,2762.0,2833.0,3090.0,2989.0,0.777649,0.142395,-0.609802,-0.055786,-8.0,1.0,14.0,7343.0,1971.0,1832.0,-296.0,-400.0,64.0,-100.0,-314.0,-378.0,0.932537,0.289504,0.215715,13252.0,3142.0,3498.0,-167.0,31.0,343.0
2832.0,2767.0,2843.0,3091.0,2987.0,0.778442,0.138306,-0.609863,-0.054199,-9.0,1.0,11.0,6973.0,1668.0,1730.0,-682.0,-637.0,-54.0,-64.0,-428.0,-828.0,0.934495,0.281434,0.217848,13096.0,2330.0,3066.0,-192.0,38.0,270.0
2829.0,2759.0,2830.0,3071.0,2987.0,0.778809,0.136841,-0.609802,-0.053528,-6.0,2.0,7.0,6862.0,1524.0,1656.0,-799.0,-756.0,-136.0,-5.0,-503.0,-987.0,0.935189,0.278428,0.218824,13110.0,2282.0,2868.0,-115.0,51.0,172.0
2829.0,2757.0,2833.0,3059.0,2979.0,0.779114,0.136169,-0.609619,-0.052917,2.0,1.0,-3.0,6665.0,1452.0,1522.0,-998.0,-814.0,-277.0,84.0,-490.0,-1219.0,0.935514,0.276702,0.219641,12896.0,3050.0,2806.0,46.0,27.0,-60.0
2831.0,2771.0,2847.0,3071.0,2967.0,0.778992,0.136719,-0.609619,-0.053101,3.0,-1.0,-6.0,6639.0,1525.0,1521.0,-1022.0,-750.0,-275.0,71.0,-422.0,-1224.0,0.935257,0.277748,0.21932,13224.0,3594.0,3074.0,73.0,-5.0,-129.0
2825.0,2771.0,2851.0,3095.0,2997.0,0.778748,0.138184,-0.609497,-0.054077,1.0,-1.0,-8.0,6812.0,1796.0,1598.0,-842.0,-507.0,-194.0,18.0,-242.0,-971.0,0.934344,0.28114,0.218791,14420.0,4544.0,3494.0,29.0,-4.0,-172.0
2826.0,2761.0,2839.0,3071.0,2971.0,0.778809,0.138733,-0.609253,-0.05481,-1.0,1.0,-8.0,6932.0,1934.0,1634.0,-717.0,-383.0,-160.0,5.0,-159.0,-812.0,0.933775,0.282879,0.219111,14508.0,4692.0,3442.0,-12.0,40.0,-164.0
2826.0,2767.0,2850.0,3071.0,2983.0,0.779114,0.139343,-0.608582,-0.056274,-4.0,1.0,-5.0,7084.0,2197.0,1660.0,-556.0,-142.0,-145.0,10.0,29.0,-591.0,0.932626,0.285624,0.220397,14606.0,5060.0,3306.0,-75.0,45.0,-107.0
2831.0,2762.0,2839.0,3071.0,2999.0,0.779236,0.139404,-0.608337,-0.056946,-4.0,1.0,-4.0,7171.0,2290.0,1663.0,-465.0,-57.0,-146.0,27.0,87.0,-482.0,0.9322,0.286542,0.220943,14904.0,5096.0,3334.0,-78.0,24.0,-86.0
2831.0,2771.0,2847.0,3090.0,2983.0,0.779175,0.139709,-0.608276,-0.058105,-2.0,-1.0,-4.0,7359.0,2401.0,1659.0,-273.0,38.0,-151.0,73.0,129.0,-276.0,0.931672,0.288405,0.220971,15282.0,5096.0,3338.0,-32.0,-10.0,-80.0
2826.0,2736.0,2845.0,3071.0,2979.0,0.779053,0.139954,-0.608337,-0.058533,-1.0,-2.0,-4.0,7458.0,2446.0,1665.0,-172.0,76.0,-142.0,87.0,138.0,-169.0,0.93147,0.289278,0.220688,15522.0,5136.0,3368.0,-8.0,-24.0,-80.0
2830.0,2747.0,2835.0,3071.0,2971.0,0.778748,0.140564,-0.608521,-0.059143,0.0,-2.0,-3.0,7576.0,2490.0,1701.0,-51.0,106.0,-100.0,75.0,129.0,-38.0,0.931141,0.290907,0.21989,15326.0,5108.0,3500.0,17.0,-41.0,-53.0
2823.0,2783.0,2842.0,3091.0,2979.0,0.778442,0.140808,-0.608826,-0.059265,0.0,-4.0,-1.0,7602.0,2526.0,1722.0,-26.0,138.0,-71.0,51.0,148.0,0.0,0.931181,0.291386,0.218989,15376.0,5314.0,3630.0,17.0,-75.0,-17.0
2827.0,2763.0,2864.0,3089.0,2995.0,0.777893,0.140503,-0.609619,-0.059326,-2.0,-5.0,3.0,7739.0,2601.0,1813.0,105.0,217.0,33.0,-22.0,174.0,168.0,0.931766,0.290925,0.217261,15988.0,5526.0,3908.0,-32.0,-102.0,78.0
2827.0,2765.0,2838.0,3071.0,2974.0,0.777649,0.139893,-0.610046,-0.059204,-4.0,-4.0,5.0,7819.0,2647.0,1852.0,182.0,272.0,78.0,-51.0,200.0,265.0,0.932239,0.289809,0.216516,16100.0,5492.0,3896.0,-90.0,-91.0,130.0
2828.0,2757.0,2833.0,3071.0,2983.0,0.777588,0.137512,-0.610779,-0.058838,-8.0,-3.0,9.0,7899.0,2603.0,1864.0,250.0,262.0,93.0,-48.0,172.0,328.0,0.933687,0.28573,0.216144,15904.0,4918.0,3662.0,-168.0,-63.0,221.0
2823.0,2759.0,2847.0,3089.0,2957.0,0.777527,0.135986,-0.611145,-0.058411,-8.0,-3.0,10.0,7906.0,2541.0,1842.0,250.0,223.0,72.0,-24.0,138.0,312.0,0.934477,0.282861,0.215969,15860.0,4694.0,3566.0,-173.0,-68.0,251.0
2815.0,2767.0,2831.0,3071.0,2975.0,0.777344,0.132935,-0.612183,-0.057251,-6.0,-4.0,11.0,7908.0,2396.0,1773.0,235.0,128.0,10.0,38.0,62.0,257.0,0.936531,0.276768,0.215102,15774.0,4448.0,3328.0,-120.0,-85.0,265.0
2827.0,2763.0,2832.0,3071.0,2963.0,0.777161,0.131592,-0.612793,-0.056519,-5.0,-5.0,11.0,7892.0,2380.0,1743.0,211.0,136.0,-12.0,52.0,79.0,232.0,0.937602,0.273804,0.214341,15696.0,4720.0,3320.0,-93.0,-104.0,267.0
2815.0,2755.0,2858.0,3061.0,2974.0,0.77655,0.129089,-0.614197,-0.055054,-4.0,-6.0,12.0,7923.0,2412.0,1739.0,225.0,215.0,0.0,38.0,151.0,269.0,0.939696,0.268116,0.21216,15962.0,4898.0,3510.0,-84.0,-134.0,284.0
2839.0,2743.0,2818.0,3098.0,2991.0,0.776184,0.127808,-0.61499,-0.054199,-4.0,-7.0,14.0,7947.0,2451.0,1750.0,239.0,279.0,22.0,15.0,207.0,303.0,0.940837,0.265068,0.210852,16058.0,5180.0,3558.0,-71.0,-149.0,325.0
2831.0,2749.0,2843.0,3091.0,2966.0,0.775391,0.124756,-0.616821,-0.051941,-5.0,-8.0,19.0,8041.0,2630.0,1791.0,311.0,520.0,87.0,-49.0,416.0,445.0,0.943595,0.257546,0.207896,16470.0,5680.0,3722.0,-102.0,-177.0,449.0
2829.0,2755.0,2847.0,3055.0,2960.0,0.775024,0.122803,-0.617859,-0.050537,-5.0,-8.0,22.0,8097.0,2706.0,1799.0,353.0,635.0,108.0,-69.0,517.0,516.0,0.945299,0.2528,0.206387,16516.0,5888.0,3666.0,-114.0,-176.0,522.0
2829.0,2758.0,2812.0,3059.0,2975.0,0.774231,0.118286,-0.619934,-0.047058,-6.0,-8.0,28.0,8186.0,2862.0,1805.0,413.0,883.0,139.0,-106.0,746.0,633.0,0.948812,0.241507,0.203338,16556.0,6134.0,3574.0,-121.0,-181.0,654.0
2833.0,2759.0,2847.0,3101.0,2959.0,0.773865,0.115906,-0.621033,-0.044922,-5.0,-9.0,30.0,8198.0,2916.0,1788.0,409.0,989.0,135.0,-112.0,854.0,648.0,0.950777,0.235187,0.201769,16446.0,6130.0,3468.0,-93.0,-190.0,701.0
2837.0,2746.0,2847.0,3071.0,2947.0,0.772644,0.111633,-0.623657,-0.039795,2.0,-11.0,33.0,8204.0,3042.0,1754.0,381.0,1222.0,138.0,-145.0,1094.0,662.0,0.954845,0.222142,0.197152,16456.0,6638.0,3514.0,52.0,-243.0,757.0
2834.0,2759.0,2838.0,3107.0,2967.0,0.771851,0.109924,-0.625122,-0.036804,5.0,-12.0,34.0,8203.0,3144.0,1760.0,363.0,1376.0,168.0,-196.0,1247.0,676.0,0.95691,0.215705,0.194247,16358.0,6894.0,3548.0,119.0,-269.0,798.0
2832.0,2745.0,2867.0,3089.0,2992.0,0.769836,0.106689,-0.628601,-0.029602,10.0,-16.0,41.0,8145.0,3358.0,1745.0,268.0,1707.0,213.0,-302.0,1590.0,641.0,0.961524,0.201483,0.187002,16086.0,7456.0,3424.0,245.0,-347.0,951.0
2831.0,2737.0,2833.0,3099.0,2959.0,0.768494,0.105225,-0.630615,-0.02533,13.0,-18.0,44.0,8116.0,3482.0,1741.0,219.0,1895.0,246.0,-372.0,1781.0,623.0,0.963917,0.193675,0.182476,16080.0,7642.0,3444.0,306.0,-397.0,1021.0
2843.0,2781.0,2851.0,3057.0,2999.0,0.765259,0.102295,-0.635376,-0.015198,19.0,-22.0,52.0,8032.0,3504.0,1669.0,91.0,2063.0,262.0,-458.0,1969.0,496.0,0.969345,0.175877,0.171685,15758.0,6710.0,3026.0,452.0,-500.0,1207.0
2846.0,2769.0,2833.0,3043.0,2995.0,0.763245,0.100464,-0.638184,-0.009094,21.0,-24.0,58.0,7982.0,3382.0,1569.0,16.0,2030.0,215.0,-439.0,1955.0,385.0,0.972353,0.164965,0.165254,15630.0,5962.0,2428.0,495.0,-541.0,1333.0
2829.0,2771.0,2874.0,3071.0,2963.0,0.759155,0.095642,-0.64386,0.004578,20.0,-21.0,66.0,7895.0,3059.0,1356.0,-120.0,1917.0,105.0,-372.0,1880.0,165.0,0.978455,0.13932,0.152635,15372.0,4914.0,2014.0,466.0,-470.0,1517.0
2821.0,2759.0,2843.0,3069.0,2981.0,0.757385,0.092407,-0.64624,0.011841,18.0,-17.0,69.0,7762.0,2794.0,1221.0,-275.0,1772.0,11.0,-299.0,1767.0,-47.0,0.981094,0.124672,0.147607,14560.0,3932.0,1558.0,422.0,-380.0,1590.0
2819.0,2737.0,2827.0,3063.0,2981.0,0.754517,0.084412,-0.650269,0.026978,13.0,-11.0,75.0,7324.0,2159.0,919.0,-751.0,1402.0,-228.0,-103.0,1468.0,-642.0,0.985831,0.092295,0.140049,13336.0,2162.0,960.0,301.0,-232.0,1723.0
2835.0,2813.0,2851.0,3071.0,2963.0,0.753357,0.079529,-0.651794,0.03479,11.0,-7.0,77.0,7092.0,1772.0,781.0,-998.0,1161.0,-346.0,9.0,1251.0,-946.0,0.987601,0.074475,0.137596,12744.0,1226.0,714.0,265.0,-139.0,1777.0
2831.0,2773.0,2853.0,3071.0,2991.0,0.75177,0.068726,-0.653809,0.050964,8.0,0.0,80.0,6614.0,1032.0,542.0,-1496.0,731.0,-568.0,223.0,836.0,-1531.0,0.990032,0.03669,0.135567,11720.0,-320.0,68.0,187.0,12.0,1855.0
2806.0,2763.0,2835.0,3059.0,2975.0,0.75116,0.062744,-0.65448,0.059204,8.0,2.0,80.0,6417.0,587.0,453.0,-1698.0,449.0,-656.0,331.0,543.0,-1763.0,0.990667,0.016766,0.135465,11768.0,-1438.0,408.0,193.0,65.0,1841.0
2838.0,2749.0,2836.0,3039.0,2999.0,0.750244,0.051758,-0.654846,0.075378,11.0,7.0,72.0,6212.0,-220.0,346.0,-1901.0,-47.0,-776.0,515.0,4.0,-1988.0,0.990392,-0.021061,0.137046,12130.0,-2740.0,620.0,254.0,167.0,1661.0
2837.0,2765.0,2847.0,3063.0,2999.0,0.750061,0.046814,-0.65448,0.083069,12.0,9.0,66.0,6212.0,-634.0,388.0,-1894.0,-318.0,-750.0,544.0,-297.0,-1966.0,0.989577,-0.038507,0.138956,12484.0,-3894.0,1098.0,287.0,226.0,1527.0
2811.0,2768.0,2843.0,3107.0,2989.0,0.750366,0.038635,-0.652588,0.097839,17.0,14.0,55.0,6247.0,-1443.0,649.0,-1837.0,-871.0,-540.0,459.0,-928.0,-1830.0,0.98692,-0.069716,0.145258,12472.0,-5086.0,2654.0,410.0,333.0,1273.0
2834.0,2732.0,2851.0,3091.0,2993.0,0.750916,0.035095,-0.651062,0.104614,15.0,15.0,48.0,6158.0,-1960.0,918.0,-1912.0,-1275.0,-308.0,308.0,-1398.0,-1823.0,0.985128,-0.083514,0.149705,11610.0,-7506.0,3488.0,362.0,348.0,1117.0
2813.0,2737.0,2829.0,3055.0,3015.0,0.752136,0.029053,-0.648071,0.115662,13.0,10.0,22.0,5903.0,-3413.0,1388.0,-2138.0,-2542.0,91.0,165.0,-2778.0,-1814.0,0.981596,-0.106211,0.158246,11196.0,-10510.0,4262.0,311.0,247.0,522.0
2831.0,2766.0,2839.0,3063.0,2994.0,0.752686,0.027283,-0.646912,0.119202,10.0,6.0,10.0,5869.0,-3815.0,1636.0,-2161.0,-2888.0,312.0,27.0,-3174.0,-1741.0,0.980346,-0.113155,0.161506,11666.0,-9618.0,4754.0,239.0,159.0,232.0
2827.0,2769.0,2865.0,3071.0,2992.0,0.753723,0.025085,-0.645325,0.121826,-3.0,2.0,-6.0,6108.0,-3897.0,1970.0,-1911.0,-2918.0,611.0,-222.0,-3236.0,-1420.0,0.978904,-0.11942,0.165867,13406.0,-7002.0,4624.0,-50.0,56.0,-135.0
2821.0,2737.0,2814.0,3071.0,2983.0,0.754211,0.024231,-0.644836,0.121338,-8.0,2.0,-9.0,6310.0,-3632.0,1995.0,-1706.0,-2649.0,625.0,-273.0,-2947.0,-1247.0,0.978566,-0.119936,0.167157,13822.0,-5432.0,3958.0,-178.0,49.0,-200.0
2819.0,2767.0,2837.0,3071.0,2963.0,0.754944,0.022461,-0.644592,0.118347,-14.0,0.0,-12.0,6675.0,-2903.0,1843.0,-1341.0,-1930.0,467.0,-240.0,-2161.0,-1004.0,0.978578,-0.118658,0.167943,14400.0,-3744.0,2986.0,-319.0,2.0,-269.0
2815.0,2749.0,2837.0,3089.0,2987.0,0.755188,0.022339,-0.645142,0.114136,-11.0,-4.0,-18.0,6916.0,-2151.0,1618.0,-1108.0,-1220.0,252.0,-155.0,-1391.0,-904.0,0.979506,-0.113527,0.166629,14416.0,-1906.0,2620.0,-231.0,-80.0,-410.0
2815.0,2750.0,2835.0,3071.0,2965.0,0.755127,0.02301,-0.64563,0.111511,-11.0,-6.0,-21.0,7011.0,-1818.0,1524.0,-1018.0,-923.0,169.0,-125.0,-1070.0,-869.0,0.980197,-0.109239,0.165284,14590.0,-1778.0,2514.0,-232.0,-119.0,-473.0
2833.0,2775.0,2841.0,3071.0,2975.0,0.754883,0.024414,-0.646851,0.105713,-13.0,-6.0,-23.0,7166.0,-1396.0,1348.0,-876.0,-577.0,20.0,-32.0,-679.0,-799.0,0.981755,-0.099901,0.162012,14678.0,-1754.0,2136.0,-292.0,-115.0,-508.0
2831.0,2772.0,2833.0,3071.0,2983.0,0.754822,0.024841,-0.647339,0.102539,-16.0,-4.0,-23.0,7183.0,-1300.0,1234.0,-864.0,-519.0,-81.0,54.0,-599.0,-812.0,0.982345,-0.095254,0.160605,14372.0,-2218.0,1710.0,-346.0,-74.0,-516.0
2832.0,2771.0,2832.0,3089.0,2961.0,0.755066,0.025146,-0.648071,0.096008,-16.0,0.0,-25.0,6995.0,-1317.0,954.0,-1061.0,-608.0,-346.0,294.0,-659.0,-1045.0,0.983502,-0.086466,0.158713,13092.0,-2608.0,1088.0,-365.0,10.0,-561.0
2815.0,2747.0,2832.0,3067.0,2982.0,0.755615,0.026184,-0.648438,0.088806,-16.0,1.0,-30.0,6663.0,-1252.0,730.0,-1402.0,-632.0,-561.0,452.0,-674.0,-1421.0,0.984589,-0.0756,0.157684,12398.0,-2388.0,920.0,-358.0,42.0,-685.0
2830.0,2771.0,2864.0,3071.0,2978.0,0.756042,0.0271,-0.648376,0.0849,-15.0,2.0,-33.0,6536.0,-1240.0,686.0,-1533.0,-673.0,-605.0,478.0,-713.0,-1558.0,0.985002,-0.069117,0.157682,12368.0,-2388.0,1144.0,-323.0,68.0,-754.0
2831.0,2777.0,2846.0,3089.0,2990.0,0.757324,0.030273,-0.647827,0.076538,-11.0,5.0,-41.0,6365.0,-1054.0,683.0,-1711.0,-617.0,-617.0,443.0,-650.0,-1751.0,0.985865,-0.053313,0.158802,12372.0,-1150.0,1508.0,-242.0,117.0,-922.0
2833.0,2768.0,2847.0,3069.0,2983.0,0.758118,0.032654,-0.647278,0.071777,-10.0,6.0,-46.0,6312.0,-962.0,697.0,-1766.0,-606.0,-612.0,421.0,-628.0,-1813.0,0.986113,-0.043409,0.15986,12302.0,-1602.0,1444.0,-224.0,145.0,-1043.0
2819.0,2743.0,2851.0,3093.0,2961.0,0.759827,0.03949,-0.645935,0.062317,1.0,6.0,-54.0,6188.0,-867.0,684.0,-1893.0,-699.0,-646.0,434.0,-683.0,-1958.0,0.986519,-0.020495,0.162428,12052.0,-716.0,1486.0,28.0,155.0,-1234.0
2821.0,2739.0,2850.0,3071.0,2991.0,0.760681,0.044067,-0.64502,0.05719,1.0,6.0,-58.0,6138.0,-604.0,737.0,-1942.0,-548.0,-605.0,356.0,-515.0,-2010.0,0.986349,-0.006735,0.163914,12020.0,462.0,1890.0,37.0,159.0,-1323.0
2831.0,2786.0,2831.0,3089.0,2966.0,0.762756,0.05304,-0.642883,0.045471,-7.0,8.0,-61.0,6080.0,-171.0,883.0,-1993.0,-354.0,-491.0,190.0,-284.0,-2054.0,0.98555,0.022447,0.167753,12060.0,896.0,2252.0,-158.0,206.0,-1384.0
2833.0,2757.0,2833.0,3071.0,2999.0,0.764038,0.056702,-0.641479,0.038879,-14.0,11.0,-61.0,6074.0,47.0,947.0,-1992.0,-254.0,-450.0,126.0,-163.0,-2047.0,0.984639,0.036764,0.170555,12118.0,1362.0,2216.0,-313.0,260.0,-1378.0
2832.0,2757.0,2855.0,3115.0,2963.0,0.767334,0.063293,-0.637695,0.024475,-17.0,20.0,-68.0,6120.0,102.0,890.0,-1922.0,-438.0,-574.0,255.0,-277.0,-2018.0,0.981749,0.065919,0.178739,12270.0,8.0,1402.0,-371.0,465.0,-1536.0
2827.0,2759.0,2815.0,3091.0,2998.0,0.769165,0.06781,-0.635193,0.017212,-8.0,22.0,-75.0,6052.0,32.0,805.0,-1971.0,-643.0,-701.0,376.0,-430.0,-2112.0,0.979471,0.082448,0.183843,11528.0,-368.0,1018.0,-166.0,523.0,-1710.0
2822.0,2786.0,2839.0,3069.0,2967.0,0.771973,0.081848,-0.63031,0.003174,12.0,16.0,-87.0,6031.0,559.0,855.0,-1945.0,-443.0,-717.0,345.0,-152.0,-2085.0,0.973684,0.122368,0.191962,12840.0,4122.0,2634.0,297.0,382.0,-1981.0
2829.0,2718.0,2838.0,3059.0,2943.0,0.773071,0.090454,-0.627808,-0.004517,12.0,15.0,-90.0,6287.0,1086.0,1063.0,-1658.0,-106.0,-537.0,182.0,167.0,-1728.0,0.969863,0.145526,0.195335,14232.0,5186.0,3394.0,293.0,348.0,-2059.0
2819.0,2753.0,2847.0,3047.0,2967.0,0.774963,0.107056,-0.622498,-0.020142,10.0,14.0,-86.0,6995.0,2108.0,1570.0,-873.0,543.0,-84.0,-169.0,685.0,-751.0,0.960513,0.191005,0.20201,16352.0,7688.0,4896.0,232.0,343.0,-1965.0
2823.0,2745.0,2839.0,3063.0,3007.0,0.114868,-0.619629,-0.027771,0.000427,14.0,-81.0,7419.0,2692.0,1845.0,-19862.0,2644.0,3011.0,-16818.0,1267.0,-3416.0,5834.0,0.005851,-0.142375,-0.371516,18536.0,9534.0,5446.0,95.0,317.0,-1675.0
2831.0,2790.0,2846.0,3071.0,2987.0,0.777527,0.128235,-0.614258,-0.041687,4.0,12.0,-67.0,8322.0,3683.0,2252.0,584.0,1629.0,510.0,-502.0,1364.0,1068.0,0.944512,0.250625,0.212529,19256.0,10038.0,5556.0,95.0,293.0,-1514.0
2833.0,2766.0,2832.0,3103.0,2983.0,0.778442,0.138977,-0.609863,-0.052734,3.0,8.0,-49.0,9143.0,4429.0,2551.0,1484.0,2129.0,769.0,-555.0,1544.0,2152.0,0.934829,0.280693,0.217506,20620.0,10656.0,5868.0,80.0,193.0,-1111.0
2843.0,2739.0,2811.0,3055.0,2981.0,0.778625,0.143188,-0.608276,-0.056824,4.0,5.0,-39.0,9500.0,4668.0,2665.0,1873.0,2275.0,871.0,-559.0,1540.0,2598.0,0.930966,0.292109,0.218984,21088.0,10694.0,6018.0,97.0,133.0,-879.0
2833.0,2741.0,2847.0,3093.0,2951.0,0.778687,0.148682,-0.606323,-0.062317,-1.0,0.0,-18.0,10049.0,4980.0,2825.0,2465.0,2464.0,1018.0,-551.0,1493.0,3263.0,0.925741,0.307121,0.220502,21526.0,10174.0,5964.0,-17.0,20.0,-399.0
2819.0,2774.0,2845.0,3109.0,2974.0,0.778748,0.149536,-0.605835,-0.063965,-5.0,0.0,-9.0,10212.0,4827.0,2816.0,2638.0,2284.0,1004.0,-473.0,1266.0,3369.0,0.924455,0.310406,0.221142,21254.0,8336.0,5448.0,-100.0,6.0,-193.0
2829.0,2771.0,2834.0,3095.0,2995.0,0.779114,0.14856,-0.605591,-0.064636,-6.0,1.0,5.0,10198.0,4201.0,2660.0,2624.0,1663.0,838.0,-261.0,710.0,3127.0,0.924444,0.309776,0.222386,19816.0,6408.0,4790.0,-135.0,23.0,135.0
2837.0,2753.0,2847.0,3071.0,2999.0,0.779419,0.147095,-0.605591,-0.064209,-8.0,1.0,10.0,10017.0,3833.0,2568.0,2438.0,1317.0,739.0,-184.0,458.0,2824.0,0.925128,0.307066,0.22324,18798.0,5342.0,4562.0,-179.0,39.0,240.0
2831.0,2736.0,2832.0,3089.0,2975.0,0.780273,0.143005,-0.605652,-0.062256,-8.0,1.0,16.0,9406.0,3046.0,2362.0,1809.0,600.0,515.0,-73.0,5.0,1972.0,0.927342,0.298577,0.225438,16706.0,3964.0,4182.0,-177.0,36.0,380.0
2831.0,2775.0,2838.0,3087.0,2975.0,0.78064,0.140686,-0.605896,-0.060913,-8.0,0.0,17.0,9035.0,2713.0,2279.0,1425.0,308.0,425.0,-64.0,-146.0,1510.0,0.928834,0.293464,0.226206,15862.0,3458.0,4080.0,-176.0,2.0,410.0
2819.0,2763.0,2847.0,3103.0,3003.0,0.781067,0.136108,-0.606628,-0.058105,-6.0,-2.0,17.0,8378.0,2111.0,2157.0,744.0,-208.0,298.0,-80.0,-431.0,702.0,0.931817,0.283116,0.226918,14938.0,2610.0,3994.0,-135.0,-33.0,393.0
2831.0,2734.0,2822.0,3059.0,2974.0,0.78125,0.134094,-0.606934,-0.056702,-5.0,-2.0,15.0,8091.0,1909.0,2109.0,446.0,-371.0,247.0,-95.0,-502.0,369.0,0.933127,0.278351,0.227217,14496.0,2754.0,3954.0,-101.0,-28.0,356.0
2815.0,2765.0,2847.0,3071.0,2987.0,0.781616,0.13092,-0.607422,-0.054443,-5.0,-2.0,11.0,7598.0,1720.0,2030.0,-63.0,-498.0,163.0,-136.0,-485.0,-156.0,0.935286,0.270799,0.227786,13880.0,3054.0,3850.0,-93.0,-25.0,265.0
2833.0,2775.0,2851.0,3089.0,2991.0,0.781738,0.129517,-0.607605,-0.05365,-5.0,-2.0,9.0,7424.0,1671.0,1983.0,-244.0,-521.0,114.0,-134.0,-457.0,-341.0,0.936079,0.267692,0.228035,13864.0,3050.0,3666.0,-97.0,-23.0,226.0
2835.0,2775.0,2850.0,3087.0,2975.0,0.781921,0.127258,-0.60791,-0.05249,-5.0,-1.0,8.0,7138.0,1714.0,1872.0,-540.0,-439.0,0.0,-105.0,-294.0,-621.0,0.937316,0.262831,0.228407,13546.0,3766.0,3376.0,-93.0,-20.0,185.0
2823.0,2741.0,2832.0,3071.0,2972.0,0.781982,0.126282,-0.608154,-0.052124,-5.0,-2.0,7.0,7051.0,1761.0,1817.0,-632.0,-376.0,-54.0,-81.0,-206.0,-703.0,0.937967,0.260899,0.228415,13636.0,3730.0,3286.0,-100.0,-35.0,170.0
2819.0,2751.0,2838.0,3071.0,2973.0,0.781799,0.124695,-0.608826,-0.051331,-3.0,-3.0,6.0,6994.0,1867.0,1705.0,-699.0,-242.0,-159.0,-6.0,-49.0,-754.0,0.939158,0.257475,0.227627,13954.0,4182.0,3142.0,-55.0,-63.0,148.0
2832.0,2773.0,2845.0,3093.0,2982.0,0.781555,0.124084,-0.609253,-0.051025,-2.0,-4.0,6.0,7012.0,1917.0,1656.0,-685.0,-181.0,-202.0,34.0,10.0,-735.0,0.939667,0.256132,0.226846,14168.0,4064.0,3024.0,-43.0,-76.0,142.0
2833.0,2769.0,2834.0,3088.0,2983.0,0.781006,0.123108,-0.610229,-0.050171,-1.0,-4.0,5.0,7101.0,1984.0,1570.0,-606.0,-92.0,-272.0,117.0,85.0,-654.0,0.940833,0.253528,0.224952,14568.0,4074.0,2918.0,-13.0,-79.0,124.0
2829.0,2757.0,2838.0,3055.0,2983.0,0.780701,0.122742,-0.610657,-0.049805,-1.0,-3.0,4.0,7163.0,1986.0,1533.0,-547.0,-82.0,-302.0,161.0,84.0,-603.0,0.941254,0.252476,0.224007,14692.0,3980.0,2880.0,0.0,-60.0,104.0
2827.0,2759.0,2825.0,3071.0,3007.0,0.780334,0.122314,-0.611328,-0.049072,1.0,-2.0,3.0,7234.0,1972.0,1485.0,-483.0,-83.0,-338.0,212.0,73.0,-551.0,0.942076,0.250891,0.222647,14630.0,3850.0,2896.0,23.0,-29.0,77.0
2831.0,2767.0,2841.0,3071.0,2967.0,0.780151,0.122253,-0.611633,-0.048645,1.0,-2.0,3.0,7253.0,1996.0,1482.0,-467.0,-54.0,-336.0,213.0,97.0,-528.0,0.942439,0.250258,0.221961,14610.0,4222.0,2950.0,44.0,-35.0,79.0
3066.0,2769.0,2834.0,3094.0,2981.0,0.779663,0.122253,-0.612305,-0.047852,1.0,-3.0,3.0,7338.0,2105.0,1533.0,-387.0,63.0,-271.0,162.0,183.0,-408.0,0.943083,0.249232,0.220301,15046.0,4504.0,3284.0,40.0,-62.0,91.0
2823.0,2751.0,2827.0,3063.0,2975.0,0.779419,0.122192,-0.612671,-0.047424,1.0,-4.0,4.0,7392.0,2154.0,1569.0,-336.0,117.0,-228.0,129.0,218.0,-337.0,0.943465,0.248589,0.219446,15124.0,4624.0,3346.0,42.0,-70.0,111.0
2811.0,2751.0,2830.0,3071.0,2981.0,0.778809,0.121704,-0.613525,-0.046326,0.0,-4.0,6.0,7498.0,2230.0,1642.0,-238.0,211.0,-139.0,60.0,274.0,-202.0,0.944362,0.246412,0.217464,15322.0,4646.0,3500.0,20.0,-87.0,160.0
2827.0,2767.0,2850.0,3069.0,2981.0,0.778564,0.121277,-0.614014,-0.045715,0.0,-4.0,7.0,7555.0,2235.0,1659.0,-186.0,228.0,-114.0,47.0,276.0,-144.0,0.94501,0.244983,0.216532,15480.0,4436.0,3368.0,15.0,-86.0,173.0
2826.0,2767.0,2833.0,3071.0,2975.0,0.778076,0.120544,-0.614929,-0.044189,2.0,-3.0,7.0,7647.0,2136.0,1667.0,-104.0,154.0,-91.0,50.0,183.0,-80.0,0.94627,0.241932,0.214686,15454.0,3902.0,3366.0,61.0,-64.0,164.0
2827.0,2759.0,2842.0,3071.0,2981.0,0.777832,0.120361,-0.615295,-0.043274,3.0,-3.0,6.0,7651.0,2108.0,1675.0,-104.0,137.0,-76.0,37.0,165.0,-81.0,0.946776,0.240494,0.21382,15294.0,4142.0,3416.0,89.0,-57.0,158.0
2827.0,2765.0,2835.0,3067.0,2975.0,0.777344,0.120056,-0.616089,-0.041687,2.0,-4.0,7.0,7636.0,2118.0,1734.0,-128.0,168.0,-2.0,-42.0,190.0,-81.0,0.947816,0.238016,0.212022,15272.0,4284.0,3734.0,65.0,-85.0,172.0
2831.0,2759.0,2839.0,3071.0,2969.0,0.777039,0.119629,-0.616577,-0.040771,2.0,-5.0,9.0,7648.0,2131.0,1769.0,-121.0,196.0,40.0,-83.0,209.0,-60.0,0.948454,0.23619,0.210973,15376.0,4354.0,3754.0,47.0,-105.0,219.0
2832.0,2763.0,2845.0,3095.0,2991.0,0.776428,0.118103,-0.617859,-0.038696,-1.0,-7.0,13.0,7682.0,2175.0,1835.0,-102.0,280.0,125.0,-168.0,275.0,-6.0,0.950306,0.231215,0.20864,15490.0,4344.0,3776.0,-1.0,-142.0,306.0
2827.0,2759.0,2829.0,3071.0,2961.0,0.776001,0.117065,-0.618591,-0.037537,0.0,-8.0,14.0,7704.0,2161.0,1852.0,-88.0,292.0,154.0,-194.0,280.0,14.0,0.951266,0.228125,0.207227,15550.0,4254.0,3816.0,4.0,-161.0,326.0
2833.0,2755.0,2833.0,3071.0,2981.0,0.774963,0.115112,-0.620422,-0.035156,0.0,-10.0,14.0,7766.0,2186.0,1859.0,-45.0,367.0,190.0,-226.0,339.0,77.0,0.953515,0.222039,0.203629,15782.0,4440.0,3676.0,9.0,-208.0,339.0
2830.0,2757.0,2839.0,3071.0,2975.0,0.774353,0.114075,-0.62146,-0.033936,0.0,-10.0,14.0,7815.0,2152.0,1827.0,-6.0,359.0,175.0,-203.0,326.0,108.0,0.954716,0.218847,0.201549,15924.0,4002.0,3432.0,11.0,-215.0,342.0
2832.0,2763.0,2843.0,3091.0,2983.0,0.772888,0.112122,-0.623779,-0.031067,2.0,-11.0,16.0,7862.0,2134.0,1735.0,20.0,396.0,124.0,-152.0,364.0,127.0,0.957257,0.212073,0.196649,15862.0,4400.0,3224.0,55.0,-239.0,382.0
2823.0,2757.0,2845.0,3071.0,2991.0,0.772034,0.111145,-0.625061,-0.029541,2.0,-12.0,17.0,7896.0,2153.0,1687.0,43.0,444.0,98.0,-127.0,411.0,152.0,0.95857,0.208545,0.193854,16030.0,4404.0,3126.0,53.0,-257.0,406.0
2830.0,2759.0,2833.0,3071.0,2987.0,0.770264,0.108826,-0.627869,-0.026001,2.0,-13.0,22.0,8033.0,2286.0,1634.0,155.0,645.0,94.0,-121.0,588.0,295.0,0.96159,0.200299,0.18792,16638.0,5166.0,3228.0,53.0,-281.0,513.0
2831.0,2768.0,2837.0,3071.0,2983.0,0.769348,0.107361,-0.629272,-0.023926,1.0,-13.0,25.0,8141.0,2392.0,1630.0,251.0,792.0,114.0,-136.0,714.0,417.0,0.963122,0.195307,0.184959,16944.0,5442.0,3218.0,41.0,-277.0,585.0
2833.0,2767.0,2838.0,3099.0,2983.0,0.767639,0.10376,-0.632141,-0.018982,1.0,-12.0,33.0,8330.0,2681.0,1649.0,411.0,1179.0,180.0,-213.0,1062.0,645.0,0.966573,0.183299,0.179262,17228.0,6286.0,3410.0,27.0,-262.0,773.0
2827.0,2759.0,2839.0,3071.0,2991.0,0.766846,0.101501,-0.633545,-0.015991,1.0,-12.0,38.0,8407.0,2831.0,1667.0,473.0,1389.0,220.0,-266.0,1257.0,741.0,0.968416,0.175934,0.176626,17224.0,6568.0,3418.0,29.0,-255.0,881.0
2827.0,2765.0,2847.0,3069.0,2971.0,0.765198,0.096069,-0.636475,-0.008789,2.0,-13.0,48.0,8445.0,3044.0,1670.0,479.0,1747.0,266.0,-358.0,1613.0,787.0,0.972369,0.158212,0.171276,16774.0,6556.0,3230.0,48.0,-282.0,1113.0
2832.0,2763.0,2849.0,3093.0,2983.0,0.76416,0.092957,-0.638245,-0.004395,3.0,-15.0,53.0,8418.0,3104.0,1656.0,433.0,1894.0,280.0,-405.0,1768.0,748.0,0.974625,0.147677,0.167963,16656.0,6524.0,3230.0,84.0,-321.0,1221.0
2832.0,2767.0,2837.0,3089.0,2983.0,0.761658,0.086365,-0.642151,0.005737,7.0,-17.0,60.0,8295.0,2990.0,1559.0,273.0,1972.0,245.0,-427.0,1880.0,551.0,0.979189,0.124192,0.160339,16150.0,5298.0,2640.0,170.0,-379.0,1377.0
2823.0,2767.0,2843.0,3071.0,2979.0,0.760193,0.082947,-0.644226,0.011536,9.0,-17.0,61.0,8258.0,2887.0,1519.0,218.0,1975.0,240.0,-443.0,1893.0,471.0,0.981386,0.111248,0.156119,16320.0,5138.0,2866.0,209.0,-367.0,1420.0
2826.0,2761.0,2832.0,3087.0,2975.0,0.757751,0.07605,-0.647644,0.023926,12.0,-11.0,64.0,8042.0,2400.0,1349.0,-28.0,1709.0,124.0,-356.0,1670.0,134.0,0.985146,0.084263,0.149533,15152.0,3008.0,2062.0,285.0,-236.0,1467.0
2832.0,2768.0,2834.0,3099.0,2987.0,0.756775,0.07251,-0.648865,0.03064,14.0,-7.0,64.0,7839.0,2040.0,1245.0,-242.0,1466.0,37.0,-279.0,1453.0,-130.0,0.986532,0.069985,0.147364,14306.0,1752.0,1826.0,328.0,-151.0,1481.0
2819.0,2759.0,2847.0,3095.0,2965.0,0.755249,0.065186,-0.650635,0.045288,16.0,-3.0,65.0,7073.0,1150.0,943.0,-1026.0,826.0,-243.0,-42.0,870.0,-1016.0,0.988687,0.039531,0.144877,11540.0,-224.0,1060.0,376.0,-48.0,1507.0
2837.0,2766.0,2833.0,3067.0,2987.0,0.754517,0.061035,-0.651306,0.05249,10.0,-2.0,66.0,6594.0,703.0,786.0,-1509.0,508.0,-394.0,83.0,565.0,-1537.0,0.98925,0.02373,0.144126,10300.0,-1240.0,468.0,249.0,-41.0,1516.0
2832.0,2759.0,2833.0,3071.0,2991.0,0.753235,0.051331,-0.652405,0.065979,5.0,2.0,60.0,5891.0,-359.0,598.0,-2215.0,-287.0,-577.0,300.0,-260.0,-2272.0,0.989602,-0.008762,0.143449,10152.0,-4216.0,578.0,130.0,46.0,1397.0
2829.0,2763.0,2838.0,3088.0,2975.0,0.752869,0.046448,-0.652527,0.072449,6.0,5.0,56.0,5717.0,-912.0,526.0,-2387.0,-710.0,-654.0,429.0,-707.0,-2438.0,0.989264,-0.024611,0.144111,10554.0,-5032.0,730.0,145.0,122.0,1291.0
2827.0,2755.0,2835.0,3063.0,2974.0,0.753052,0.038574,-0.651367,0.084106,10.0,12.0,40.0,5683.0,-1853.0,550.0,-2406.0,-1431.0,-665.0,571.0,-1478.0,-2400.0,0.987515,-0.051472,0.148394,11608.0,-6362.0,1312.0,244.0,283.0,924.0
2826.0,2768.0,2847.0,3071.0,2979.0,0.753601,0.036011,-0.650269,0.089111,14.0,14.0,30.0,5767.0,-2173.0,630.0,-2314.0,-1668.0,-612.0,577.0,-1735.0,-2272.0,0.986504,-0.061617,0.151709,12148.0,-5976.0,1864.0,329.0,322.0,695.0
2832.0,2769.0,2835.0,3087.0,2991.0,0.755066,0.034058,-0.647644,0.096436,15.0,11.0,10.0,6070.0,-2486.0,955.0,-1995.0,-1884.0,-346.0,409.0,-1986.0,-1880.0,0.984597,-0.07348,0.158822,13210.0,-5934.0,2966.0,363.0,263.0,233.0
2826.0,2769.0,2842.0,3071.0,2991.0,0.755676,0.034302,-0.646484,0.098877,16.0,8.0,1.0,6273.0,-2617.0,1140.0,-1786.0,-1994.0,-184.0,306.0,-2104.0,-1635.0,0.983849,-0.076003,0.161705,13838.0,-5906.0,3482.0,380.0,193.0,28.0
2833.0,2764.0,2831.0,3070.0,2975.0,0.756836,0.036682,-0.644592,0.101501,15.0,3.0,-12.0,6724.0,-2623.0,1611.0,-1329.0,-2005.0,249.0,-35.0,-2145.0,-1114.0,0.983148,-0.075329,0.166258,14722.0,-4622.0,4662.0,349.0,77.0,-267.0
2827.0,2751.0,2845.0,3087.0,2987.0,0.757324,0.038208,-0.643921,0.101746,10.0,0.0,-14.0,6940.0,-2405.0,1847.0,-1113.0,-1805.0,472.0,-256.0,-1968.0,-882.0,0.983089,-0.073161,0.167798,15228.0,-3312.0,5106.0,244.0,13.0,-312.0
2831.0,2757.0,2857.0,3071.0,2973.0,0.757935,0.0401,-0.64325,0.100525,-2.0,-4.0,-10.0,7438.0,-1748.0,2204.0,-615.0,-1186.0,817.0,-641.0,-1375.0,-385.0,0.983144,-0.068539,0.169192,16360.0,-1184.0,5218.0,-41.0,-84.0,-226.0
2815.0,2777.0,2811.0,3071.0,2959.0,0.757996,0.040161,-0.643372,0.099243,-9.0,-6.0,-7.0,7665.0,-1342.0,2279.0,-390.0,-794.0,895.0,-764.0,-983.0,-179.0,0.983317,-0.066817,0.168867,16636.0,-268.0,4854.0,-198.0,-130.0,-159.0
2831.0,2768.0,2818.0,3071.0,3007.0,0.757568,0.03833,-0.644592,0.095764,-19.0,-9.0,-4.0,7972.0,-895.0,2143.0,-88.0,-359.0,782.0,-701.0,-501.0,66.0,0.983987,-0.065382,0.166112,16516.0,-1150.0,3470.0,-417.0,-198.0,-73.0
2831.0,2757.0,2815.0,3087.0,2987.0,0.757019,0.036926,-0.645569,0.094055,-18.0,-10.0,-3.0,8010.0,-830.0,1959.0,-53.0,-293.0,617.0,-550.0,-401.0,68.0,0.984362,-0.06553,0.163802,16156.0,-1324.0,2782.0,-404.0,-222.0,-67.0
2826.0,2765.0,2832.0,3087.0,2995.0,0.755554,0.034729,-0.647888,0.090698,-16.0,-11.0,-6.0,7853.0,-832.0,1579.0,-218.0,-299.0,283.0,-252.0,-361.0,-150.0,0.985329,-0.065045,0.158123,14908.0,-2040.0,2052.0,-356.0,-249.0,-131.0
2814.0,2725.0,2830.0,3055.0,2971.0,0.753784,0.033447,-0.650391,0.087524,-10.0,-12.0,-11.0,7481.0,-1199.0,1183.0,-599.0,-679.0,-59.0,93.0,-710.0,-556.0,0.986363,-0.063426,0.151724,13592.0,-3718.0,1132.0,-227.0,-265.0,-248.0
2854.0,2763.0,2831.0,3088.0,3014.0,0.752808,0.033386,-0.651733,0.085999,-8.0,-12.0,-15.0,7247.0,-1420.0,986.0,-838.0,-913.0,-228.0,266.0,-932.0,-804.0,0.987002,-0.061829,0.148244,13100.0,-4232.0,832.0,-173.0,-271.0,-343.0
2807.0,2767.0,2833.0,3101.0,2979.0,0.751099,0.034912,-0.654053,0.082458,-2.0,-10.0,-27.0,6737.0,-2029.0,627.0,-1358.0,-1575.0,-535.0,611.0,-1570.0,-1330.0,0.988274,-0.05542,0.141945,11886.0,-5952.0,266.0,-37.0,-210.0,-612.0
2823.0,2746.0,2843.0,3071.0,3007.0,0.750488,0.036621,-0.654968,0.080383,1.0,-8.0,-33.0,6469.0,-2267.0,512.0,-1632.0,-1854.0,-629.0,716.0,-1842.0,-1608.0,0.988979,-0.05033,0.13937,11320.0,-5786.0,430.0,30.0,-167.0,-749.0
2821.0,2747.0,2827.0,3107.0,2979.0,0.75,0.041504,-0.655884,0.074463,-2.0,-4.0,-47.0,5896.0,-2478.0,414.0,-2214.0,-2187.0,-701.0,764.0,-2169.0,-2209.0,0.990007,-0.035422,0.136139,10192.0,-5496.0,704.0,-37.0,-73.0,-1055.0
2835.0,2755.0,2847.0,3071.0,2962.0,-0.003235,0.345215,-0.156067,0.026001,-19862.0,17994.0,19949.0,19277.0,20886.0,26991.0,19138.0,20970.0,28161.0,79.0,-4233.0,-3915.0,0.016942,-0.010349,-0.142844,9706.0,-5314.0,1108.0,-128.0,51.0,-1381.0
2833.0,2740.0,2799.0,3071.0,3005.0,0.751526,0.051453,-0.654968,0.05957,-6.0,5.0,-69.0,5259.0,-2572.0,481.0,-2855.0,-2566.0,-638.0,641.0,-2498.0,-2913.0,0.990581,-0.000697,0.136709,9410.0,-4946.0,1082.0,-130.0,117.0,-1571.0
2825.0,2755.0,2839.0,3088.0,3006.0,0.75354,0.062378,-0.652771,0.045715,0.0,7.0,-90.0,4894.0,-2261.0,477.0,-3211.0,-2542.0,-669.0,575.0,-2368.0,-3358.0,0.989481,0.034325,0.139912,8728.0,-2974.0,982.0,20.0,176.0,-2061.0
2835.0,2829.0,2849.0,3067.0,2975.0,0.754517,0.069885,-0.651428,0.037476,3.0,6.0,-100.0,4756.0,-1846.0,515.0,-3339.0,-2309.0,-643.0,473.0,-2065.0,-3521.0,0.988265,0.056634,0.141457,8822.0,-854.0,1348.0,75.0,145.0,-2280.0
2815.0,2767.0,2869.0,3099.0,2991.0,0.756226,0.086304,-0.648315,0.0177,-8.0,5.0,-109.0,4878.0,-571.0,773.0,-3179.0,-1452.0,-410.0,97.0,-1095.0,-3342.0,0.983601,0.10758,0.144429,10796.0,2942.0,2462.0,-164.0,125.0,-2480.0
2831.0,2751.0,2815.0,3095.0,2981.0,0.758789,0.101013,-0.643372,-0.005371,-22.0,15.0,-108.0,5454.0,804.0,1077.0,-2535.0,-508.0,-165.0,-212.0,-123.0,-2578.0,0.975282,0.160207,0.151659,12776.0,5732.0,2872.0,-501.0,351.0,-2453.0
2843.0,2759.0,2843.0,3055.0,2993.0,0.76062,0.107666,-0.639954,-0.017517,-26.0,20.0,-106.0,5729.0,1500.0,1150.0,-2215.0,-25.0,-142.0,-257.0,359.0,-2175.0,0.969751,0.186206,0.157717,13030.0,7200.0,2618.0,-594.0,476.0,-2412.0
2833.0,2779.0,2827.0,3111.0,3047.0,0.764465,0.120239,-0.631958,-0.041992,-30.0,25.0,-100.0,6327.0,2961.0,1249.0,-1505.0,1020.0,-162.0,-228.0,1333.0,-1225.0,0.956122,0.236912,0.172342,14666.0,10142.0,2838.0,-687.0,594.0,-2284.0
2834.0,2757.0,2832.0,3089.0,2973.0,0.766296,0.126404,-0.627625,-0.053772,-27.0,27.0,-97.0,6691.0,3571.0,1282.0,-1077.0,1431.0,-194.0,-142.0,1661.0,-682.0,0.948299,0.261223,0.180211,15626.0,10618.0,2752.0,-596.0,621.0,-2207.0
2835.0,2759.0,2847.0,3071.0,2983.0,0.768616,0.140991,-0.619568,-0.073486,0.0,20.0,-87.0,7251.0,4749.0,1399.0,-381.0,2227.0,-177.0,-49.0,2246.0,296.0,0.931697,0.307796,0.192428,15874.0,13594.0,3338.0,1.0,480.0,-1970.0
2835.0,2767.0,2855.0,3088.0,2971.0,0.768616,0.149353,-0.616638,-0.08136,9.0,11.0,-77.0,7541.0,5564.0,1565.0,-25.0,2861.0,-31.0,-144.0,2707.0,914.0,0.923613,0.329929,0.194841,16994.0,16224.0,4276.0,226.0,270.0,-1757.0
2827.0,2763.0,2823.0,3071.0,2989.0,0.767212,0.163513,-0.613037,-0.094116,5.0,0.0,-50.0,8601.0,6988.0,2031.0,1147.0,3987.0,434.0,-380.0,3248.0,2588.0,0.90988,0.366292,0.194921,20956.0,17224.0,5400.0,124.0,5.0,-1136.0
2822.0,2750.0,2847.0,3091.0,2985.0,0.766724,0.167786,-0.611755,-0.098694,-1.0,1.0,-34.0,9215.0,7310.0,2192.0,1801.0,4213.0,592.0,-384.0,3170.0,3338.0,0.904976,0.378043,0.195209,22028.0,16098.0,5220.0,-19.0,33.0,-776.0
2819.0,2739.0,2827.0,3071.0,2982.0,0.767212,0.170715,-0.609497,-0.104004,-11.0,8.0,-6.0,9935.0,7127.0,2195.0,2564.0,3942.0,566.0,-136.0,2607.0,3951.0,0.899717,0.38873,0.1988,20998.0,12626.0,3904.0,-250.0,192.0,-126.0
2831.0,2755.0,2803.0,3071.0,2981.0,0.76886,0.168457,-0.607788,-0.105164,-14.0,8.0,11.0,9826.0,6170.0,1937.0,2459.0,3000.0,262.0,204.0,1827.0,3425.0,0.899177,0.386874,0.204421,18678.0,8736.0,3000.0,-317.0,201.0,257.0
2832.0,2767.0,2853.0,3062.0,2975.0,0.769592,0.166504,-0.607483,-0.104614,-12.0,6.0,15.0,9606.0,5505.0,1795.0,2231.0,2364.0,103.0,338.0,1357.0,2935.0,0.900191,0.383383,0.206457,17800.0,6936.0,2750.0,-253.0,157.0,345.0
2829.0,2768.0,2822.0,3071.0,2992.0,0.77063,0.162781,-0.607666,-0.101746,-3.0,2.0,16.0,9085.0,4240.0,1657.0,1683.0,1171.0,-50.0,405.0,494.0,1948.0,0.903447,0.374542,0.208467,16638.0,4940.0,3156.0,-63.0,63.0,389.0
2821.0,2763.0,2834.0,3071.0,2975.0,0.770996,0.161133,-0.607971,-0.099915,-1.0,1.0,16.0,8852.0,3731.0,1681.0,1435.0,700.0,-29.0,344.0,151.0,1552.0,0.905288,0.369956,0.208825,16354.0,4602.0,3596.0,-12.0,41.0,389.0
2827.0,2751.0,2837.0,3071.0,2991.0,0.771912,0.157715,-0.608215,-0.096375,-3.0,3.0,16.0,8472.0,2973.0,1838.0,1028.0,18.0,114.0,136.0,-347.0,964.0,0.908578,0.360717,0.210336,15874.0,3836.0,4184.0,-63.0,74.0,369.0
2823.0,2753.0,2829.0,3071.0,2975.0,0.772705,0.155823,-0.608032,-0.094727,-4.0,5.0,15.0,8285.0,2660.0,1922.0,829.0,-256.0,184.0,33.0,-540.0,702.0,0.910138,0.356004,0.212062,15398.0,3580.0,4318.0,-86.0,120.0,358.0
2829.0,2768.0,2849.0,3071.0,3007.0,0.774658,0.151978,-0.606873,-0.092102,-8.0,7.0,12.0,7809.0,2259.0,2033.0,335.0,-585.0,253.0,-137.0,-688.0,157.0,0.912243,0.34725,0.217187,14032.0,3330.0,4236.0,-161.0,183.0,290.0
2827.0,2742.0,2839.0,3091.0,2969.0,0.775635,0.150269,-0.606201,-0.091064,-6.0,7.0,11.0,7506.0,2069.0,2023.0,26.0,-745.0,222.0,-177.0,-734.0,-183.0,0.913013,0.343514,0.219842,13144.0,3098.0,3946.0,-119.0,165.0,254.0
2822.0,2768.0,2855.0,3071.0,3003.0,0.776672,0.148193,-0.605713,-0.089355,-2.0,-1.0,7.0,6977.0,2096.0,2045.0,-513.0,-676.0,223.0,-316.0,-499.0,-648.0,0.914397,0.338443,0.222355,12902.0,4706.0,4348.0,-39.0,-10.0,171.0
2832.0,2759.0,2850.0,3069.0,2951.0,0.776733,0.147339,-0.605835,-0.088989,-3.0,-4.0,6.0,6900.0,2159.0,2084.0,-595.0,-599.0,261.0,-377.0,-406.0,-687.0,0.914921,0.336712,0.222489,13500.0,4654.0,4374.0,-64.0,-75.0,149.0
2839.0,2758.0,2827.0,3071.0,2983.0,0.776794,0.145447,-0.606323,-0.088318,-4.0,-3.0,6.0,6974.0,2332.0,2101.0,-532.0,-396.0,278.0,-386.0,-239.0,-557.0,0.916286,0.333063,0.222427,14220.0,5320.0,4112.0,-89.0,-66.0,153.0
2832.0,2771.0,2831.0,3063.0,3011.0,0.776855,0.144592,-0.606506,-0.088135,-5.0,-2.0,6.0,6984.0,2425.0,2036.0,-526.0,-291.0,213.0,-325.0,-135.0,-531.0,0.916848,0.331563,0.222515,13984.0,5380.0,3640.0,-105.0,-40.0,140.0
2831.0,2751.0,2842.0,3087.0,3007.0,0.776855,0.142944,-0.606873,-0.088013,-5.0,-2.0,4.0,6964.0,2498.0,1829.0,-554.0,-196.0,6.0,-135.0,-13.0,-571.0,0.917743,0.328919,0.222523,13910.0,5110.0,2946.0,-99.0,-44.0,93.0
2847.0,2765.0,2829.0,3071.0,2955.0,0.776672,0.142456,-0.607178,-0.088013,-3.0,-3.0,2.0,6959.0,2526.0,1722.0,-561.0,-162.0,-96.0,-39.0,31.0,-589.0,0.91808,0.328162,0.222008,13880.0,5236.0,2802.0,-63.0,-49.0,58.0
2821.0,2779.0,2855.0,3055.0,2993.0,0.776123,0.142029,-0.607971,-0.088074,-2.0,-4.0,2.0,6920.0,2597.0,1528.0,-606.0,-86.0,-276.0,121.0,137.0,-645.0,0.918703,0.327556,0.220323,13898.0,5474.0,2646.0,-30.0,-88.0,46.0
2832.0,2771.0,2846.0,3067.0,2967.0,0.775757,0.141785,-0.608521,-0.088013,-1.0,-5.0,2.0,6964.0,2632.0,1475.0,-565.0,-47.0,-320.0,174.0,166.0,-604.0,0.91917,0.327096,0.219145,14260.0,5454.0,2656.0,-14.0,-98.0,61.0
2835.0,2756.0,2851.0,3089.0,2973.0,0.774963,0.141602,-0.60968,-0.087646,0.0,-4.0,3.0,7102.0,2781.0,1416.0,-435.0,107.0,-357.0,237.0,275.0,-442.0,0.920138,0.326345,0.216489,14660.0,6034.0,2688.0,14.0,-88.0,77.0
2829.0,2767.0,2795.0,3066.0,2979.0,0.774597,0.141541,-0.610168,-0.087402,0.0,-4.0,3.0,7203.0,2828.0,1411.0,-337.0,157.0,-352.0,254.0,291.0,-334.0,0.920528,0.325934,0.215301,15066.0,5894.0,2790.0,19.0,-74.0,79.0
2832.0,2773.0,2799.0,3033.0,2949.0,0.774231,0.141479,-0.610779,-0.08667,1.0,0.0,4.0,7428.0,2930.0,1428.0,-118.0,268.0,-324.0,275.0,326.0,-90.0,0.921244,0.324948,0.213878,15382.0,6196.0,2910.0,28.0,5.0,95.0
2830.0,2753.0,2859.0,3067.0,3010.0,0.774231,0.141357,-0.61084,-0.086243,0.0,1.0,5.0,7467.0,2954.0,1423.0,-81.0,297.0,-328.0,287.0,342.0,-48.0,0.92148,0.324248,0.213764,15072.0,5952.0,2788.0,16.0,37.0,115.0
2823.0,2771.0,2815.0,3091.0,2975.0,0.774292,0.140991,-0.611023,-0.084839,2.0,0.0,8.0,7447.0,2987.0,1429.0,-108.0,349.0,-319.0,269.0,399.0,-55.0,0.922297,0.322014,0.213498,14828.0,6106.0,2996.0,56.0,15.0,191.0
2821.0,2751.0,2835.0,3053.0,2997.0,0.774231,0.140747,-0.611328,-0.083801,3.0,-1.0,9.0,7429.0,3009.0,1452.0,-132.0,384.0,-292.0,235.0,436.0,-60.0,0.923029,0.320402,0.212924,14728.0,6168.0,3056.0,76.0,-16.0,228.0
2820.0,2742.0,2837.0,3071.0,2961.0,0.773743,0.140137,-0.612427,-0.081421,4.0,-5.0,12.0,7504.0,3072.0,1556.0,-72.0,478.0,-169.0,125.0,494.0,49.0,0.924901,0.316588,0.210602,15496.0,6274.0,3460.0,108.0,-101.0,290.0
2831.0,2783.0,2843.0,3088.0,3012.0,0.773376,0.139709,-0.613159,-0.079895,5.0,-5.0,13.0,7614.0,3084.0,1610.0,27.0,511.0,-102.0,80.0,488.0,164.0,0.926082,0.314073,0.209011,15946.0,6266.0,3524.0,129.0,-114.0,320.0
2839.0,2757.0,2862.0,3059.0,2959.0,0.772705,0.138855,-0.614624,-0.076355,7.0,-4.0,16.0,7856.0,3086.0,1668.0,248.0,559.0,-18.0,45.0,461.0,399.0,0.928642,0.308447,0.20586,16324.0,6062.0,3410.0,166.0,-89.0,378.0
2819.0,2743.0,2847.0,3071.0,2998.0,0.7724,0.138428,-0.615356,-0.074219,8.0,-4.0,17.0,7931.0,3071.0,1677.0,311.0,570.0,3.0,37.0,452.0,463.0,0.930055,0.305185,0.204284,16250.0,6062.0,3418.0,201.0,-77.0,405.0
2815.0,2770.0,2819.0,3071.0,2975.0,0.771729,0.137634,-0.617004,-0.069458,10.0,-6.0,21.0,7979.0,3160.0,1702.0,334.0,717.0,57.0,-23.0,583.0,536.0,0.9332,0.298144,0.200752,16118.0,6654.0,3588.0,232.0,-124.0,491.0
2831.0,2771.0,2843.0,3071.0,2991.0,0.77124,0.136963,-0.618042,-0.066772,9.0,-8.0,24.0,8029.0,3220.0,1731.0,369.0,813.0,104.0,-71.0,661.0,604.0,0.935027,0.293799,0.198535,16396.0,6796.0,3664.0,222.0,-163.0,566.0
2842.0,2749.0,2842.0,3088.0,2983.0,0.770142,0.134644,-0.620483,-0.060791,7.0,-9.0,31.0,8208.0,3343.0,1797.0,512.0,1026.0,210.0,-165.0,819.0,811.0,0.93935,0.282829,0.193685,17000.0,6882.0,3710.0,172.0,-184.0,728.0
2834.0,2757.0,2823.0,3095.0,2960.0,0.769714,0.132935,-0.621704,-0.057434,7.0,-8.0,34.0,8268.0,3333.0,1791.0,552.0,1071.0,221.0,-175.0,856.0,857.0,0.941799,0.276057,0.191571,16794.0,6532.0,3508.0,162.0,-167.0,799.0
2831.0,2758.0,2862.0,3071.0,2995.0,0.768799,0.129211,-0.624329,-0.049744,9.0,-8.0,39.0,8264.0,3245.0,1716.0,505.0,1108.0,183.0,-163.0,920.0,801.0,0.947111,0.260788,0.187044,16440.0,6216.0,3208.0,209.0,-173.0,906.0
2833.0,2769.0,2855.0,3071.0,2981.0,0.76825,0.127258,-0.625732,-0.045532,9.0,-8.0,40.0,8233.0,3161.0,1651.0,451.0,1092.0,139.0,-136.0,929.0,729.0,0.949849,0.252514,0.184545,16206.0,5722.0,2850.0,228.0,-174.0,934.0
2827.0,2779.0,2842.0,3090.0,2991.0,0.766968,0.123291,-0.628662,-0.03656,11.0,-9.0,43.0,8098.0,2958.0,1533.0,272.0,1032.0,65.0,-109.0,931.0,514.0,0.955312,0.235088,0.179159,15778.0,5282.0,2794.0,268.0,-185.0,996.0
2831.0,2751.0,2839.0,3067.0,2967.0,0.766357,0.121216,-0.630066,-0.031738,13.0,-8.0,45.0,8023.0,2833.0,1499.0,174.0,983.0,52.0,-117.0,909.0,397.0,0.958017,0.225784,0.176635,15560.0,4912.0,2774.0,301.0,-177.0,1031.0
