flex_1,flex_2,flex_3,flex_4,flex_5,Qw,Qx,Qy,Qz,GYRx,GYRy,GYRz,ACCx,ACCy,ACCz,ACCx_real,ACCy_real,ACCz_real,ACCx_world,ACCy_world,ACCz_world,GRAx,GRAy,GRAz,ACCx_raw,ACCy_raw,ACCz_raw,GYRx_raw,GYRy_raw,GYRz_raw
2851,2767,2834,3088,2993,1,0,0,0,0,0,0,0,0,0,0,0,0,0,0,0,0,0,0,0,0,0,0,0,0
2853,2767,2823,3071,3018,0.907837,0.312256,-0.230408,0.158691,17,-66,-12,5062,2236,3642,823,-1809,-2082,2140,86,-1922,0.51745,0.493827,0.698759,8472,2726,8244,399,-1489,-256
2842,2773,2853,3095,2995,0.903259,0.318237,-0.245911,0.149109,13,-85,-33,4354,1471,3637,-62,-2637,-1903,1736,-758,-2643,0.539146,0.501567,0.676364,6392,344,6612,311,-1933,-739
2847,2743,2850,3071,3006,0.89679,0.327942,-0.26532,0.133179,30,-116,-54,3672,603,3160,-941,-3636,-2115,1547,-1392,-3773,0.563222,0.51752,0.644028,5534,-1056,4574,702,-2648,-1225
2846,2751,2846,3071,2991,0.891907,0.33551,-0.276855,0.12323,43,-133,-62,3432,367,2854,-1291,-3976,-2237,1478,-1512,-4242,0.576548,0.530254,0.621467,5556,-364,3890,999,-3038,-1420
2843,2755,2855,3093,2989,0.878357,0.355713,-0.303162,0.099915,58,-161,-75,3197,730,2225,-1748,-3892,-2387,1232,-1122,-4595,0.60365,0.564305,0.563055,5968,3912,2336,1348,-3677,-1707
2853,2771,2835,3071,3007,0.869995,0.367188,-0.317444,0.086243,58,-172,-82,3092,1356,1727,-1951,-3429,-2604,1058,-484,-4581,0.615684,0.584148,0.528732,5464,6902,78,1334,-3934,-1867
2861,2768,2797,3088,2991,0.85022,0.391052,-0.348328,0.052917,40,-195,-98,3161,3358,144,-2030,-1787,-3554,1079,1634,-4013,0.633697,0.628095,0.45142,7412,13660,-4890,923,-4444,-2222
2837,2762,2811,3088,2960,0.828613,0.410156,-0.380676,0.012207,-9,-195,-103,3834,6350,-2026,-1416,857,-5086,1867,4486,-2233,0.64088,0.670428,0.373606,10520,22468,-11162,-193,-4465,-2337
2849,2771,2811,3089,2959,0.819031,0.415222,-0.395752,-0.009644,-45,-179,-97,4457,7879,-3173,-787,2244,-5973,2677,5757,-1002,0.640258,0.687792,0.341875,12794,24606,-13086,-1015,-4097,-2206
2857,2791,2849,3069,3011,0.805969,0.413574,-0.420227,-0.052002,-107,-131,-81,5560,9658,-5166,363,3838,-7661,4739,7119,622,0.634367,0.710361,0.304656,13390,21972,-16056,-2434,-2996,-1834
2858,2773,2841,3089,2991,0.795349,0.408142,-0.440369,-0.082764,-33,-83,-49,6407,6858,-8687,1221,942,-10971,8942,6338,-1607,0.632935,0.722124,0.278926,13222,2030,-29148,-747,-1879,-1107
2851,2769,2807,3099,2925,0.784912,0.417114,-0.450317,-0.084412,73,-57,-17,6203,7350,-9484,988,1363,-11502,9182,7024,-1209,0.636501,0.73082,0.246442,11354,20772,-22010,1674,-1286,-389
2863,2757,2859,3071,3015,0.761414,0.445007,-0.464783,-0.078857,108,-44,2,5051,9728,-9266,-172,3576,-10674,7158,8658,740,0.637599,0.750972,0.171915,7798,26260,-15058,2491,-989,64
2847,2773,2831,3063,2937,0.741943,0.464661,-0.477234,-0.076233,59,-43,5,5161,10507,-7688,-59,4262,-8610,5267,7714,2241,0.637316,0.762266,0.11263,11524,20704,-10438,1367,-966,129
2843,2747,2831,3071,3018,0.735535,0.470032,-0.481995,-0.075134,41,-29,7,5379,10128,-6856,149,3870,-7621,4694,6749,2339,0.638417,0.763878,0.093408,11946,17450,-8770,940,-643,166
2853,2769,2846,3095,2943,0.728699,0.476013,-0.487061,-0.072144,14,-1,7,5342,8908,-5321,89,2649,-5914,3700,5057,1652,0.641158,0.764017,0.07239,9728,14066,-6166,326,-6,174
2861,2770,2833,3071,2975,0.727661,0.477051,-0.487671,-0.071228,0,6,4,5138,8267,-4563,-119,2010,-5129,3200,4346,1103,0.64176,0.763734,0.069164,9032,12652,-4582,8,147,114
2847,2759,2839,3071,2959,0.728821,0.475891,-0.486938,-0.071594,-21,10,0,4737,6907,-3340,-519,653,-3935,2559,3100,-120,0.64164,0.763403,0.072724,8350,9586,-3858,-462,234,7
2845,2771,2854,3099,2963,0.729736,0.474792,-0.486633,-0.072083,-19,9,0,4557,6260,-3041,-700,8,-3659,2485,2680,-719,0.64178,0.763102,0.075471,8008,8828,-4608,-427,213,1
2858,2769,2847,3071,3018,0.729187,0.475403,-0.486938,-0.071716,5,4,-1,4212,5438,-2924,-1046,-813,-3528,2498,2356,-1552,0.64195,0.763158,0.07374,7466,9266,-5930,115,94,-11
2850,2757,2835,3091,2975,0.727234,0.477722,-0.487671,-0.070679,19,1,-1,4112,5313,-2952,-1145,-943,-3507,2477,2343,-1692,0.641772,0.763767,0.067823,7778,10148,-6086,443,28,-11
2846,2752,2837,3087,2958,0.721252,0.485107,-0.489807,-0.066833,36,-1,1,4148,5513,-3002,-1108,-755,-3406,2347,2400,-1457,0.641706,0.765241,0.049432,8542,12184,-6194,841,-2,29
2842,2758,2859,3091,2975,0.717896,0.48938,-0.490845,-0.064575,37,0,0,4185,5750,-3069,-1070,-525,-3389,2260,2510,-1221,0.641547,0.76604,0.039123,8560,12984,-6606,854,11,18
2861,2770,2877,3069,3029,0.71167,0.497314,-0.49231,-0.061646,24,0,-5,4177,6191,-3400,-1061,-104,-3568,2222,2869,-831,0.639409,0.768545,0.020584,8376,13448,-7960,565,7,-93
2861,2758,2832,3063,2999,0.709106,0.500427,-0.492859,-0.06134,15,-1,-7,4204,6317,-3625,-1019,7,-3733,2319,3018,-693,0.637586,0.770177,0.013257,8596,13298,-8664,346,-2,-144
2862,2767,2832,3071,2975,0.705383,0.504639,-0.493774,-0.062439,-3,0,-8,4255,6406,-4179,-935,68,-4203,2693,3314,-552,0.633582,0.773589,0.002991,8708,12994,-10128,-63,13,-163
2833,2768,2838,3093,2971,0.704224,0.505676,-0.494263,-0.063538,-11,1,-7,4273,6456,-4487,-903,106,-4486,2913,3496,-488,0.631884,0.775027,-3.6E-05,8560,13248,-10896,-247,35,-142
2855,2767,2843,3071,2979,0.703186,0.50592,-0.495117,-0.066528,-27,5,-2,4303,6732,-5150,-849,363,-5131,3345,3991,-240,0.629003,0.777391,-0.0022,8960,14648,-12184,-608,116,-38
2851,2768,2851,3071,2991,0.704834,0.503052,-0.495239,-0.069275,-42,17,6,4440,7202,-5845,-708,830,-5871,3821,4584,181,0.628425,0.777751,0.003267,9258,15930,-13926,-950,401,144
2861,2759,2835,3095,2975,0.706726,0.500977,-0.494629,-0.069946,-46,27,9,4514,7396,-6286,-639,1028,-6357,4162,4943,341,0.629051,0.777301,0.008719,9498,15688,-15468,-1032,624,221
2852,2759,2829,3094,2967,0.711304,0.49762,-0.49176,-0.067261,-35,52,17,4837,7580,-7405,-345,1238,-7577,5145,5678,580,0.632641,0.77407,0.021024,10956,15592,-18180,-795,1209,409
2855,2781,2857,3071,2975,0.713806,0.496887,-0.489502,-0.062744,-23,68,26,5055,7709,-7912,-158,1394,-8132,5555,6054,754,0.636465,0.770789,0.026947,11462,16370,-18688,-520,1572,603
2839,2783,2815,3091,2989,0.720093,0.49646,-0.482544,-0.046265,-7,103,48,5615,8289,-8329,298,2065,-8667,5727,6685,1403,0.649016,0.759644,0.041353,12850,18676,-16866,-155,2363,1105
2854,2775,2839,3071,2999,0.730347,0.494202,-0.470947,-0.0224,-12,135,64,5893,8883,-8016,439,2796,-8572,5120,7215,1787,0.665769,0.742975,0.067881,12180,19170,-14452,-255,3107,1475
2843,2775,2831,3071,2975,0.737244,0.491455,-0.463501,-0.008972,-19,148,71,5939,9018,-7622,412,3013,-8336,4672,7335,1759,0.674607,0.732961,0.087247,12136,18622,-12606,-431,3392,1628
2847,2771,2823,3071,2975,0.754333,0.481262,-0.446045,0.019897,-38,166,83,5873,8927,-6543,203,3124,-7680,3708,7305,1286,0.692085,0.708314,0.138846,11304,16758,-9512,-868,3821,1909
2855,2771,2847,3071,2979,0.763977,0.474121,-0.436218,0.035034,-43,174,86,5788,8548,-5895,55,2863,-7286,3310,7049,787,0.699742,0.69387,0.169811,11020,14482,-7858,-983,3994,1973
2847,2762,2827,3089,2975,0.783447,0.458374,-0.414062,0.067627,-35,188,88,5502,7151,-4524,-320,1726,-6463,2747,6076,-614,0.710789,0.66222,0.236809,10082,9146,-4690,-785,4312,2024
2854,2763,2851,3071,2979,0.800842,0.444031,-0.387817,0.104736,-6,201,88,5088,5528,-2832,-762,367,-5328,2110,4570,-1936,0.714173,0.62996,0.304752,8680,6576,-160,-118,4615,2026
2839,2759,2831,3095,2993,0.808594,0.4375,-0.373047,0.124451,2,203,88,4795,4928,-1806,-1039,-107,-4580,1603,3733,-2357,0.712181,0.614668,0.338742,7770,6480,2844,51,4663,2022
2855,2770,2850,3093,2975,0.823547,0.422607,-0.341614,0.162415,-8,196,82,4019,4117,616,-1714,-676,-2737,316,1846,-2715,0.699945,0.585108,0.409312,5312,6128,8748,-164,4509,1899
2854,2779,2849,3071,2985,0.831299,0.412964,-0.325867,0.179321,-22,188,77,3507,3770,1835,-2144,-897,-1822,-324,868,-2803,0.689892,0.569723,0.446486,3808,5382,10846,-502,4307,1766
2851,2771,2848,3071,2991,0.847412,0.389893,-0.296753,0.204346,-53,139,40,315,2152,3893,-5110,-2267,-365,-2347,-1690,-4797,0.66229,0.539519,0.519786,-16622,-4262,13898,-1201,3189,921
2847,2759,2839,3071,2979,0.862549,0.370789,-0.28064,0.199341,-66,-11,-57,-1136,-199,7805,-6312,-4522,3156,-3381,-6147,-4584,0.631957,0.527761,0.567484,6362,-5854,30404,-1495,-249,-1300
2847,2766,2843,3071,2987,0.868408,0.360535,-0.281433,0.191284,-72,-29,-55,315,-1246,9018,-4819,-5493,4254,-2255,-7407,-3394,0.626727,0.518515,0.581533,8802,-7994,22538,-1649,-658,-1256
2871,2763,2831,3071,2992,0.876099,0.342407,-0.286499,0.181946,-63,-13,-12,2451,-1405,7961,-2682,-5465,3034,-394,-6287,-2565,0.626602,0.49571,0.601329,9752,-1894,9234,-1422,-278,-267
2851,2757,2834,3071,2975,0.878052,0.334106,-0.292908,0.177734,-18,-22,-10,3510,-638,4974,-1676,-4591,16,1042,-3482,-3267,0.633141,0.482606,0.605142,9868,1774,602,-410,-482,-228
2855,2767,2839,3071,2975,0.876648,0.335693,-0.29657,0.175293,7,-29,-18,4038,102,3501,-1185,-3867,-1402,1618,-1914,-3468,0.637664,0.484597,0.598596,11392,5154,-1582,161,-644,-405
2851,2768,2839,3071,2987,0.870728,0.347595,-0.304077,0.168884,33,-38,-28,5312,2261,1426,12,-1856,-3271,2295,1015,-2800,0.646943,0.502614,0.573403,14844,11514,-1732,775,-856,-628
2847,2763,2839,3066,2987,0.867004,0.354858,-0.307983,0.16571,33,-37,-23,6036,3410,873,697,-794,-3701,2469,2152,-2019,0.651653,0.513255,0.558378,16402,13640,-1182,774,-846,-508
2850,2766,2845,3071,2979,0.860168,0.365662,-0.315979,0.162781,15,-23,3,7307,5176,417,1878,865,-3947,2636,3568,-403,0.662636,0.526191,0.532836,17948,14276,268,344,-519,77
2845,2763,2843,3071,2983,0.856018,0.368835,-0.322083,0.165466,-1,1,21,7875,5551,387,2357,1251,-3875,2750,3809,227,0.673477,0.524872,0.520369,16444,10704,918,-8,39,490
2847,2767,2839,3091,2961,0.854919,0.368774,-0.323669,0.168274,-2,12,23,7868,5291,480,2317,1017,-3767,2782,3581,147,0.677533,0.521615,0.518447,15500,8694,1664,-23,277,535
2854,2763,2839,3071,2982,0.853699,0.367859,-0.324158,0.175293,5,22,21,7429,4391,894,1838,176,-3358,2669,2720,-398,0.682432,0.514436,0.519131,12946,5786,3362,120,506,489
2851,2762,2847,3071,2989,0.85321,0.367615,-0.323669,0.178894,8,20,19,7049,3902,1223,1446,-288,-3037,2484,2162,-737,0.683844,0.5115,0.520069,11692,4914,4536,206,477,439
2851,2763,2835,3071,2965,0.852051,0.368164,-0.322754,0.184998,16,9,12,6126,2921,1986,504,-1240,-2277,1992,920,-1469,0.686224,0.507972,0.5205,9364,2824,6326,367,211,284
2851,2775,2849,3089,2982,0.851074,0.369141,-0.322876,0.187256,20,0,8,5618,2411,2359,-16,-1745,-1891,1738,268,-1877,0.68783,0.507411,0.518878,8144,1764,6956,469,12,184
2847,2771,2838,3070,2975,0.848145,0.373535,-0.324341,0.18927,31,-21,-6,4530,1551,3079,-1135,-2633,-1102,1119,-965,-2692,0.691574,0.510848,0.510447,5668,938,8290,713,-459,-121
2846,2757,2847,3071,2983,0.846313,0.377014,-0.325684,0.188416,33,-32,-15,3941,1266,3410,-1738,-2956,-714,714,-1489,-3088,0.693331,0.515417,0.503537,4314,964,8762,766,-722,-333
2854,2768,2845,3071,2983,0.842041,0.385803,-0.330322,0.18158,30,-59,-36,2735,874,3820,-2969,-3465,-145,-122,-2244,-3973,0.696398,0.529765,0.484047,1816,596,8374,704,-1329,-803
2849,2775,2843,3088,2990,0.839478,0.391052,-0.333984,0.175293,29,-74,-46,2125,631,3830,-3591,-3788,-28,-452,-2493,-4562,0.697842,0.539469,0.470983,602,-288,7464,676,-1691,-1043
2851,2770,2834,3071,2983,0.832092,0.404358,-0.345459,0.157043,35,-113,-66,960,29,3414,-4790,-4594,-142,-862,-2667,-6016,0.701911,0.564422,0.434193,-1396,-1768,5064,820,-2582,-1509
2854,2767,2850,3088,2979,0.819214,0.423828,-0.363098,0.131592,53,-157,-84,-12,-417,2533,-5799,-5322,-555,-1014,-2252,-7493,0.706455,0.59885,0.376957,-2482,-1660,1978,1221,-3585,-1914
2850,2777,2847,3071,2990,0.810059,0.436157,-0.374207,0.116333,62,-178,-92,-303,-430,1966,-6100,-5505,-814,-981,-1773,-8004,0.707737,0.619561,0.339465,-2150,-630,428,1422,-4064,-2100
2843,2767,2833,3071,2983,0.786194,0.464417,-0.399658,0.080139,65,-210,-110,-313,600,573,-6070,-4857,-1467,-824,-45,-7867,0.702854,0.666186,0.249114,532,6046,-3316,1490,-4802,-2518
2846,2771,2854,3093,2992,0.758545,0.492126,-0.425659,0.034546,35,-221,-134,442,2888,-1247,-5126,-2987,-2502,-317,2287,-6010,0.679765,0.717191,0.15321,3108,13496,-9436,820,-5056,-3055
2861,2775,2855,3069,2983,0.743958,0.504883,-0.437683,0.007935,18,-222,-147,891,4167,-2629,-4509,-1930,-3506,349,3651,-4784,0.659247,0.744277,0.107063,4788,15970,-13832,425,-5082,-3359
2847,2773,2853,3071,3010,0.713684,0.527161,-0.45874,-0.047852,-2,-205,-156,2401,6326,-5472,-2549,-197,-5662,2610,5332,-1829,0.60434,0.796355,0.023294,9800,18206,-19174,-24,-4684,-3572
2847,2736,2828,3071,3031,0.682861,0.546509,-0.475647,-0.093445,25,-162,-118,5298,6577,-8482,813,-265,-8073,6603,4679,626,0.547465,0.835273,-0.04988,24380,6666,-29966,592,-3699,-2698
2854,2762,2835,3069,2995,0.661682,0.558899,-0.490356,-0.096313,152,-124,-30,7143,6265,-10156,2708,-567,-9289,8621,3961,1974,0.541261,0.834083,-0.105718,21752,19632,-26854,3490,-2822,-667
2847,2781,2842,3071,2942,0.624451,0.581726,-0.516541,-0.068909,154,-23,100,7804,10920,-9515,3176,4385,-7790,4842,4298,6932,0.564936,0.797707,-0.210532,10802,32767,-19996,3537,-515,2293
2863,2769,2832,3117,2975,0.603455,0.592346,-0.531067,-0.053894,63,-34,35,6671,13068,-9540,1943,6742,-7362,2221,5464,8284,0.577102,0.772151,-0.265844,11706,28584,-15970,1463,-774,807
2862,2771,2851,3071,2954,-0.002563,0,0.402466,0.776306,-8801,-19862,-32582,-225,-27797,29333,-241,32621,25722,261,1698,31718,0.002063,0.624873,0.440679,12908,17340,-11638,-209,-907,-354
2845,2747,2847,3039,3030,0.592041,0.595825,-0.538757,-0.064758,-29,-34,-19,6534,10449,-7332,1940,4097,-4951,2021,2906,5702,0.560764,0.775284,-0.290561,12882,12438,-10412,-655,-775,-428
2859,2751,2845,3063,2962,0.591003,0.593567,-0.541382,-0.072083,-23,-17,-11,6269,7682,-6126,1727,1295,-3742,2689,1445,3055,0.554345,0.779648,-0.290935,11408,8348,-8524,-523,-378,-239
2855,2771,2839,3094,2975,0.590698,0.592285,-0.542908,-0.073608,-6,-2,-1,5759,6291,-4887,1219,-95,-2501,2362,632,1329,0.554195,0.779649,-0.291208,10022,10146,-6042,-136,-27,-11
2861,2761,2835,3095,2995,0.59082,0.59198,-0.543274,-0.072998,-1,3,3,5512,6065,-4358,961,-315,-1972,1995,431,862,0.555528,0.778823,-0.291189,9540,10946,-5812,-20,79,70
2846,2779,2845,3071,2993,0.589905,0.592651,-0.543945,-0.069824,13,6,5,5000,5818,-3980,420,-532,-1569,1603,519,284,0.558989,0.775177,-0.294249,8200,11608,-7784,308,149,127
2871,2752,2847,3087,2991,0.588013,0.59436,-0.544373,-0.067688,24,3,3,4704,5721,-4087,118,-608,-1635,1570,763,85,0.559734,0.772678,-0.299265,7624,10986,-9200,560,85,76
2835,2759,2827,3067,2974,0.580627,0.600342,-0.546326,-0.063293,39,-6,0,4272,5741,-4425,-302,-536,-1822,1487,1219,0,0.558428,0.766308,-0.317748,7898,12148,-9616,908,-133,13
2859,2781,2847,3071,2931,0.576355,0.603516,-0.547546,-0.061157,38,-8,1,4267,5859,-4526,-298,-388,-1838,1407,1271,141,0.557343,0.762651,-0.328113,8650,12466,-9532,891,-174,26
2847,2767,2847,3103,2999,0.569824,0.608337,-0.549438,-0.057556,24,-3,0,4385,6087,-4655,-170,-110,-1837,1278,1254,454,0.55614,0.756538,-0.343945,9144,12342,-9912,554,-49,22
2855,2755,2863,3071,2997,0.567688,0.609985,-0.549927,-0.056091,16,1,0,4479,6066,-4732,-75,-112,-1872,1335,1208,527,0.555944,0.754255,-0.349086,9602,11970,-9858,388,41,16
2843,2754,2823,3093,2981,0.566162,0.611572,-0.550049,-0.053528,0,9,1,4614,5972,-4854,48,-183,-1960,1479,1161,581,0.557361,0.751384,-0.35317,9458,11644,-10100,18,227,34
2855,2777,2845,3071,2967,0.566467,0.611572,-0.549805,-0.052612,-6,11,1,4640,5888,-4900,64,-261,-2011,1566,1165,548,0.55854,0.750724,-0.352653,9426,11230,-10016,-136,270,40
2851,2768,2855,3071,3003,0.568359,0.610596,-0.549011,-0.051575,-16,13,1,4657,5768,-4940,60,-381,-2084,1688,1189,474,0.561089,0.750706,-0.348548,9394,11336,-9880,-350,306,29
2847,2763,2829,3071,2995,0.569763,0.609741,-0.548462,-0.051575,-19,13,0,4632,5740,-4997,27,-415,-2168,1755,1259,451,0.562092,0.75139,-0.345305,9072,11342,-10402,-428,301,12
2847,2759,2843,3069,2973,0.572632,0.60791,-0.547485,-0.052368,-24,11,-1,4627,5840,-5113,12,-333,-2338,1821,1399,547,0.563345,0.753559,-0.338645,9600,12440,-10298,-530,269,-17
2847,2763,2854,3088,2983,0.574707,0.606628,-0.546692,-0.053223,-29,13,-2,4667,6067,-5100,48,-121,-2365,1730,1445,724,0.563803,0.75546,-0.333749,9604,13638,-9970,-652,315,-29
2847,2763,2847,3071,2994,0.581055,0.602783,-0.543884,-0.056152,-45,20,-3,4676,6651,-5201,52,412,-2592,1591,1729,1168,0.564358,0.761581,-0.31838,9322,15118,-11030,-1030,471,-56
2845,2757,2839,3087,2959,0.58551,0.600037,-0.541931,-0.058289,-56,25,-3,4676,6948,-5330,50,674,-2810,1607,1945,1408,0.564662,0.765832,-0.307514,9336,15658,-11562,-1261,575,-59
2865,2771,2827,3063,2991,0.59668,0.592957,-0.536987,-0.063293,-72,34,-2,4631,7352,-5912,-3,998,-3618,2028,2604,1785,0.565758,0.775586,-0.27992,9196,15366,-14276,-1647,781,-30
2853,2774,2833,3071,2975,0.608032,0.584839,-0.532776,-0.065918,-65,43,13,4697,7305,-7059,21,903,-4995,3139,3464,1975,0.570787,0.781441,-0.251838,9764,14218,-17964,-1484,985,298
2847,2758,2835,3055,3005,0.612732,0.58136,-0.531433,-0.064148,-50,51,23,4823,7289,-7663,98,894,-5689,3688,3879,2124,0.576666,0.780616,-0.240845,10582,14622,-18820,-1144,1183,543
2863,2787,2852,3071,2973,0.620972,0.576721,-0.528137,-0.052673,-17,80,38,5306,7683,-8513,430,1359,-6684,4238,4572,2796,0.595161,0.771893,-0.223156,12292,17070,-18938,-384,1850,883
2851,2751,2819,3063,3007,0.625427,0.5755,-0.525146,-0.043274,-7,99,43,5620,8043,-8662,646,1773,-6909,4194,4826,3227,0.607073,0.765318,-0.213948,13182,18344,-17806,-143,2281,996
2863,2743,2831,3071,2999,0.637878,0.572388,-0.514832,-0.019287,-8,137,52,6085,8912,-8328,885,2767,-6809,3474,5245,3899,0.63472,0.750087,-0.185418,12858,20434,-15138,-169,3154,1198
2859,2778,2827,3071,2971,0.656677,0.565369,-0.499023,0.007019,-34,165,57,6064,9568,-7576,629,3542,-6450,2460,5762,3908,0.663331,0.735524,-0.137392,11780,20712,-12492,-766,3791,1322
2863,2775,2859,3095,2983,0.66864,0.559448,-0.489441,0.019958,-51,176,58,5965,9665,-7088,420,3696,-6227,2032,5941,3631,0.676851,0.728602,-0.105057,11260,19494,-11128,-1159,4034,1341
2859,2767,2863,3071,2986,0.695984,0.542542,-0.46814,0.045288,-77,188,63,5533,9081,-6106,-207,3241,-5884,1579,6104,2324,0.700777,0.712798,-0.027061,9232,15424,-9514,-1747,4322,1457
2849,2768,2832,3089,2987,0.72345,0.521912,-0.446106,0.071838,-75,191,71,4932,7795,-5059,-969,2133,-5527,1364,5827,460,0.720457,0.691059,0.057138,8362,11528,-6244,-1697,4382,1629
2855,2753,2819,3070,2981,0.736389,0.511169,-0.434631,0.086426,-66,193,73,4686,7095,-4335,-1281,1543,-5150,1181,5383,-400,0.728472,0.677713,0.09954,7876,9872,-4224,-1510,4440,1694
2847,2768,2850,3087,2989,0.76001,0.490295,-0.40979,0.118347,-46,198,78,4123,5843,-2722,-1930,532,-4223,603,4246,-1855,0.738939,0.648264,0.183303,6524,8362,-186,-1042,4557,1792
2851,2775,2853,3107,2991,0.770935,0.479919,-0.396301,0.135254,-41,201,79,3832,5392,-1770,-2237,208,-3615,164,3551,-2340,0.740867,0.632771,0.225257,5886,8344,2336,-931,4607,1824
2853,2775,2851,3071,2991,0.792419,0.457092,-0.366943,0.168579,-49,203,76,3155,4762,315,-2871,-158,-2247,-878,2018,-2909,0.735659,0.6007,0.312767,4260,7646,7398,-1102,4656,1756
2855,2769,2847,3088,2991,0.815613,0.427124,-0.335938,0.198669,-83,200,72,2377,4009,2584,-3502,-605,-769,-1774,172,-3168,0.717703,0.563255,0.409405,2002,5218,11464,-1890,4582,1653
2839,2762,2845,3071,2973,0.82782,0.408691,-0.320862,0.211487,-102,191,67,1824,3328,3490,-3943,-1103,-278,-2003,-756,-3500,0.704097,0.54093,0.460031,182,2100,12178,-2328,4391,1535
2839,2767,2835,3057,2961,0.852173,0.369202,-0.292847,0.227295,-115,130,8,-2712,-262,4989,-8175,-4326,435,-3460,-4430,-7356,0.666947,0.496122,0.555793,-26094,-17824,14820,-2623,2982,200
2851,2737,2838,3071,2991,0.871704,0.342712,-0.277649,0.213257,-78,-11,-88,-2818,-3693,9174,-7980,-7617,4170,-3150,-9567,-6131,0.630227,0.479067,0.610806,4100,-16538,31918,-1766,-241,-2015
2851,2755,2849,3071,2991,0.878113,0.332214,-0.277283,0.203918,-61,-24,-75,-1480,-4755,10222,-6579,-8608,5098,-2142,-10686,-4955,0.62246,0.470357,0.625413,4440,-14234,24586,-1385,-534,-1706
2851,2763,2853,3071,2979,0.88562,0.316467,-0.278931,0.19397,-41,-15,-23,214,-4608,9598,-4839,-8313,4322,-1002,-9720,-3961,0.616823,0.452331,0.643993,3702,-7134,14512,-922,-340,-507
2845,2759,2837,3071,2981,0.887512,0.311768,-0.282776,0.187195,2,-39,-33,567,-3133,7335,-4501,-6799,2046,-795,-7050,-4506,0.618657,0.447527,0.645559,1540,-858,7444,56,-872,-741
2845,2766,2837,3087,2975,0.886597,0.315491,-0.285583,0.180969,21,-56,-53,666,-2194,6228,-4417,-5930,1003,-828,-5646,-4805,0.620583,0.456062,0.637711,2088,1216,6112,499,-1269,-1199
2850,2759,2831,3071,2981,0.881592,0.330994,-0.294556,0.162415,41,-90,-77,1485,-220,5021,-3650,-4217,46,-812,-3434,-4317,0.626872,0.487922,0.607263,6722,5976,8380,958,-2058,-1744
2847,2767,2845,3071,2986,0.874268,0.347351,-0.308228,0.141174,28,-103,-67,2849,1637,4834,-2369,-2625,175,-691,-2085,-2775,0.637021,0.520328,0.568617,9526,7822,9336,662,-2340,-1530
2847,2763,2839,3071,2979,0.870483,0.353638,-0.31604,0.131531,21,-101,-56,3392,2169,4783,-1877,-2193,276,-570,-1771,-2223,0.643244,0.532534,0.550101,9808,7084,9226,501,-2299,-1280
2851,2763,2839,3071,2989,0.862427,0.364014,-0.332092,0.115479,24,-98,-41,3856,2440,4454,-1525,-2075,240,-350,-1573,-2021,0.656882,0.551171,0.514324,8118,4626,7482,572,-2230,-929
2845,2758,2843,3071,2983,0.857605,0.369873,-0.340393,0.108459,35,-101,-39,3810,2282,4149,-1630,-2310,97,-251,-1584,-2329,0.664078,0.560572,0.494576,7132,3450,6350,804,-2305,-890
2847,2767,2845,3071,2987,0.844543,0.38623,-0.358521,0.094788,65,-119,-43,3472,1872,3371,-2088,-2915,-270,-95,-1554,-3240,0.678792,0.58441,0.444527,5880,2776,4318,1501,-2724,-981
2851,2765,2837,3071,2989,0.8255,0.409302,-0.380249,0.079956,87,-148,-47,3178,2036,2634,-2501,-3001,-443,-166,-1182,-3745,0.693244,0.614951,0.375727,5566,5632,3182,2006,-3372,-1069
2845,2768,2839,3071,2981,0.814026,0.421997,-0.392639,0.071228,88,-161,-49,3100,2406,2406,-2629,-2763,-342,-357,-930,-3697,0.699353,0.631099,0.335465,5772,7370,3504,2033,-3675,-1122
2853,2769,2843,3087,2987,0.789673,0.445312,-0.419067,0.049744,68,-178,-56,3061,3237,2000,-2723,-2182,-65,-727,-454,-3382,0.706155,0.66161,0.252137,6132,8516,2640,1565,-4064,-1260
2855,2767,2831,3071,3007,0.764648,0.464905,-0.445557,0.023621,51,-181,-65,2998,3628,1179,-2763,-2023,-218,-607,58,-3376,0.703351,0.689929,0.170588,5504,8172,-930,1187,-4130,-1487
2847,2767,2839,3071,2979,0.751587,0.474304,-0.458252,0.009216,48,-181,-72,2881,3770,506,-2833,-2001,-559,-364,495,-3458,0.697575,0.704515,0.130008,5030,8442,-3164,1106,-4127,-1649
2849,2759,2839,3088,2983,0.723633,0.494141,-0.481262,-0.022278,44,-176,-89,2704,4387,-1068,-2821,-1647,-1464,270,1607,-3186,0.674497,0.736596,0.048352,5300,10914,-6770,1029,-4028,-2031
2845,2766,2837,3071,2983,0.694702,0.514221,-0.499817,-0.055603,40,-162,-101,2664,5137,-2628,-2556,-1171,-2394,1047,2544,-2462,0.637263,0.770044,-0.028538,4948,12954,-10210,926,-3710,-2292
2830,2750,2827,3071,2963,0.680054,0.52417,-0.507446,-0.072327,36,-155,-102,2575,5727,-3509,-2457,-714,-2980,1426,3140,-1878,0.614359,0.786331,-0.064552,4534,15326,-12484,832,-3531,-2322
2853,2761,2837,3067,2981,0.651672,0.541992,-0.519897,-0.105896,17,-139,-97,2414,7385,-5429,-2196,696,-4379,2214,4423,-106,0.562816,0.816513,-0.128158,4756,19786,-16520,393,-3168,-2204
2851,2754,2829,3067,3011,0.61969,0.558777,-0.537964,-0.119568,147,-91,-14,5285,4905,-9233,917,-1822,-7567,7241,2947,531,0.533118,0.821183,-0.203325,16254,6246,-27892,3368,-2081,-315
2851,2762,2839,3071,2967,0.597595,0.574036,-0.550354,-0.102417,250,-32,63,5799,7718,-9342,1373,1174,-7172,5475,3452,3578,0.540196,0.798813,-0.264797,12204,32767,-17830,5728,-722,1446
2847,2765,2832,3087,2987,0.566589,0.594482,-0.565369,-0.077026,127,-36,52,3790,11705,-10178,-708,5472,-7342,1928,6383,6315,0.549082,0.760751,-0.346094,3750,32767,-22212,2910,-811,1211
2843,2765,2839,3071,3003,0.547546,0.603149,-0.574463,-0.079773,17,-57,-7,3938,12729,-9310,-427,6567,-6134,332,5527,7089,0.53286,0.752158,-0.387626,9044,23606,-14552,392,-1288,-159
2850,2755,2832,3099,3007,0.543579,0.604065,-0.576294,-0.086426,-19,-51,-21,4095,11982,-8700,-182,5786,-5471,455,4668,6436,0.522109,0.756327,-0.394062,9270,18730,-13806,-433,-1147,-476
2843,2768,2847,3088,2943,0.543213,0.600464,-0.57782,-0.102051,-63,-31,-19,4647,9610,-7184,508,3299,-3997,1233,2578,4352,0.505203,0.770293,-0.388938,11050,11654,-9428,-1438,-705,-432
2859,2763,2846,3045,2995,0.550476,0.592651,-0.577087,-0.112549,-62,2,-5,4896,7482,-5623,784,1072,-2603,1642,1018,2191,0.501941,0.782382,-0.368574,9336,9732,-7136,-1398,48,-99
2850,2759,2833,3091,2967,0.554749,0.589233,-0.575989,-0.115173,-51,11,-1,4631,6759,-5081,507,316,-2148,1647,798,1272,0.50333,0.78643,-0.357948,7442,9458,-7090,-1163,272,-16
2843,2757,2832,3103,2962,0.560059,0.585876,-0.573853,-0.11731,-18,10,-2,4026,5757,-4337,-113,-721,-1509,1531,671,-106,0.505324,0.790887,-0.345131,6556,9178,-6796,-407,248,-28
2855,2765,2815,3070,2991,0.560303,0.586121,-0.573425,-0.116821,2,6,-3,3808,5527,-4073,-334,-951,-1248,1382,649,-490,0.505641,0.790787,-0.344768,6362,10034,-6660,67,155,-50
2859,2763,2813,3039,2959,0.556152,0.59021,-0.573792,-0.114441,30,-5,-6,3501,5673,-3769,-620,-780,-859,897,733,-621,0.503143,0.787824,-0.355182,6452,12336,-6782,706,-110,-122
2864,2765,2839,3071,2993,0.552612,0.593201,-0.574341,-0.11322,36,-10,-8,3455,5875,-3723,-644,-561,-744,681,758,-492,0.500451,0.785674,-0.363555,6738,12978,-7276,828,-207,-172
2855,2768,2845,3063,3003,0.545227,0.599365,-0.575378,-0.111145,32,-10,-9,3584,6284,-3733,-464,-117,-614,388,668,-87,0.494191,0.781481,-0.380673,7690,13740,-7696,741,-212,-199
2843,2764,2834,3059,3007,0.542419,0.601929,-0.575562,-0.110352,26,-6,-9,3678,6423,-3760,-348,33,-588,317,600,82,0.491544,0.780024,-0.387193,7778,13622,-7824,607,-117,-200
2858,2759,2809,3033,2971,0.538818,0.605774,-0.575073,-0.109497,11,0,-9,3684,6490,-4076,-305,110,-837,470,716,268,0.487059,0.778742,-0.395356,7162,12868,-9512,263,15,-201
2847,2779,2832,3055,2993,0.537659,0.607178,-0.574707,-0.109375,6,1,-8,3671,6420,-4321,-303,41,-1061,677,816,307,0.485172,0.778626,-0.397913,7330,12354,-10072,140,40,-169
2855,2765,2851,3091,2983,0.536194,0.608887,-0.574219,-0.109253,-1,3,-5,3724,6357,-4702,-230,-19,-1416,998,930,442,0.48274,0.778433,-0.40103,7594,12746,-10404,-16,77,-96
2855,2771,2818,3087,2987,0.53595,0.609375,-0.573975,-0.109375,-5,3,-4,3714,6397,-4866,-234,17,-1576,1095,1026,533,0.481942,0.778746,-0.40158,7316,13112,-10688,-93,80,-75
2847,2768,2839,3056,2995,0.536011,0.609558,-0.573486,-0.110535,-13,2,-3,3715,6677,-5115,-217,285,-1830,1137,1207,851,0.480035,0.78024,-0.400922,7604,14684,-10728,-278,61,-52
2847,2745,2863,3071,2973,0.536865,0.609009,-0.572998,-0.111755,-19,4,-3,3760,6981,-5159,-164,574,-1894,1039,1263,1125,0.479125,0.781983,-0.398505,7786,15930,-10526,-433,101,-49
2839,2763,2843,3071,2999,0.541504,0.606201,-0.570923,-0.115479,-40,11,-1,3820,7613,-5264,-98,1154,-2094,901,1453,1673,0.478307,0.788379,-0.386871,7772,16968,-10968,-900,261,-6
2851,2769,2852,3071,2983,0.54541,0.603577,-0.569458,-0.117981,-52,15,2,3822,7879,-5374,-99,1384,-2284,938,1614,1911,0.478755,0.792764,-0.377195,7588,17300,-11462,-1182,360,54
2845,2757,2846,3071,2983,0.555847,0.596069,-0.566223,-0.123047,-67,24,10,3854,7977,-5929,-100,1407,-3047,1574,2040,2152,0.482778,0.801991,-0.351801,7892,15546,-14146,-1533,567,246
2851,2751,2823,3071,2991,0.56604,0.588135,-0.56427,-0.123291,-50,38,25,4029,7688,-6882,-16,1093,-4189,2705,2522,2248,0.493775,0.804955,-0.328701,9052,14610,-16538,-1131,889,586
2855,2767,2831,3063,3003,0.570496,0.585205,-0.56366,-0.119812,-33,50,32,4223,7623,-7301,103,1046,-4676,3150,2708,2389,0.502902,0.80278,-0.320357,9618,14984,-17066,-736,1162,742
2847,2767,2827,3099,2979,0.578186,0.582458,-0.561523,-0.105469,2,76,42,4592,7817,-7961,279,1329,-5428,3581,3194,2877,0.526468,0.791985,-0.309144,10204,16888,-17522,47,1756,965
2858,2770,2831,3071,2995,0.58197,0.582214,-0.559692,-0.095276,11,89,47,4796,8110,-8089,368,1684,-5594,3484,3425,3222,0.540507,0.784313,-0.304462,10952,18064,-16636,261,2044,1085
2855,2775,2838,3071,2983,0.592712,0.580261,-0.554016,-0.071045,5,116,61,5267,8891,-7843,562,2611,-5489,2809,3761,3901,0.574295,0.766576,-0.287282,11836,20284,-14352,128,2661,1402
2854,2753,2835,3095,2970,0.610168,0.573914,-0.544312,-0.0448,-20,143,68,5412,9556,-7375,391,3419,-5316,2013,4351,4137,0.612821,0.749138,-0.251339,10674,20692,-13322,-458,3281,1569
2851,2768,2853,3071,2992,0.621277,0.568848,-0.537903,-0.031921,-36,153,71,5358,9726,-7103,180,3654,-5252,1685,4696,4008,0.632056,0.741165,-0.225923,10362,20200,-12538,-817,3516,1627
2851,2765,2833,3087,2959,0.647461,0.55426,-0.522949,-0.005981,-60,171,78,5261,9328,-6376,-232,3397,-5053,1407,5040,3119,0.670548,0.72398,-0.161439,10216,16368,-10234,-1360,3939,1797
2854,2743,2854,3067,2993,0.67627,0.536011,-0.504761,0.022705,-62,191,83,4971,8452,-5444,-821,2700,-4753,1183,5119,1715,0.707049,0.702054,-0.084235,8618,14238,-7944,-1411,4392,1902
2855,2762,2842,3095,2975,0.690796,0.526306,-0.494263,0.038147,-60,198,85,4722,7910,-4886,-1201,2262,-4536,1008,5033,884,0.723023,0.689431,-0.04264,7932,12300,-6258,-1370,4549,1955
2839,2759,2834,3071,2949,0.71936,0.505249,-0.471313,0.071655,-54,208,92,4108,6764,-3440,-2040,1362,-3810,405,4440,-805,0.750496,0.659368,0.045201,6138,10380,-2150,-1229,4776,2119
2851,2766,2882,3071,2987,0.747009,0.482056,-0.44519,0.106567,-53,211,91,3290,5622,-1764,-3000,499,-2901,-404,3430,-2394,0.767866,0.625315,0.138807,3862,7484,1546,-1204,4847,2100
2855,2749,2853,3071,2977,0.760193,0.469788,-0.431335,0.123718,-52,208,88,2805,4886,-907,-3519,-90,-2434,-735,2714,-3225,0.772039,0.60753,0.186449,2654,5142,3370,-1189,4779,2032
2851,2762,2847,3059,2997,0.784241,0.44458,-0.403259,0.156738,-46,192,81,1828,3179,890,-4495,-1497,-1398,-1217,826,-4714,0.77187,0.570903,0.279331,698,1058,7254,-1041,4419,1864
2849,2751,2870,3071,2987,0.794861,0.432068,-0.389648,0.17218,-42,180,76,1355,2310,1822,-4938,-2217,-823,-1404,-270,-5284,0.76822,0.552688,0.322941,-84,-654,9302,-941,4125,1751
2858,2778,2813,3063,2983,0.813171,0.40918,-0.363525,0.197632,-33,131,42,-1952,39,3900,-8120,-4235,617,-2982,-3179,-8076,0.752951,0.521778,0.400727,-21926,-9630,15224,-738,3011,965
2839,2767,2833,3071,2994,0.827881,0.397278,-0.34491,0.194336,-27,-10,-64,-3358,-2244,8359,-9301,-6534,4702,-4451,-8144,-8071,0.725499,0.523741,0.446361,2852,-9772,32767,-602,-214,-1461
2843,2765,2827,3071,2979,0.833008,0.390991,-0.343201,0.187988,-31,-29,-56,-1698,-3235,10250,-7586,-7514,6493,-3650,-10092,-6400,0.718781,0.522362,0.458581,5806,-11486,29452,-689,-650,-1265
2853,2767,2831,3071,2993,0.839844,0.377808,-0.343689,0.183594,-34,-14,2,345,-3147,10566,-5520,-7311,6648,-2605,-10056,-4490,0.716016,0.5084,0.478184,4970,-4718,18682,-759,-302,57
2847,2767,2838,3057,2981,0.842346,0.368225,-0.348145,0.183289,-12,-35,4,824,-2417,8534,-5086,-6453,4549,-1918,-7938,-4636,0.721499,0.492724,0.486347,1884,-2578,9626,-260,-782,92
2847,2767,2835,3071,2975,0.841064,0.368652,-0.352173,0.180725,9,-57,-15,824,-1989,7252,-5120,-6026,3318,-1642,-6701,-5092,0.72565,0.492828,0.480121,1654,-1312,6920,210,-1292,-327
2855,2762,2842,3071,2993,0.833496,0.380005,-0.364319,0.167725,39,-108,-54,985,-1020,5249,-5034,-5208,1597,-1282,-4631,-5649,0.734789,0.511255,0.445715,3428,1446,6172,913,-2454,-1231
2854,2767,2837,3071,2991,0.820312,0.399292,-0.382141,0.14679,48,-144,-67,1941,315,4573,-4155,-4132,1386,-1212,-3432,-4796,0.744174,0.5429,0.388994,6952,4376,7846,1109,-3294,-1524
2851,2767,2838,3071,2975,0.812561,0.408936,-0.392578,0.135315,46,-152,-64,2398,818,4367,-3735,-3755,1440,-1174,-3093,-4378,0.748658,0.558327,0.35722,7410,4360,7452,1066,-3460,-1462
2851,2769,2846,3071,2989,0.794922,0.42749,-0.415161,0.113708,53,-158,-54,2847,1103,3677,-3356,-3691,1303,-868,-2670,-4323,0.75726,0.585228,0.289724,6154,2174,4758,1236,-3606,-1221
2851,2768,2832,3091,3088,0.771973,0.449402,-0.439453,0.094055,80,-172,-53,2671,1079,2624,-3579,-3927,906,-549,-2080,-4941,0.763029,0.611186,0.209707,4466,2514,1884,1835,-3928,-1194
2845,2767,2835,3071,2982,0.757996,0.462402,-0.452271,0.083801,89,-183,-56,2512,1264,2070,-3739,-3857,732,-498,-1632,-5145,0.763138,0.625196,0.163215,4076,3902,782,2061,-4185,-1274
2847,2759,2835,3071,2983,0.725525,0.490295,-0.479187,0.059509,90,-208,-67,2257,2147,949,-3917,-3213,458,-594,-494,-5027,0.753678,0.654411,0.059918,3942,7728,-1426,2074,-4753,-1525
2850,2757,2832,3071,2983,0.690247,0.516296,-0.506104,0.027649,63,-218,-82,2324,3572,-192,-3633,-2037,180,-744,678,-4045,0.727223,0.684757,-0.045498,5198,12252,-3934,1460,-4989,-1860
2855,2770,2839,3071,2981,0.673584,0.5271,-0.518005,0.008423,38,-214,-91,2412,4510,-872,-3377,-1235,-115,-796,1339,-3242,0.70672,0.701366,-0.092377,5336,14748,-6026,874,-4891,-2083
2849,2759,2839,3071,2979,0.645325,0.543518,-0.535522,-0.036072,-18,-182,-113,2761,6315,-2590,-2579,251,-1242,-320,2546,-1291,0.65196,0.740126,-0.164451,7158,17570,-10614,-405,-4158,-2567
2849,2768,2842,3087,2987,0.623535,0.555542,-0.543823,-0.082275,-34,-144,-128,2674,7023,-5178,-2132,614,-3467,1518,3825,-46,0.586771,0.782286,-0.208805,4022,14450,-19286,-774,-3279,-2915
2850,2759,2833,3071,2975,0.61145,0.563354,-0.546021,-0.102905,-15,-131,-128,2417,6931,-6597,-2103,366,-4704,2702,4396,219,0.551784,0.801303,-0.231046,3182,13190,-21480,-336,-2979,-2926
2847,2759,2842,3071,2983,0.580444,0.584106,-0.550781,-0.13623,43,-128,-116,1624,7158,-9170,-2310,373,-6801,4427,5547,1165,0.48025,0.828149,-0.289066,2144,15198,-25564,998,-2930,-2643
2850,2762,2832,3067,2971,0.532043,0.610474,-0.571716,-0.131653,269,-82,26,4865,6420,-11369,1198,-134,-8099,6676,3008,3661,0.447615,0.800133,-0.399135,16646,32767,-22068,6179,-1861,603
2851,2767,2839,3071,2991,0.509338,0.623596,-0.582947,-0.109253,264,-7,79,4736,9062,-11109,987,2814,-7362,3934,3469,5964,0.457575,0.76262,-0.457337,5134,32767,-20634,6063,-145,1828
2855,2768,2841,3071,2979,0.484436,0.63623,-0.594055,-0.087219,95,-11,30,3828,12430,-10818,22,6531,-6595,148,4507,8111,0.46458,0.720052,-0.515405,7062,32767,-18242,2180,-230,694
2855,2767,2837,3071,2979,0.480225,0.639221,-0.593567,-0.091797,-29,-12,-18,4069,12532,-9254,360,6609,-4978,-910,3305,7538,0.452734,0.722915,-0.521883,8556,20342,-14376,-647,-272,-395
2847,2743,2843,3117,2975,0.483093,0.637878,-0.591675,-0.098145,-61,-10,-23,4093,11317,-8595,435,5316,-4384,-331,2710,6341,0.44646,0.732449,-0.513956,8206,14670,-13214,-1375,-211,-514
2845,2768,2845,3071,2975,0.490723,0.632751,-0.588379,-0.112122,-72,-12,-22,4091,8133,-7368,522,1964,-3327,1294,1522,3346,0.435572,0.752951,-0.493184,8422,6556,-11118,-1633,-271,-502
2851,2767,2839,3071,2994,0.495239,0.629517,-0.58667,-0.119568,-28,-3,-14,4128,5946,-6134,600,-311,-2194,1967,490,1075,0.430544,0.763816,-0.480914,8046,7620,-9766,-641,-47,-301
2855,2766,2839,3071,2983,0.495911,0.629333,-0.58606,-0.120544,-11,0,-10,4092,5641,-5338,573,-629,-1413,1587,78,441,0.429541,0.765479,-0.479068,8058,10234,-6054,-247,9,-216
2855,2761,2842,3071,2991,0.496765,0.630005,-0.584656,-0.120117,6,5,-6,4059,5728,-4229,540,-550,-317,726,-405,-38,0.429524,0.766383,-0.477525,7902,12166,-6130,139,123,-116
2847,2761,2851,3095,2991,0.496643,0.63092,-0.584045,-0.118958,12,7,-5,3934,5846,-4022,411,-426,-103,457,-376,-100,0.430019,0.765638,-0.478364,6938,12418,-7194,288,161,-96
2854,2766,2839,3071,2993,0.493896,0.634155,-0.583374,-0.116394,22,0,-5,3490,6149,-4154,-21,-95,-180,183,90,5,0.428629,0.762217,-0.484997,5788,13272,-9076,514,17,-108
2859,2747,2851,3103,3007,0.491638,0.636047,-0.583435,-0.115479,22,-4,-5,3365,6306,-4288,-131,78,-274,110,259,137,0.426778,0.760159,-0.489909,6164,13564,-9286,514,-79,-100
2850,2763,2832,3071,2975,0.48761,0.638916,-0.583923,-0.114197,16,-4,-3,3363,6474,-4489,-106,277,-406,83,333,366,0.423529,0.756448,-0.498376,6876,13134,-9634,369,-88,-61
2847,2767,2837,3071,2972,0.486145,0.639954,-0.584167,-0.113586,12,-3,-2,3391,6490,-4625,-70,305,-516,153,359,459,0.4226,0.754928,-0.501553,6938,13080,-10058,279,-48,-43
2855,2755,2831,3053,2970,0.484741,0.640991,-0.58429,-0.112793,1,1,-1,3519,6546,-4828,63,375,-694,271,343,659,0.42186,0.753237,-0.504568,7430,13160,-10190,36,45,-10
2854,2754,2855,3071,2955,0.484863,0.641052,-0.584167,-0.112671,-4,3,0,3537,6551,-4963,79,380,-830,370,396,738,0.422027,0.753283,-0.504413,7084,13130,-10772,-71,76,3
2839,2775,2819,3059,2967,0.485352,0.640747,-0.583984,-0.113037,-10,2,0,3424,6631,-5422,-33,454,-1299,624,734,982,0.422019,0.753999,-0.503251,6440,13886,-12132,-211,68,14
2851,2778,2825,3071,2973,0.48584,0.640442,-0.583801,-0.11377,-13,2,0,3324,6797,-5742,-129,610,-1629,735,1001,1224,0.421542,0.755142,-0.502006,6010,14728,-13756,-296,58,17
2855,2759,2861,3071,2961,0.487793,0.638794,-0.583435,-0.11676,-28,3,2,3238,7467,-6465,-202,1245,-2394,874,1534,2050,0.42002,0.759442,-0.496879,6560,17124,-15208,-634,78,67
2843,2767,2843,3071,3007,0.490173,0.636963,-0.583008,-0.118652,-38,8,6,3315,7832,-6837,-128,1583,-2812,1003,1730,2535,0.420395,0.762795,-0.491272,7220,17814,-15948,-857,205,149
2851,2758,2826,3093,2967,0.497803,0.631958,-0.581543,-0.120728,-46,28,14,3573,8147,-7993,79,1842,-4100,1890,2253,3399,0.426398,0.769597,-0.47518,8406,16244,-20390,-1041,653,330
2843,2759,2828,3087,2974,0.501892,0.629578,-0.581055,-0.118713,-36,43,24,3851,8095,-8745,297,1787,-4911,2592,2493,3803,0.433775,0.769918,-0.468004,9418,15984,-21950,-812,993,550
2853,2767,2839,3071,2999,0.511536,0.625549,-0.57959,-0.105164,-11,84,45,4529,8501,-9701,749,2259,-5977,3164,2913,4783,0.461392,0.761885,-0.454508,11118,18782,-21286,-236,1942,1053
2859,2757,2839,3071,2959,0.517944,0.623535,-0.577881,-0.094238,-5,106,55,4827,8840,-9861,885,2656,-6210,3070,3153,5197,0.481098,0.75483,-0.445595,11364,19784,-20344,-93,2441,1265
2849,2753,2834,3071,3007,0.535217,0.617981,-0.571899,-0.067627,-11,140,69,5030,9668,-9633,699,3615,-6209,2261,3903,5635,0.528597,0.73886,-0.417938,9934,21934,-17988,-240,3210,1600
2839,2741,2857,3071,2987,0.558594,0.608276,-0.562439,-0.040527,-38,158,77,4877,10296,-8872,133,4355,-5819,1209,4710,5403,0.579046,0.725147,-0.372668,9610,21632,-14470,-870,3637,1765
2855,2767,2864,3071,2949,0.572937,0.601074,-0.556458,-0.027222,-54,169,80,4917,10257,-8188,-38,4366,-5386,811,4777,4958,0.604906,0.719051,-0.341937,10222,19802,-12016,-1222,3874,1852
2837,2753,2837,3062,3007,0.606201,0.581787,-0.542236,0.001892,-70,194,93,4939,9454,-6597,-464,3692,-4426,370,4615,3463,0.65961,0.703308,-0.265013,9278,15774,-8612,-1603,4465,2142
2851,2781,2839,3071,2979,0.64093,0.559326,-0.524475,0.0354,-65,213,99,4423,8075,-5103,-1408,2505,-3662,103,4455,1344,0.711905,0.679845,-0.175875,6704,11512,-5808,-1472,4891,2280
2843,2766,2835,3071,2987,0.657471,0.548035,-0.514282,0.053589,-55,217,99,4004,7234,-4350,-2017,1782,-3287,-38,4246,129,0.734988,0.665514,-0.129689,5432,9362,-4084,-1247,4983,2281
2841,2753,2859,3071,2975,0.687988,0.525391,-0.492065,0.091858,-43,216,101,3129,5799,-2542,-3208,617,-2243,-694,3343,-2009,0.773593,0.632525,-0.036398,3652,7972,724,-980,4954,2322
2851,2763,2843,3091,2975,0.717041,0.499878,-0.468445,0.128235,-57,203,98,2296,4784,-526,-4257,-104,-1027,-1622,2021,-3530,0.799992,0.596724,0.061274,2152,6358,4876,-1286,4665,2254
2851,2769,2847,3071,2991,0.73114,0.485474,-0.456909,0.144531,-64,193,94,1871,4067,393,-4751,-666,-516,-1859,1213,-4283,0.808461,0.577823,0.111005,1208,3480,6110,-1464,4429,2154
2862,2768,2832,3089,2975,0.756592,0.455933,-0.435486,0.17334,-64,163,79,1094,2130,2052,-5599,-2284,373,-1819,-756,-5729,0.817033,0.538936,0.204955,-348,-1988,9118,-1453,3746,1811
2858,2759,2838,3071,2969,0.767578,0.442078,-0.425537,0.185059,-59,140,62,-373,831,2808,-7064,-3438,785,-2135,-1863,-7368,0.816886,0.52116,0.246908,-11928,-7394,9930,-1347,3228,1422
2846,2767,2839,3071,2975,0.784363,0.426514,-0.409119,0.18811,-27,15,-54,-3113,-2218,5987,-9685,-6438,3518,-3303,-6012,-10026,0.802258,0.515164,0.301319,-2242,-8396,26854,-598,361,-1227
2850,2768,2829,3071,2993,0.794739,0.417725,-0.403625,0.175842,-24,-22,-53,-122,-3639,8869,-6581,-7915,6205,-2217,-9283,-7303,0.788461,0.522015,0.325123,7230,-8032,20432,-537,-484,-1212
2864,2768,2832,3071,2987,0.801025,0.407471,-0.403625,0.171387,-31,-9,-4,1582,-3061,8289,-4859,-7275,5486,-1380,-8507,-5686,0.786299,0.514437,0.342069,6486,-3732,12630,-699,-198,-80
2839,2766,2850,3071,2987,0.802612,0.403259,-0.404968,0.170654,-20,-17,0,1832,-2670,7365,-4620,-6840,4524,-1045,-7526,-5553,0.787701,0.509103,0.346692,4646,-3050,8748,-458,-371,7
2855,2779,2837,3089,2959,0.800476,0.404053,-0.410217,0.166199,18,-51,-27,1893,-1896,5332,-4587,-6078,2572,-501,-5471,-5865,0.791044,0.510514,0.336847,3962,-1452,5264,421,-1150,-601
2849,2754,2799,3071,2975,0.796936,0.409363,-0.413818,0.161194,34,-70,-44,1925,-1526,4572,-4559,-5778,1931,-336,-4684,-5985,0.791547,0.519062,0.322267,4110,-698,4908,796,-1591,-1006
2859,2763,2815,3071,2959,0.785828,0.426147,-0.423645,0.146057,50,-107,-65,2400,-406,3966,-4074,-4878,1690,-471,-3703,-5413,0.790308,0.546004,0.277781,6650,2602,7126,1168,-2429,-1468
2853,2763,2835,3071,2959,0.770996,0.445618,-0.436829,0.127075,55,-128,-65,2827,434,3713,-3618,-4285,1901,-677,-3262,-4894,0.78684,0.576119,0.221189,6470,2686,6498,1267,-2924,-1486
2853,2755,2835,3071,2999,0.762207,0.455566,-0.444641,0.117249,59,-137,-63,2868,625,3503,-3559,-4209,1950,-709,-3097,-4907,0.784646,0.590205,0.18946,5804,2232,5658,1353,-3121,-1431
2851,2762,2811,3071,2997,0.740845,0.477478,-0.462219,0.097168,74,-156,-64,2601,870,2876,-3769,-4189,1920,-771,-2609,-5294,0.777656,0.617648,0.116661,3930,2584,3472,1699,-3560,-1452
2855,2763,2845,3091,2975,0.713135,0.503174,-0.482483,0.073486,84,-186,-73,2026,1395,1892,-4217,-3903,1662,-924,-1589,-5691,0.762103,0.64675,0.027988,2222,4826,488,1945,-4256,-1660
2863,2735,2827,3088,2960,0.696716,0.516907,-0.493835,0.059082,83,-205,-79,1751,1871,1347,-4386,-3551,1528,-1068,-940,-5670,0.749206,0.661921,-0.022162,1818,6846,-892,1914,-4681,-1801
2847,2768,2815,3087,2987,0.660034,0.543701,-0.517883,0.0224,62,-237,-97,1473,3373,222,-4326,-2316,1267,-1463,425,-4833,0.707999,0.694522,-0.127667,2432,12262,-3268,1433,-5415,-2203
2855,2754,2853,3071,2975,0.622681,0.565918,-0.539612,-0.026733,17,-246,-125,1489,5254,-1280,-3768,-755,546,-1515,1787,-3093,0.641754,0.733624,-0.222998,3224,15562,-7580,412,-5626,-2853
2842,2775,2847,3063,2965,0.604736,0.575317,-0.547974,-0.054871,-2,-240,-139,1453,5984,-2334,-3459,-208,-183,-1110,2457,-2183,0.599623,0.755966,-0.262548,2478,16128,-11560,-23,-5496,-3174
2847,2766,2839,3071,2973,0.568726,0.592529,-0.559204,-0.112671,-19,-217,-150,1008,7152,-5440,-3108,598,-2755,715,4130,-180,0.502546,0.799985,-0.327657,230,17624,-20956,-413,-4957,-3433
2858,2773,2832,3071,2975,0.528259,0.608948,-0.569092,-0.161804,35,-199,-112,3069,4888,-9404,-242,-1891,-6213,5874,2672,756,0.404195,0.827527,-0.389444,26332,-19884,-32768,821,-4553,-2553
2857,2767,2849,3095,2971,0.473633,0.635681,-0.598389,-0.116211,329,41,73,5481,7359,-10027,2047,1286,-5731,3784,1083,4816,0.419087,0.741238,-0.524327,-2386,32767,-23494,7553,951,1679
2845,2751,2833,3071,2975,0.455811,0.648926,-0.601562,-0.096191,214,36,38,3333,9752,-11713,-136,3957,-7076,1986,4036,6745,0.423555,0.707305,-0.565966,-3526,32767,-32768,4916,831,884
2847,2763,2832,3071,2959,0.43219,0.663208,-0.604614,-0.088562,33,-34,-19,2872,12618,-12644,-446,7044,-7640,-332,4690,9278,0.405146,0.680355,-0.610772,7438,30178,-24546,763,-774,-433
2859,2768,2839,3056,2963,0.433533,0.66394,-0.600342,-0.103699,-72,-14,-35,3385,11312,-11238,248,5576,-6302,268,3162,7796,0.382836,0.700189,-0.602523,8580,14834,-17436,-1647,-299,-785
2855,2766,2847,3071,2967,0.438721,0.661804,-0.597473,-0.111938,-92,-8,-31,3615,9631,-10383,534,3778,-5550,1254,2379,6174,0.376085,0.714455,-0.589953,8976,8536,-14664,-2104,-161,-690
2851,2766,2839,3071,2982,0.452271,0.654358,-0.593079,-0.124573,-85,10,-11,3831,6781,-8229,771,721,-3642,2273,1013,2860,0.373434,0.739656,-0.55986,7484,7110,-10038,-1935,232,-236
2851,2765,2838,3071,2975,0.464905,0.647522,-0.589478,-0.130676,-54,19,-1,3669,5613,-6113,565,-581,-1742,1775,206,704,0.37887,0.756134,-0.533556,6764,9242,-6356,-1219,439,-1
2851,2766,2841,3071,2973,0.469727,0.645264,-0.58783,-0.131714,-37,19,0,3544,5439,-5343,412,-795,-1051,1376,5,103,0.382258,0.761046,-0.523917,6366,10094,-6320,-845,442,13
2850,2759,2835,3067,2959,0.475403,0.643494,-0.585327,-0.131348,-6,15,-1,3327,5431,-4315,152,-840,-108,648,-199,-528,0.38749,0.7656,-0.513432,5810,11344,-6430,-133,345,-13
2851,2768,2845,3071,2991,0.476135,0.643921,-0.584473,-0.130249,6,11,-2,3168,5579,-4040,-17,-691,158,315,-152,-616,0.388836,0.765441,-0.512573,5344,12174,-6616,160,253,-34
2854,2766,2838,3067,2979,0.474731,0.646423,-0.583374,-0.128052,18,3,-6,2925,5939,-3767,-256,-312,463,-209,-31,-576,0.388341,0.763159,-0.516421,5386,12790,-7084,432,81,-115
2847,2768,2841,3071,2967,0.473511,0.647949,-0.582947,-0.127075,18,2,-6,2862,6074,-3751,-311,-166,503,-344,16,-508,0.387387,0.761778,-0.519305,5312,12948,-7522,429,48,-125
2851,2762,2827,3071,2975,0.471497,0.650269,-0.582275,-0.125488,12,3,-4,2846,6151,-3909,-315,-69,382,-319,88,-374,0.38588,0.759336,-0.523838,5634,12448,-8722,283,81,-69
2852,2773,2846,3071,2975,0.471008,0.651001,-0.58197,-0.124756,6,4,-2,2842,6191,-4037,-318,-22,264,-266,152,-277,0.385793,0.758462,-0.525079,5704,12572,-8824,153,94,-26
2855,2767,2842,3071,2987,0.471252,0.651367,-0.581604,-0.123962,-3,4,1,2856,6137,-4390,-311,-73,-88,18,304,-129,0.386675,0.758111,-0.525097,5760,11982,-9948,-48,104,40
2849,2769,2831,3071,2975,0.471558,0.651184,-0.581604,-0.123657,-4,4,2,2884,6095,-4537,-290,-114,-239,157,352,-73,0.387472,0.757981,-0.524646,5958,11952,-9868,-81,95,64
2847,2770,2846,3071,2979,0.472351,0.650574,-0.581726,-0.12323,-6,3,3,2887,6170,-4765,-301,-39,-477,275,482,102,0.389217,0.757971,-0.52335,5646,12826,-10204,-123,86,77
2850,2771,2862,3059,2987,0.472839,0.650269,-0.581665,-0.123474,-8,2,2,2864,6278,-4881,-326,63,-601,291,575,234,0.389486,0.758586,-0.522361,5598,13266,-10440,-165,61,50
2858,2768,2845,3088,2991,0.473938,0.649536,-0.581238,-0.124817,-12,1,-1,2846,6499,-5091,-339,266,-834,325,721,503,0.388795,0.760776,-0.519538,5644,13640,-10800,-264,36,-15
2851,2767,2838,3071,2975,0.47467,0.64917,-0.580872,-0.125854,-14,1,-2,2839,6618,-5211,-339,371,-970,358,798,653,0.388043,0.762494,-0.517682,5630,13986,-11162,-310,34,-34
2847,2768,2849,3071,2987,0.47699,0.647827,-0.579895,-0.128296,-21,4,0,2887,6910,-5452,-283,628,-1257,426,917,1015,0.386981,0.76681,-0.511979,5884,14894,-11748,-468,101,8
2851,2768,2838,3107,2995,0.478882,0.646667,-0.579346,-0.129578,-25,6,2,2889,7125,-5605,-283,821,-1445,447,1031,1255,0.387289,0.769495,-0.507702,5746,15608,-12198,-572,146,57
2855,2771,2832,3071,2989,0.484375,0.643066,-0.578186,-0.132324,-37,13,9,2928,7666,-6053,-266,1309,-1992,570,1348,1899,0.389931,0.775987,-0.495705,6040,16926,-13810,-830,298,208
2855,2759,2832,3071,2989,0.488098,0.640625,-0.577515,-0.133301,-41,18,13,2970,7899,-6365,-249,1514,-2368,742,1550,2237,0.392976,0.779342,-0.487915,6244,17114,-14776,-929,422,298
2853,2767,2835,3071,2975,0.496582,0.634277,-0.577576,-0.132385,-38,29,33,3273,8136,-7224,-50,1722,-3359,1440,1921,2912,0.405689,0.782866,-0.471782,7850,16620,-17124,-869,684,770
2857,2766,2831,3071,2981,0.500977,0.630554,-0.578674,-0.128784,-28,39,47,3500,8194,-7627,80,1797,-3818,1778,2082,3211,0.417394,0.780834,-0.4649,8376,16724,-17586,-636,916,1086
2858,2779,2854,3089,2983,0.509949,0.623413,-0.581726,-0.113342,-1,69,67,4154,8345,-7991,451,2056,-4270,2017,2177,3721,0.451983,0.767686,-0.454155,10344,17492,-16362,-8,1581,1552
2855,2759,2833,3059,2969,0.520447,0.618103,-0.582397,-0.088867,18,101,73,4544,8686,-8034,477,2567,-4409,1692,2557,4104,0.496356,0.746891,-0.442476,9868,18318,-15986,420,2316,1676
2853,2758,2847,3071,2975,0.526428,0.615906,-0.58136,-0.074463,21,114,74,4656,8878,-7942,393,2856,-4381,1385,2806,4207,0.520364,0.73504,-0.434648,9978,18970,-15224,501,2617,1713
2859,2775,2832,3091,2975,0.541748,0.610229,-0.576294,-0.044006,9,138,79,4784,9383,-7456,108,3551,-4104,490,3316,4268,0.570704,0.711902,-0.409067,9838,20154,-13034,213,3161,1828
2859,2759,2853,3057,2965,0.551697,0.605774,-0.57251,-0.028748,-5,147,83,4778,9526,-7095,-111,3780,-3903,61,3560,4105,0.596875,0.701324,-0.389534,9444,19676,-11950,-103,3383,1917
2847,2786,2832,3099,2974,0.575745,0.59259,-0.563293,0.001038,-33,161,91,4605,9316,-6305,-718,3735,-3544,-465,4012,3271,0.649856,0.681192,-0.33698,8596,17110,-10054,-739,3698,2089
2849,2723,2837,3071,2991,0.603455,0.574463,-0.552124,0.03064,-50,173,95,4376,8541,-5308,-1371,3138,-3098,-683,4132,1943,0.701566,0.659491,-0.269752,8048,14232,-7476,-1123,3975,2191
2869,2774,2851,3063,2983,0.618103,0.563965,-0.545654,0.045715,-54,179,97,4275,7947,-4725,-1673,2644,-2827,-685,3997,1151,0.726105,0.647287,-0.231654,8016,12108,-5758,-1235,4103,2225
2851,2754,2833,3095,2993,0.647644,0.541077,-0.530762,0.077881,-51,189,98,3979,6430,-3396,-2343,1365,-2175,-604,3362,-640,0.771768,0.618178,-0.148964,6948,7994,-2672,-1159,4337,2262
2851,2763,2863,3099,2983,0.67572,0.517334,-0.512939,0.112061,-44,192,95,3495,4940,-1909,-3133,154,-1404,-699,2398,-2358,0.809153,0.584185,-0.061586,5264,5564,764,-985,4417,2190
2859,2775,2855,3071,2985,0.689148,0.505249,-0.503174,0.128784,-43,189,91,3149,4259,-1185,-3598,-384,-1046,-803,1879,-3163,0.823659,0.566781,-0.01695,4068,4342,1830,-972,4335,2098
2849,2736,2832,3071,2997,0.713379,0.481323,-0.483398,0.160278,-38,171,82,2459,2757,249,-4454,-1599,-318,-863,545,-4631,0.843984,0.531775,0.069253,3244,964,5174,-863,3925,1882
2843,2767,2849,3095,2967,0.724243,0.469238,-0.473938,0.174866,-38,159,77,2232,2025,1106,-4736,-2185,202,-898,-352,-5129,0.8506,0.513934,0.110304,3116,-352,7498,-850,3661,1784
2827,2771,2847,3071,2975,0.745483,0.447388,-0.454895,0.192505,-63,93,6,-2270,137,3106,-9237,-3892,1584,-2828,-2270,-9476,0.850482,0.491901,0.185718,-23900,-10286,11796,-1433,2137,141
2863,2763,2815,3095,2975,0.759827,0.434204,-0.448914,0.180542,-53,-38,-59,-615,-2861,7520,-7487,-6938,5718,-2377,-7704,-8477,0.838977,0.497744,0.219875,8916,-16204,26526,-1197,-865,-1345
2853,2751,2853,3091,2947,0.763123,0.429443,-0.449829,0.175598,-25,-40,-44,690,-3992,8189,-6169,-8067,6334,-1406,-9015,-7744,0.837368,0.497458,0.226423,8730,-13168,18652,-554,-898,-1006
2855,2759,2834,3095,2959,0.764282,0.424072,-0.45282,0.17572,16,-18,1,2636,-4187,7736,-4255,-8193,5850,-76,-8971,-6240,0.8412,0.489083,0.230122,9262,-6516,12238,369,-391,44
2855,2763,2843,3095,2967,0.759949,0.428406,-0.453674,0.181824,57,-20,-5,3013,-2714,6107,-3911,-6696,4294,119,-6859,-5611,0.845327,0.486155,0.22123,5856,-112,6618,1313,-450,-112
2851,2751,2847,3071,2991,0.75592,0.435181,-0.453552,0.182861,67,-32,-23,2826,-1812,5149,-4095,-5842,3430,-20,-5579,-5614,0.844854,0.49205,0.209762,4208,1776,4586,1557,-713,-506
2846,2765,2849,3071,2965,0.745056,0.454712,-0.455017,0.176147,66,-76,-57,2389,31,3759,-4477,-4206,2347,-715,-3494,-5523,0.838219,0.517272,0.172333,4556,5580,5098,1527,-1729,-1290
2847,2763,2834,3071,2975,0.731567,0.475647,-0.462036,0.158203,47,-118,-72,2701,1350,3492,-4069,-3153,2504,-1328,-2830,-4794,0.826519,0.549744,0.120502,6428,5522,6356,1099,-2687,-1632
2851,2759,2849,3071,2975,0.723938,0.485535,-0.467468,0.14679,43,-131,-74,2817,1602,3339,-3895,-3032,2590,-1387,-2707,-4670,0.819379,0.565755,0.091363,6208,4298,5624,995,-2983,-1688
2847,2743,2829,3071,2991,0.705872,0.505798,-0.48053,0.122437,50,-147,-76,2802,1602,2889,-3769,-3283,2671,-1233,-2545,-4910,0.802241,0.596389,0.026505,5126,2922,4254,1167,-3366,-1732
2847,2751,2830,3103,2995,0.682983,0.528137,-0.495178,0.096741,62,-166,-79,2439,1667,2264,-3939,-3457,2659,-1195,-2096,-5358,0.778582,0.62561,-0.048305,3374,3788,2252,1430,-3781,-1791
2859,2771,2855,3069,2995,0.669312,0.540161,-0.503418,0.082458,65,-180,-82,2134,1829,1762,-4116,-3414,2502,-1203,-1607,-5551,0.762969,0.64005,-0.090426,2488,4780,510,1494,-4119,-1857
2854,2769,2823,3067,2975,0.637085,0.565247,-0.52179,0.048645,61,-213,-91,1691,2553,642,-4205,-2931,2145,-1292,-478,-5382,0.719841,0.669455,-0.183524,2458,8080,-2230,1400,-4858,-2075
2839,2765,2845,3071,2998,0.603516,0.586548,-0.540039,0.006165,19,-219,-101,1801,4376,-531,-3598,-1369,1692,-1712,616,-3790,0.659076,0.701323,-0.271411,4918,15564,-4770,440,-4999,-2293
2853,2747,2847,3089,2983,0.59021,0.593384,-0.546997,-0.018433,-20,-204,-106,2066,5573,-1257,-3044,-330,1222,-1829,1113,-2506,0.623811,0.720607,-0.302623,5586,18404,-7304,-438,-4672,-2422
2847,2771,2841,3071,2995,0.570557,0.602112,-0.55365,-0.07312,-75,-171,-131,1865,7553,-4057,-2589,1261,-1286,-783,3054,-4,0.543724,0.768044,-0.338185,2358,19638,-18316,-1710,-3906,-2990
2858,2767,2848,3071,2963,0.553345,0.60968,-0.553101,-0.127319,-82,-139,-134,1808,8447,-7268,-1934,1765,-4357,1713,4298,2103,0.456862,0.815567,-0.35523,3574,19118,-23604,-1872,-3179,-3060
2846,2767,2823,3091,3023,0.531921,0.617615,-0.557373,-0.157837,56,-86,-50,5309,4316,-11046,2048,-2507,-7898,8201,1576,1761,0.397992,0.832993,-0.38426,27398,-12856,-32768,1292,-1968,-1126
2862,2775,2849,3099,2975,0.511047,0.627502,-0.571167,-0.137268,251,-14,85,6330,6784,-11475,2958,245,-7870,6725,1320,4875,0.411515,0.798173,-0.439979,19990,32767,-22502,5764,-312,1968
2855,2782,2835,3071,2982,0.487671,0.640381,-0.585815,-0.094421,119,39,84,3973,11200,-13048,283,5177,-8898,2836,5173,8440,0.450439,0.735217,-0.506529,2190,32767,-32734,2747,916,1937
2835,2770,2847,3071,2965,0.482422,0.642029,-0.588989,-0.090149,-31,-3,0,4357,13358,-11420,649,7413,-7174,133,4315,9390,0.452526,0.725651,-0.518252,11690,29594,-14440,-700,-48,5
2835,2771,2853,3071,3011,0.488403,0.639404,-0.585815,-0.096924,-80,6,-25,4752,12951,-10008,1079,6904,-5878,-108,3221,8542,0.448281,0.738133,-0.504086,11584,22034,-11836,-1817,153,-554
2853,2735,2818,3058,2965,0.507507,0.630554,-0.575989,-0.114014,-125,18,-32,5002,10048,-7583,1390,3728,-3824,940,1440,5242,0.440853,0.771363,-0.458799,10340,9172,-8002,-2845,414,-712
2843,2747,2843,3059,3007,0.527222,0.618958,-0.568298,-0.126404,-96,25,-11,4913,6469,-5250,1285,-54,-1873,1860,-132,1297,0.442761,0.796326,-0.412131,8888,3598,-3848,-2191,574,-250
2843,2771,2862,3071,2975,0.534912,0.614319,-0.565613,-0.128601,-68,28,-2,4638,5334,-4200,975,-1241,-967,1748,-580,-178,0.447102,0.80269,-0.394636,7426,4758,-2312,-1537,648,-32
2855,2775,2857,3071,2992,0.545288,0.608215,-0.562256,-0.128906,-26,18,7,3999,4524,-2525,260,-2097,523,823,-961,-1770,0.456377,0.808262,-0.372102,6348,8100,-930,-585,434,161
2851,2768,2847,3071,2957,0.547852,0.60675,-0.561462,-0.128113,-8,12,6,3790,4490,-2019,23,-2134,986,402,-1025,-2076,0.459731,0.808679,-0.366832,6446,8984,-1330,-182,283,147
2847,2758,2839,3061,2993,0.547791,0.607544,-0.561401,-0.125122,23,1,1,3469,4875,-1730,-324,-1728,1289,-156,-809,-2018,0.463026,0.806101,-0.368551,5966,11490,-3532,546,27,40
2851,2768,2835,3063,2959,0.545471,0.609619,-0.561829,-0.123352,34,-4,-2,3332,5255,-1848,-457,-1328,1220,-354,-568,-1735,0.462527,0.803665,-0.374532,5910,12930,-4592,790,-90,-27
2847,2768,2849,3071,2991,0.538635,0.615295,-0.562744,-0.120422,38,-9,-7,3264,6147,-2315,-488,-393,885,-611,-149,-882,0.458037,0.798374,-0.39064,6580,15172,-6166,885,-189,-159
2851,2768,2847,3071,3406,0.533325,0.6203,-0.562622,-0.119446,20,-5,-10,3286,7055,-2979,-416,533,319,-683,282,107,0.451937,0.796049,-0.402613,6524,16528,-8336,459,-100,-211
2851,2758,2835,3087,2959,0.53186,0.621887,-0.562134,-0.119934,8,-3,-9,3258,7388,-3457,-418,864,-135,-534,587,555,0.448782,0.796352,-0.405479,6338,16654,-9938,187,-61,-199
2847,2762,2832,3088,2963,0.530823,0.622742,-0.561707,-0.122192,-12,-2,1,3177,7891,-4607,-461,1350,-1275,28,1312,1391,0.444145,0.798403,-0.406618,6046,17328,-12864,-259,-42,29
2854,2768,2839,3071,2972,0.531006,0.621948,-0.562134,-0.123413,-18,-2,8,3178,8230,-5203,-454,1682,-1880,302,1687,1905,0.44348,0.799266,-0.405616,6520,18692,-13914,-402,-35,192
2849,2767,2839,3071,2999,0.533752,0.617981,-0.563538,-0.124939,-31,10,21,3571,9117,-6389,-92,2559,-3120,886,2219,3252,0.447159,0.800513,-0.398974,9124,20538,-16586,-701,248,486
2851,2768,2839,3071,2981,0.536499,0.615295,-0.564087,-0.123596,-29,25,28,4044,9311,-7085,331,2760,-3860,1483,2322,3876,0.453168,0.799649,-0.393675,11172,19422,-18430,-643,590,650
2851,2767,2847,3087,2989,0.54303,0.611877,-0.564331,-0.110352,6,72,46,5081,9441,-8197,1166,2976,-5036,2462,2449,4848,0.477854,0.789085,-0.385805,13078,19516,-18908,148,1663,1069
2851,2768,2843,3071,2978,0.546997,0.611267,-0.563477,-0.098206,22,95,57,5439,9597,-8464,1372,3212,-5332,2533,2632,5222,0.49638,0.779396,-0.382303,12748,20234,-18196,511,2198,1316
2858,2768,2832,3069,2967,0.557373,0.609375,-0.559814,-0.067139,29,128,79,5658,10108,-8359,1216,3927,-5331,1820,3274,5592,0.542226,0.754469,-0.369558,11326,21962,-15458,667,2937,1814
2851,2767,2843,3091,2981,0.57312,0.603455,-0.553345,-0.033691,7,146,89,5391,10468,-7514,528,4496,-4722,561,3928,5199,0.593603,0.72899,-0.340746,9434,21418,-11968,177,3357,2041
2851,2766,2841,3071,2987,0.583008,0.598572,-0.549072,-0.017639,-7,151,91,5159,10370,-6927,87,4493,-4309,23,4135,4653,0.61911,0.717314,-0.319559,8934,19770,-10176,-154,3468,2088
2854,2766,2835,3071,2983,0.606323,0.584412,-0.539001,0.013977,-29,163,96,4833,9552,-5440,-655,3869,-3275,-690,3996,3110,0.669955,0.693617,-0.264236,8714,15954,-6220,-653,3749,2208
2853,2767,2845,3071,2985,0.632202,0.566772,-0.526184,0.047058,-33,177,97,4379,8231,-3994,-1508,2766,-2386,-1020,3614,1229,0.718652,0.667107,-0.196207,7124,12114,-3946,-749,4066,2240
2879,2767,2843,3089,2987,0.64502,0.557434,-0.518677,0.064331,-30,181,97,4071,7474,-3338,-1997,2129,-2030,-1100,3372,233,0.740834,0.652378,-0.15957,6212,10334,-2718,-684,4162,2232
2886,2766,2845,3071,2987,0.669495,0.538208,-0.502136,0.09967,-27,180,96,3374,6056,-1944,-3012,972,-1258,-1377,2648,-1639,0.779642,0.620559,-0.083651,4586,8276,406,-597,4143,2199
2851,2770,2844,3071,2979,0.69281,0.517151,-0.484558,0.133179,-33,171,91,2771,4805,-409,-3857,-7,-371,-1706,1532,-3123,0.80916,0.587509,-0.004519,3754,5864,3618,-750,3936,2087
2855,2767,2839,3071,2987,0.703918,0.50592,-0.475769,0.148682,-37,163,86,2486,4160,259,-4233,-515,-30,-1757,948,-3767,0.820247,0.570777,0.035296,3354,4338,4460,-840,3753,1982
2859,2779,2837,3071,2979,0.724548,0.482666,-0.459351,0.176147,-43,143,73,2157,2731,1371,-4688,-1673,453,-1474,-297,-4766,0.835684,0.537603,0.112029,3754,1030,5588,-979,3281,1694
2858,2773,2835,3071,2991,0.733765,0.471375,-0.451599,0.188232,-41,133,65,1651,1853,1783,-5231,-2421,572,-1304,-884,-5573,0.840191,0.521745,0.147706,-1668,-1904,5828,-918,3060,1490
2845,2759,2831,3071,2987,0.748413,0.457092,-0.437378,0.198914,-18,43,-24,-1479,-1196,3306,-8331,-5375,1672,-1524,-3287,-9377,0.836522,0.510187,0.199456,-5626,-9380,15758,-394,992,-538
2859,2775,2847,3091,2989,0.757751,0.45166,-0.430054,0.191956,-18,-8,-50,1086,-2326,6530,-5673,-6580,4710,-939,-6858,-7052,0.825145,0.51939,0.222091,9898,-6726,17306,-401,-181,-1137
2846,2768,2839,3089,2987,0.761169,0.448547,-0.428162,0.189941,-19,2,-26,2120,-2100,6621,-4615,-6361,4729,-583,-6902,-6011,0.822203,0.52019,0.23094,9968,-2278,12874,-422,49,-592
2849,2763,2833,3071,2998,0.764648,0.442871,-0.427185,0.191284,1,-1,5,3279,-1370,5509,-3460,-5579,3521,95,-5644,-4859,0.822721,0.513854,0.242655,9078,-132,6716,25,-2,120
2845,2765,2858,3093,3007,0.763794,0.442993,-0.427795,0.193176,20,-8,6,3675,-857,4771,-3080,-5046,2793,331,-4781,-4446,0.824647,0.511431,0.241446,9728,1552,5088,477,-170,141
2864,2751,2835,3091,2967,0.758179,0.449829,-0.429077,0.196716,46,-21,-2,4480,939,3563,-2299,-3265,1702,153,-2937,-3192,0.827612,0.513289,0.227079,11250,8478,4226,1056,-462,-31
2845,2774,2847,3088,2991,0.7547,0.454956,-0.429626,0.197021,43,-26,-7,4824,2036,3217,-1956,-2202,1440,-241,-2169,-2446,0.82775,0.517419,0.216825,11522,10474,4624,998,-595,-153
2847,2765,2832,3087,2992,0.748962,0.463745,-0.431702,0.193848,24,-39,-14,5107,3256,2988,-1663,-1063,1373,-824,-1526,-1664,0.826448,0.527287,0.197096,10454,8220,5924,554,-872,-319
2855,2763,2838,3071,2951,0.743896,0.469788,-0.436768,0.1875,15,-56,-18,4832,2962,3236,-1934,-1422,1785,-925,-1980,-2042,0.82599,0.535159,0.177072,8292,3842,7654,347,-1266,-398
2850,2779,2835,3103,2959,0.740906,0.472656,-0.44043,0.18335,16,-66,-21,4520,2510,3457,-2246,-1904,2103,-921,-2412,-2533,0.825956,0.538882,0.165176,7018,2158,8276,373,-1505,-475
2851,2771,2842,3090,2975,0.733215,0.480347,-0.449402,0.172241,22,-91,-34,3669,1704,3922,-3085,-2798,2819,-1132,-3210,-3701,0.824488,0.549584,0.134577,4452,1362,8894,508,-2070,-772
2851,2779,2839,3057,2995,0.193481,0.089844,0.249451,-1.21228,-23162,-9488,7451,21641,19969,-12074,24216,24638,-23843,-20438,-28977,9623,-0.31436,-0.570042,1.436761,2370,2126,8858,488,-2730,-1195
2843,2763,2861,3071,2961,0.716919,0.497559,-0.467041,0.142639,16,-136,-63,2172,1346,4177,-4476,-3406,3614,-1968,-3476,-5360,0.811604,0.580182,0.068627,1372,2882,8050,367,-3102,-1430
2832,2751,2832,3071,2999,0.703003,0.51123,-0.481628,0.111328,4,-164,-86,1484,1439,3964,-4995,-3570,3855,-2408,-3121,-6083,0.791001,0.611555,0.013285,1498,2996,6860,106,-3737,-1959
2843,2771,2845,3071,2992,0.68634,0.525269,-0.497742,0.072083,-6,-185,-104,1262,1349,3290,-4955,-3969,3678,-2214,-2552,-6511,0.758966,0.649269,-0.047395,2198,2258,3998,-127,-4221,-2379
2859,2770,2832,3071,2941,0.676636,0.532471,-0.506042,0.050354,-7,-192,-112,1209,1353,2790,-4840,-4132,3439,-1998,-2142,-6613,0.738437,0.669615,-0.079233,2046,3074,2426,-143,-4380,-2561
2847,2763,2835,3103,2987,0.654114,0.548706,-0.52063,0.001465,-12,-202,-139,805,2561,1118,-4787,-3306,2299,-1858,-243,-5967,0.68271,0.716307,-0.144267,138,10450,-4206,-267,-4623,-3162
2863,2775,2839,3071,2999,0.627747,0.56781,-0.529114,-0.059082,-36,-210,-183,201,5792,-1628,-4691,-560,49,-1772,2939,-3245,0.597204,0.775404,-0.204813,-1938,24520,-12876,-819,-4788,-4184
2859,2765,2832,3103,2939,0.601013,0.585022,-0.527161,-0.136292,-102,-211,-229,269,10339,-4712,-3615,3401,-2742,-837,5302,1825,0.474194,0.846907,-0.240357,3198,32767,-17260,-2333,-4830,-5245
2859,2755,2837,3071,2981,0.588257,0.589783,-0.526306,-0.17041,-72,-183,-194,3938,5735,-7730,512,-1418,-5683,5455,2154,395,0.418196,0.873263,-0.249756,32767,-32768,-32768,-1640,-4173,-4424
2847,2759,2847,3071,2960,0.54541,0.618591,-0.550781,-0.128418,303,85,103,7004,8511,-9103,3383,1824,-6055,4831,817,5236,0.441927,0.816232,-0.372052,5546,32767,-24076,6954,1962,2372
2851,2770,2847,3091,2955,0.526611,0.635193,-0.557068,-0.094177,73,24,48,3804,12133,-12294,-22,5793,-8791,2676,5992,8232,0.467075,0.773926,-0.427606,4534,32767,-30542,1674,569,1108
2849,2757,2835,3101,2974,0.52356,0.637146,-0.557678,-0.094299,-8,-2,0,4119,13260,-11657,319,6932,-8102,1577,5475,9017,0.463791,0.772345,-0.433953,10812,32767,-18076,-183,-35,21
2853,2768,2843,3071,2955,0.533142,0.63208,-0.551453,-0.109802,-110,-2,-34,4538,12471,-10073,858,5957,-6736,1755,4078,7865,0.449198,0.795078,-0.407328,10108,18934,-14662,-2507,-27,-764
2857,2767,2817,3067,3007,0.551758,0.619019,-0.543457,-0.130249,-137,6,-28,4929,9535,-7347,1337,2779,-4421,2395,1857,4456,0.43846,0.824666,-0.357128,10546,9380,-6000,-3125,155,-629
2853,2733,2829,3091,2966,0.562012,0.611633,-0.539429,-0.138123,-124,16,-20,4890,7947,-5991,1307,1094,-3286,2492,937,2571,0.43737,0.836505,-0.330144,9170,6562,-4130,-2831,368,-445
2857,2771,2839,3071,2961,0.579102,0.599365,-0.532837,-0.146362,-75,24,1,4215,5686,-3700,596,-1278,-1354,1904,-57,-435,0.441684,0.850161,-0.286373,5908,6246,-1030,-1706,569,43
2845,2769,2850,3095,2951,0.589233,0.592041,-0.529846,-0.14679,-24,16,14,3462,4826,-1944,-229,-2163,206,727,-481,-2002,0.450595,0.853252,-0.262506,4924,8230,400,-532,386,327
2845,2763,2846,3071,2961,0.591309,0.590454,-0.529724,-0.145325,-1,9,15,3189,4734,-1403,-537,-2247,714,236,-545,-2343,0.454846,0.852245,-0.258479,4852,9260,84,-21,228,347
2847,2763,2826,3103,2963,0.589294,0.591919,-0.531555,-0.140625,37,-4,10,2846,5034,-1066,-922,-1905,1112,-363,-371,-2333,0.460008,0.847129,-0.265876,4896,11624,-2270,850,-72,233
2855,2772,2835,3099,2919,0.585693,0.594666,-0.533203,-0.137878,48,-9,6,2761,5437,-1251,-1012,-1473,1009,-497,-124,-1987,0.460604,0.843618,-0.275885,5144,13518,-3860,1119,-201,156
2835,2768,2847,3059,2987,0.576172,0.601868,-0.536743,-0.132996,53,-13,1,2882,6616,-1948,-873,-235,515,-624,357,-751,0.458421,0.836327,-0.300676,6380,17262,-6476,1227,-290,35
2838,2757,2837,3071,3019,0.571533,0.605469,-0.538147,-0.131042,46,-11,0,2988,7302,-2490,-751,476,68,-581,675,32,0.456453,0.833131,-0.312372,6614,18732,-8420,1076,-236,15
2863,2771,2830,3117,2987,0.564514,0.610535,-0.540466,-0.128174,24,-5,7,3126,8726,-3880,-590,1944,-1178,-324,1554,1730,0.453693,0.827858,-0.329752,6492,21804,-12434,555,-95,183
2849,2770,2833,3071,2980,0.5625,0.61145,-0.541748,-0.127136,10,-1,16,3251,9447,-4690,-468,2683,-1947,-82,2037,2654,0.453992,0.825633,-0.334792,7492,23260,-14252,241,-13,376
2861,2767,2851,3095,2967,0.563477,0.608521,-0.5448,-0.123962,-21,16,36,4146,10593,-6127,352,3868,-3388,699,2467,4470,0.463096,0.820843,-0.334232,12050,23414,-16068,-464,383,831
2863,2758,2835,3071,2975,0.56665,0.60498,-0.546387,-0.119995,-25,34,48,4859,10622,-6716,975,3931,-4020,1373,2392,4995,0.474031,0.816752,-0.329048,14014,20842,-16890,-558,789,1122
2834,2759,2847,3091,2979,0.575073,0.598328,-0.548523,-0.101624,4,81,72,5787,10328,-7713,1615,3777,-5109,2416,2691,5466,0.509273,0.79965,-0.317837,13172,19916,-18168,93,1858,1650
2843,2766,2823,3089,2971,0.584045,0.594971,-0.547485,-0.07135,29,120,87,5991,10510,-8226,1447,4176,-5706,2325,3633,5785,0.55461,0.773106,-0.30753,12378,22164,-16742,683,2756,2002
2851,2771,2827,3071,2975,0.589783,0.59314,-0.545349,-0.053406,30,136,94,6012,10701,-8079,1261,4492,-5633,1861,4023,5817,0.579921,0.757897,-0.298524,12062,22440,-14892,708,3137,2170
2849,2767,2838,3071,2966,0.605469,0.585938,-0.538391,-0.014771,14,161,110,5774,10703,-7105,574,4760,-4922,617,4531,5128,0.634649,0.725438,-0.266377,10446,20784,-10410,339,3701,2532
2841,2764,2843,3091,2987,0.627136,0.572021,-0.528015,0.025269,-10,182,119,5316,9974,-5409,-346,4315,-3671,-570,4415,3520,0.691183,0.690786,-0.21207,8802,16838,-5328,-229,4186,2737
2842,2759,2819,3071,2989,0.639648,0.562988,-0.52124,0.045593,-18,191,120,4911,9260,-4503,-972,3749,-3049,-982,4211,2364,0.718158,0.672699,-0.177418,7200,13804,-3634,-395,4380,2752
2847,2751,2831,3071,2971,0.664917,0.542786,-0.505676,0.086853,-21,196,119,3783,7420,-2844,-2498,2226,-2019,-1494,3598,-300,0.766751,0.633976,-0.100667,3882,9368,-794,-462,4496,2735
2839,2768,2829,3071,2983,0.688232,0.521301,-0.48822,0.127441,-17,189,114,2742,5532,-1030,-3851,673,-864,-1884,2297,-2683,0.804889,0.593114,-0.020209,2866,5234,3830,-378,4335,2623
2847,2770,2845,3071,2983,0.699158,0.509705,-0.479126,0.147461,-18,183,113,2358,4675,-26,-4361,-6,-199,-2061,1398,-3584,0.820292,0.571423,0.021206,2496,4484,6034,-408,4214,2597
2847,2767,2834,3071,2987,0.720337,0.484497,-0.460938,0.184021,-32,166,101,1628,3273,1935,-5272,-1055,1070,-2443,-459,-4885,0.842376,0.528358,0.105548,858,2382,9470,-727,3810,2322
2849,2758,2845,3071,2983,0.730774,0.471558,-0.451782,0.198792,-42,150,82,59,2504,2734,-6886,-1670,1529,-3057,-1190,-6463,0.847785,0.509583,0.147075,-13130,-500,9700,-957,3440,1890
2843,2762,2827,3071,2983,0.749084,0.456055,-0.436462,0.200806,-49,7,-55,-3454,-471,5746,-10311,-4632,4083,-4234,-4833,-10154,0.837051,0.507959,0.202965,-1974,-5986,27600,-1115,172,-1237
2843,2763,2823,3071,2975,0.763489,0.442017,-0.432983,0.184631,-65,-23,-52,-5,-2531,8541,-6758,-6750,6622,-2572,-8497,-7497,0.824376,0.515065,0.234151,8876,-7628,18678,-1480,-508,-1186
2851,2764,2832,3071,2975,0.77301,0.42627,-0.434814,0.177917,-53,-6,-3,1993,-2784,7409,-4756,-6915,5291,-945,-7814,-6038,0.823914,0.504299,0.25843,7834,-5542,9100,-1194,-116,-46
2847,2768,2847,3071,2987,0.774841,0.421265,-0.436707,0.177185,-26,-13,0,2414,-2687,6325,-4352,-6767,4165,-267,-6897,-5867,0.82604,0.498071,0.263597,7098,-4612,6036,-576,-279,20
2849,2768,2839,3071,2987,0.771973,0.423157,-0.44043,0.176025,32,-31,-21,3058,-1884,4367,-3732,-5965,2287,577,-4930,-5485,0.828972,0.498277,0.253887,8032,-286,3826,737,-710,-471
2847,2763,2839,3071,2983,0.768494,0.429077,-0.441467,0.174072,48,-39,-37,3238,-1202,3725,-3544,-5345,1743,585,-4075,-5215,0.82791,0.505792,0.241883,7242,1912,3950,1102,-880,-840
2847,2764,2839,3071,2983,0.760132,0.445862,-0.443115,0.164368,49,-66,-61,3430,515,3366,-3289,-3844,1648,-208,-2987,-4397,0.820222,0.53216,0.209673,7778,6196,7258,1126,-1493,-1388
2846,2763,2839,3088,2983,0.751282,0.461304,-0.448303,0.1474,27,-94,-64,3527,1575,3607,-3105,-3020,2194,-983,-2817,-3829,0.809596,0.560978,0.172374,6820,5074,7750,634,-2132,-1449
2849,2765,2842,3071,2983,0.74646,0.46759,-0.453003,0.137268,19,-106,-62,3418,1729,3646,-3173,-2970,2399,-1198,-2838,-3892,0.804668,0.573709,0.152193,6020,4082,7386,439,-2414,-1399
2853,2768,2847,3071,2982,0.734558,0.479675,-0.465942,0.114441,17,-131,-63,2952,1628,3353,-3555,-3271,2488,-1335,-2706,-4517,0.794312,0.598053,0.105482,4356,2618,5290,406,-2998,-1437
2847,2766,2839,3071,2987,0.717773,0.494202,-0.482422,0.088501,28,-155,-70,2580,1506,2790,-3809,-3606,2412,-1258,-2372,-5110,0.780014,0.62406,0.046065,4382,3202,3968,664,-3535,-1589
2855,2761,2841,3087,2987,0.707581,0.502319,-0.491333,0.074219,31,-165,-74,2476,1731,2562,-3830,-3494,2460,-1373,-2131,-5146,0.769878,0.637931,0.012446,4358,5136,3836,716,-3757,-1689
2855,2763,2837,3071,2975,0.686035,0.518372,-0.508911,0.04071,12,-179,-88,2275,2924,2014,-3790,-2563,2467,-1937,-1246,-4659,0.740468,0.669806,-0.055398,3824,10644,1768,288,-4089,-2001
2849,2767,2832,3071,2983,0.665588,0.530457,-0.524963,-0.004089,-33,-188,-113,2219,4389,718,-3470,-1430,1651,-1929,167,-3613,0.694481,0.710425,-0.113946,4988,12178,-3240,-744,-4284,-2568
2849,2759,2847,3071,2975,0.655579,0.535706,-0.531372,-0.029236,-40,-181,-128,2339,4740,-202,-3111,-1268,934,-1355,725,-3129,0.665389,0.733464,-0.138699,5432,11286,-6144,-908,-4142,-2914
2855,2775,2849,3091,2978,0.634583,0.549011,-0.538086,-0.079529,-33,-154,-153,2591,5979,-2139,-2288,-430,-648,-224,1813,-1581,0.595595,0.782373,-0.18193,5858,17340,-10136,-735,-3511,-3497
2849,2763,2839,3107,2987,0.614136,0.563904,-0.537109,-0.127808,-30,-128,-150,4165,6049,-5608,-58,-749,-3863,3418,1941,171,0.515574,0.82992,-0.212977,22492,-3460,-32394,-676,-2911,-3423
2849,2767,2837,3067,2943,0.593811,0.577026,-0.546204,-0.126587,187,-78,-59,6191,3797,-7717,2073,-2949,-5565,6607,535,74,0.502595,0.823574,-0.262662,17182,12218,-22280,4301,-1775,-1339
2847,2768,2835,3067,2979,0.554382,0.609741,-0.560242,-0.083313,200,40,60,5846,9587,-9171,1589,3283,-6128,3058,3134,5627,0.519577,0.76941,-0.371374,3002,32767,-31364,4600,931,1382
2843,2769,2845,3067,3007,0.532959,0.626038,-0.564819,-0.070435,35,-21,-7,4538,12714,-11340,328,6595,-7883,1387,5736,8420,0.513862,0.74687,-0.421938,10040,32767,-22074,817,-462,-154
2839,2789,2843,3119,3013,0.531982,0.627747,-0.562988,-0.076904,-35,-15,-37,5091,13332,-10418,974,7151,-6960,716,4707,8822,0.502447,0.754493,-0.422102,13638,28036,-14704,-792,-327,-836
2843,2767,2839,3094,2971,0.543701,0.623657,-0.55365,-0.094238,-111,10,-42,5370,11790,-8883,1401,5379,-5680,1441,3247,7108,0.484495,0.782516,-0.390985,10688,16036,-12600,-2529,233,-950
2851,2779,2811,3099,2987,0.561584,0.612122,-0.54541,-0.111145,-117,16,-22,5012,8611,-6887,1108,1985,-4065,2386,1871,3533,0.476519,0.808755,-0.344435,8600,7354,-7394,-2662,379,-499
2853,2779,2842,3061,2987,0.569702,0.606506,-0.542175,-0.116455,-94,21,-13,4747,7202,-5804,843,506,-3152,2451,1233,1835,0.476495,0.817334,-0.323682,7810,6568,-4990,-2132,485,-286
2847,2767,2823,3067,3007,0.581543,0.598633,-0.537476,-0.120667,-45,20,2,4031,5716,-3819,93,-1050,-1406,1646,456,-408,0.48066,0.825972,-0.294489,5938,8962,-2134,-1014,470,65
2836,2751,2818,3071,3019,0.585266,0.596008,-0.536255,-0.120972,-27,15,8,3757,5538,-2999,-203,-1239,-659,1044,210,-935,0.483503,0.82739,-0.285625,6038,10442,-1310,-616,344,185
2833,2766,2838,3071,2987,0.588867,0.593323,-0.535645,-0.119507,2,6,10,3508,5746,-1921,-498,-1027,355,35,-90,-1191,0.489035,0.826803,-0.277901,6590,12664,-1526,49,151,240
2841,2767,2819,3063,2999,0.588928,0.593323,-0.535828,-0.118164,12,3,8,3458,5987,-1687,-563,-775,593,-296,-110,-1081,0.490909,0.82548,-0.278344,6654,13460,-2238,277,73,192
2850,2757,2865,3069,2955,0.586548,0.59552,-0.53656,-0.115662,23,-3,1,3451,6483,-1688,-576,-256,647,-596,7,-678,0.491679,0.822721,-0.285125,7116,14474,-3866,530,-66,42
2842,2743,2834,3099,2977,0.584656,0.597229,-0.536926,-0.114624,23,-4,-1,3496,6758,-1835,-525,28,540,-635,103,-391,0.49092,0.821436,-0.290011,7252,15200,-4708,548,-90,-5
2855,2750,2853,3103,3001,0.581055,0.600464,-0.537537,-0.113586,15,-4,-2,3611,7371,-2369,-388,654,80,-550,421,322,0.488267,0.819918,-0.298976,7714,16686,-6548,357,-84,-35
2854,2769,2845,3067,2987,0.579834,0.601501,-0.537659,-0.113525,7,-3,-1,3697,7726,-2734,-291,1011,-261,-437,630,765,0.486934,0.819618,-0.301785,7926,17646,-7746,182,-54,-21
2843,2789,2832,3071,3015,0.579529,0.60144,-0.537781,-0.114868,-15,0,3,3905,8487,-3573,-69,1764,-1099,-96,1125,1745,0.485146,0.820652,-0.30189,8598,19196,-9672,-329,1,83
2847,2747,2827,3087,2971,0.580872,0.599854,-0.537842,-0.116028,-27,3,9,4049,8870,-3991,70,2138,-1547,118,1372,2252,0.485635,0.821685,-0.298224,8902,20138,-10502,-609,90,210
2851,2768,2835,3071,2961,0.586853,0.593262,-0.538208,-0.118042,-47,13,24,4441,9515,-4955,413,2769,-2634,810,1921,3229,0.491638,0.823377,-0.283297,10380,20072,-13182,-1074,301,550
2861,2755,2813,3063,2999,0.590454,0.589172,-0.539001,-0.117065,-41,23,34,4758,9470,-5528,673,2736,-3272,1438,2104,3485,0.498568,0.821955,-0.275306,11608,18256,-14528,-933,535,796
2855,2779,2831,3089,2966,0.59729,0.582825,-0.540955,-0.10437,-1,60,60,5544,9319,-6301,1246,2690,-4132,2301,2273,3923,0.524555,0.80915,-0.264668,13256,18656,-14200,-4,1386,1384
2850,2763,2829,3071,2991,0.60437,0.579651,-0.540894,-0.078186,30,97,81,5926,9695,-6473,1312,3262,-4366,2041,2772,4423,0.563159,0.785228,-0.257185,12216,20988,-12792,700,2238,1870
2839,2759,2832,3089,2973,0.608704,0.578064,-0.539856,-0.062439,32,108,90,5842,9959,-6370,1049,3641,-4312,1578,3188,4504,0.585037,0.771155,-0.251184,10898,21410,-11964,740,2484,2079
2847,2757,2819,3071,2975,0.619446,0.572205,-0.536621,-0.029419,20,120,103,5506,10234,-5734,335,4168,-3843,418,3816,4184,0.631148,0.740473,-0.230802,9848,20934,-9032,463,2762,2378
2853,2765,2843,3071,2971,0.626282,0.567627,-0.534241,-0.013,10,125,106,5280,10238,-5281,-80,4299,-3517,-166,4028,3820,0.654412,0.72488,-0.215216,9208,20338,-7750,241,2874,2445
2855,2779,2850,3091,2995,0.643188,0.554688,-0.527527,0.019165,-14,139,109,4985,9868,-4222,-748,4188,-2813,-1036,4091,2863,0.69986,0.693317,-0.171904,9296,17772,-5144,-301,3204,2517
2851,2767,2847,3071,2981,0.664001,0.537231,-0.517395,0.052856,-23,161,113,4745,8633,-3090,-1348,3236,-2167,-1278,3669,1372,0.743894,0.65875,-0.112623,8748,12818,-2578,-525,3694,2610
2847,2770,2838,3071,2969,0.675232,0.527161,-0.510925,0.071228,-24,171,117,4557,7860,-2473,-1710,2624,-1834,-1337,3334,511,0.765083,0.639127,-0.077931,7872,11036,-1258,-547,3938,2694
2855,2765,2832,3071,2975,0.697998,0.504639,-0.495972,0.110168,-27,181,125,3889,6272,-1207,-2693,1396,-1196,-1521,2558,-1331,0.803565,0.595193,-0.00131,5372,7916,1508,-608,4156,2867
2855,2774,2829,3071,2983,0.720032,0.478149,-0.480591,0.148254,-41,168,127,2905,4845,185,-3925,371,-477,-1926,1547,-3108,0.833857,0.546066,0.080831,2670,5198,4666,-932,3866,2919
2847,2755,2847,3099,2967,0.730469,0.463318,-0.473633,0.165344,-51,155,122,2417,4057,939,-4506,-204,-59,-2066,833,-3921,0.845162,0.520254,0.121932,1980,3318,6462,-1151,3570,2815
2847,2762,2850,3089,2971,0.750916,0.4328,-0.460815,0.190674,-78,111,73,-786,1855,2499,-7807,-2030,855,-2982,-949,-7482,0.857114,0.474262,0.200564,-20048,-6372,9866,-1772,2555,1682
2858,2779,2815,3095,2982,0.769348,0.41272,-0.452393,0.181885,-92,-16,-61,-2222,-2007,6230,-9154,-5861,4182,-3255,-5963,-9458,0.84623,0.470484,0.249982,5394,-15228,27662,-2101,-358,-1396
2832,2759,2831,3087,2966,0.776978,0.401855,-0.452271,0.173828,-86,-22,-54,-424,-4059,7726,-7325,-7886,5531,-2003,-8501,-8374,0.842516,0.467231,0.267874,9320,-18968,22004,-1965,-495,-1220
2826,2768,2815,3063,2979,0.786621,0.38208,-0.454407,0.169312,-55,-2,8,1573,-4915,7417,-5343,-8578,5000,-493,-8923,-6872,0.844273,0.447232,0.294968,6986,-10100,11048,-1248,-45,184
2855,2768,2832,3071,2967,0.787659,0.373596,-0.459106,0.170776,7,-26,-1,2392,-4130,5591,-4578,-7666,3139,441,-7079,-6265,0.850841,0.431724,0.299218,7394,-4250,5574,168,-583,-13
2855,2774,2839,3071,2986,0.785095,0.376587,-0.461182,0.170471,35,-35,-21,2940,-3164,4754,-4043,-6719,2370,632,-5874,-5673,0.852537,0.434077,0.290929,9336,-28,4690,813,-789,-468
2863,2767,2845,3088,2991,0.778259,0.392029,-0.462097,0.164551,54,-39,-62,3786,-939,3405,-3163,-4691,1229,534,-3595,-4505,0.84828,0.458123,0.265544,9046,4550,3266,1257,-888,-1399
2842,2753,2833,3063,2973,0.774536,0.401917,-0.461853,0.158875,53,-48,-71,3997,106,3050,-2910,-3792,999,232,-2779,-4007,0.843152,0.475844,0.250302,9306,6414,4512,1233,-1098,-1626
2846,2755,2846,3071,2963,0.76593,0.421082,-0.463867,0.144348,46,-73,-71,4412,1414,3050,-2404,-2773,1288,-331,-2269,-3140,0.832144,0.511121,0.215003,9672,5100,6538,1068,-1653,-1617
2837,2773,2835,3071,3011,0.754883,0.438843,-0.469727,0.129761,51,-89,-64,4410,1603,3343,-2332,-2825,1922,-650,-2644,-3113,0.823066,0.540646,0.17346,8240,3128,7726,1182,-2021,-1454
2849,2762,2819,3091,2975,0.748474,0.447937,-0.473389,0.122437,55,-95,-65,4213,1566,3492,-2490,-2977,2259,-844,-2869,-3348,0.818326,0.554618,0.15046,7022,2906,7830,1282,-2170,-1475
2847,2771,2837,3070,2981,0.733459,0.468323,-0.481201,0.105469,62,-113,-78,3438,1593,3516,-3153,-3203,2711,-1329,-2930,-4146,0.80467,0.585488,0.098206,4096,3594,6552,1433,-2573,-1770
2849,2767,2844,3089,2979,0.714783,0.491577,-0.490662,0.081421,56,-143,-96,2482,2048,3094,-3919,-3054,2806,-1894,-2299,-4866,0.781482,0.622841,0.035147,2114,6026,4406,1296,-3254,-2182
2847,2757,2823,3088,2975,0.704041,0.503418,-0.496521,0.065735,48,-160,-105,2094,2487,2777,-4175,-2785,2776,-2187,-1797,-4987,0.765326,0.643576,3.1E-05,1924,7882,3414,1100,-3652,-2384
2845,2762,2837,3071,2982,0.680542,0.52478,-0.510681,0.025024,12,-194,-121,1562,3632,1773,-4347,-2009,2366,-2511,-468,-4690,0.721345,0.688711,-0.072426,2082,10884,126,291,-4434,-2762
2855,2757,2832,3063,2983,0.65564,0.541931,-0.525085,-0.026733,-22,-206,-142,1479,4920,111,-3924,-1131,1248,-2045,1053,-3596,0.659558,0.738698,-0.138826,3422,13810,-5588,-485,-4716,-3231
2855,2763,2837,3071,2975,0.643127,0.549072,-0.530823,-0.055054,-35,-200,-150,1653,5617,-943,-3445,-647,421,-1463,1726,-2708,0.622316,0.764694,-0.166609,4448,15500,-8316,-792,-4567,-3426
2847,2763,2842,3071,2989,0.618896,0.562622,-0.536621,-0.111267,-41,-170,-163,2030,7058,-3183,-2385,374,-1470,33,2744,-673,0.539023,0.815826,-0.209093,5032,18414,-13042,-939,-3883,-3722
2859,2767,2835,3071,2965,0.584229,0.583252,-0.547058,-0.138367,195,-97,-76,5719,2309,-8184,1804,-4514,-5898,7527,414,-1252,0.477809,0.832894,-0.278987,19452,-6514,-32768,4476,-2207,-1737
2861,2762,2835,3063,2963,0.553101,0.605469,-0.560608,-0.114685,369,-33,51,6857,6000,-7989,2914,-540,-5025,5117,241,2789,0.481269,0.798357,-0.361801,21338,32767,-13710,8462,-743,1179
2851,2761,2831,3069,2983,0.515564,0.635864,-0.570251,-0.068115,199,34,46,4349,10777,-10951,241,4769,-7190,1809,4832,6918,0.501378,0.733343,-0.459064,58,32767,-32768,4580,799,1054
2855,2768,2836,3071,2991,0.502136,0.645508,-0.572083,-0.062622,90,-20,-1,3613,12264,-12094,-431,6366,-8097,859,6025,8320,0.493681,0.719916,-0.487896,4336,32767,-28890,2076,-448,-21
2850,2769,2839,3071,2967,0.496765,0.651489,-0.567871,-0.079102,-54,-23,-61,4513,12722,-10321,735,6683,-6275,19,3822,8364,0.461129,0.737113,-0.493883,12058,21646,-14654,-1226,-525,-1388
2853,2769,2842,3071,2939,0.51001,0.646973,-0.557861,-0.100403,-122,1,-47,4916,10536,-8347,1318,4212,-4582,1064,2025,5936,0.439114,0.771946,-0.459592,10764,12934,-9904,-2782,31,-1067
2855,2759,2833,3071,2981,0.519897,0.641541,-0.553223,-0.109558,-124,13,-33,4925,9105,-7256,1364,2647,-3689,1559,1294,4285,0.434666,0.788291,-0.435333,9630,9608,-8164,-2830,302,-735
2847,2767,2834,3071,2969,0.538025,0.631104,-0.545715,-0.120117,-85,27,-8,4367,6823,-5316,798,185,-2103,1749,531,1322,0.435604,0.810198,-0.392198,6650,8224,-5172,-1928,629,-172
2850,2768,2835,3071,2963,0.550537,0.623474,-0.54126,-0.123169,-44,21,7,3796,5876,-3619,172,-839,-641,998,53,-378,0.442382,0.819824,-0.36342,6264,10318,-2400,-1002,499,164
2850,2767,2841,3087,2983,0.554688,0.620728,-0.540161,-0.123169,-27,16,10,3595,5776,-2961,-61,-955,-59,530,-108,-791,0.446333,0.821682,-0.354228,5982,11144,-2366,-609,386,246
2858,2763,2835,3097,2991,0.557861,0.618408,-0.539978,-0.12146,5,4,10,3258,5935,-2309,-446,-791,542,-159,-107,-1039,0.452242,0.821143,-0.348043,5722,12742,-3452,119,97,232
2851,2768,2845,3071,2991,0.55719,0.618774,-0.540527,-0.120361,16,-2,6,3174,6119,-2214,-540,-595,654,-381,-54,-961,0.4534,0.819667,-0.350104,5928,13440,-4066,379,-35,160
2851,2768,2842,3071,2981,0.55304,0.621521,-0.542053,-0.118347,26,-9,1,3159,6686,-2344,-547,3,607,-665,101,-463,0.452443,0.815752,-0.360251,6634,15272,-5320,596,-191,30
2853,2781,2834,3071,2989,0.550842,0.622986,-0.542725,-0.117737,22,-9,0,3257,6976,-2491,-439,306,502,-709,133,-132,0.451215,0.814131,-0.365372,7156,15620,-5958,511,-186,10
2851,2766,2832,3066,2997,0.548462,0.624573,-0.543518,-0.116821,6,0,2,3552,7497,-2957,-136,844,82,-577,226,593,0.450271,0.812098,-0.371045,8060,16690,-7420,140,3,66
2855,2767,2839,3067,2959,0.54895,0.624207,-0.543518,-0.116638,-7,5,5,3675,7812,-3233,-20,1159,-201,-496,352,1006,0.451116,0.812107,-0.370095,7986,17554,-8202,-158,119,129
2843,2766,2845,3071,2961,0.553345,0.620605,-0.542908,-0.118042,-35,9,11,3711,8339,-3983,-10,1662,-1035,-133,921,1722,0.454315,0.814989,-0.359776,7304,17998,-10438,-785,210,261
2864,2775,2843,3063,2975,0.556641,0.617432,-0.542786,-0.119446,-45,9,15,3685,8542,-4411,-56,1848,-1529,135,1283,2022,0.456774,0.817042,-0.351722,7218,18282,-11444,-1012,209,363
2851,2765,2863,3090,3003,0.564514,0.608826,-0.54364,-0.122498,-57,9,28,3821,9026,-5189,14,2303,-2464,679,1880,2715,0.464626,0.820571,-0.332531,8862,19708,-12264,-1291,225,648
2859,2743,2835,3055,2975,0.569275,0.603455,-0.544678,-0.122925,-56,16,36,4159,9126,-5492,294,2400,-2857,1064,1925,3027,0.471784,0.820972,-0.321647,10490,18630,-12740,-1281,371,839
2869,2768,2839,3071,2975,0.579346,0.593628,-0.546204,-0.116455,-32,48,50,4951,9301,-5954,899,2624,-3483,1676,1951,3633,0.494619,0.815048,-0.301529,12128,19108,-13080,-719,1113,1158
2847,2763,2835,3055,2990,0.590027,0.586609,-0.545837,-0.098877,-4,81,69,5387,9483,-6157,1060,2927,-3829,1785,2289,3989,0.528113,0.800171,-0.28414,11516,19894,-12502,-77,1859,1599
2859,2779,2850,3067,2992,0.595764,0.58313,-0.54541,-0.086853,2,91,83,5413,9723,-6106,919,3254,-3852,1518,2623,4132,0.548578,0.789557,-0.275034,10808,20960,-11742,55,2105,1902
2851,2758,2834,3059,2992,0.608887,0.573608,-0.544617,-0.059753,-4,102,105,5224,10215,-5640,352,3959,-3581,575,3348,4132,0.59467,0.76361,-0.25132,9564,21798,-9566,-74,2345,2409
2861,2759,2827,3055,2975,0.616455,0.567322,-0.544006,-0.045898,-12,106,110,5113,10339,-5295,45,4199,-3364,95,3632,3967,0.618633,0.749395,-0.235673,9682,21154,-8308,-254,2431,2521
2859,2751,2835,3095,2963,0.634399,0.551453,-0.541382,-0.018433,-30,116,114,4976,10139,-4317,-484,4243,-2724,-707,3811,3260,0.666575,0.719641,-0.194392,9380,19282,-5598,-667,2668,2624
2854,2757,2821,3093,2955,0.655762,0.531738,-0.535828,0.009033,-45,131,115,4836,9351,-3265,-999,3717,-2120,-1117,3670,2140,0.712357,0.687707,-0.139752,9114,15708,-3514,-1021,3019,2644
2853,2764,2822,3095,2983,0.66748,0.520752,-0.531677,0.023193,-49,141,114,4709,8766,-2792,-1303,3273,-1908,-1170,3548,1443,0.733924,0.670521,-0.107795,8586,13808,-2780,-1118,3230,2615
2862,2768,2854,3071,2975,0.691833,0.49762,-0.520508,0.052551,-52,154,110,4258,7281,-1898,-2070,2088,-1593,-1106,3148,-216,0.772511,0.633833,-0.037158,6754,10026,-1276,-1173,3541,2538
2863,2783,2833,3063,3019,0.715515,0.473877,-0.506653,0.081665,-53,154,103,3554,5825,-1128,-3019,947,-1434,-1065,2696,-1912,0.802434,0.595381,0.037375,5132,6936,256,-1196,3536,2376
2847,2763,2835,3057,2995,0.726807,0.461731,-0.49939,0.095642,-53,150,99,3261,5008,-698,-3409,292,-1310,-986,2264,-2705,0.814241,0.575653,0.07481,4850,5080,1198,-1193,3454,2289
2849,2773,2843,3099,2981,0.747437,0.437622,-0.484436,0.122925,-44,142,91,2897,3136,210,-3916,-1247,-998,-586,980,-4071,0.83176,0.535091,0.147581,5088,254,3258,-990,3266,2088
2834,2759,2823,3071,2999,0.764648,0.41626,-0.46875,0.14917,-26,122,66,900,677,1083,-5989,-3392,-669,-596,-574,-6865,0.841045,0.496738,0.21394,-11976,-9856,4068,-589,2810,1522
2839,2768,2851,3055,2993,0.770935,0.410828,-0.461121,0.15564,-4,71,4,-1563,-1526,1897,-8435,-5539,-45,-984,-2194,-9800,0.83887,0.489906,0.237153,-15896,-16166,9578,-77,1634,100
2845,2758,2838,3089,2971,0.777527,0.413635,-0.44928,0.149719,20,-16,-88,56,-3650,6131,-6682,-7817,4050,-1286,-7013,-8443,0.822513,0.508693,0.254017,11016,-13782,24026,461,-351,-2009
2851,2769,2863,3069,2997,0.77948,0.416199,-0.444824,0.146057,33,-8,-78,1609,-4002,7113,-5067,-8252,5000,-770,-8212,-7122,0.815041,0.518898,0.257832,11908,-8248,18418,762,-171,-1769
2855,2767,2831,3069,2995,0.782837,0.416992,-0.437927,0.146545,13,16,-10,3461,-3037,6969,-3157,-7333,4768,-136,-7763,-5115,0.807868,0.524521,0.268646,10524,-2378,11554,308,367,-229
2843,2755,2845,3117,2981,0.783203,0.415649,-0.43634,0.152771,23,-2,12,3875,-1809,5678,-2764,-6050,3436,147,-6030,-4432,0.810485,0.517756,0.273589,8148,-148,7044,545,-33,284
2849,2759,2822,3088,2975,0.781311,0.417175,-0.437256,0.15564,35,-15,8,3931,-1242,5019,-2730,-5467,2811,214,-5181,-4282,0.813124,0.515779,0.269443,8294,928,6352,803,-327,201
2845,2759,2831,3071,2973,0.774902,0.425049,-0.440063,0.158569,49,-34,-10,3895,-276,4121,-2796,-4529,2062,106,-3951,-4117,0.816812,0.519181,0.251296,6802,1778,5854,1125,-763,-208
2847,2754,2851,3089,2987,0.770691,0.430969,-0.441956,0.157898,53,-47,-21,3647,26,3810,-3048,-4272,1861,-52,-3548,-4290,0.817321,0.52472,0.237837,5714,1812,6004,1232,-1074,-475
2845,2752,2847,3071,2975,0.759399,0.447083,-0.447815,0.151062,65,-84,-44,3253,509,3739,-3425,-3945,2108,-558,-3318,-4517,0.815215,0.543733,0.199086,5558,2268,7918,1489,-1920,-998
2846,2775,2821,3071,2983,0.744202,0.466919,-0.457214,0.137878,66,-117,-57,2907,957,3888,-3722,-3703,2693,-1168,-3332,-4726,0.809275,0.568884,0.145788,4526,3140,7914,1531,-2671,-1287
2853,2767,2854,3071,2974,0.735229,0.477478,-0.463379,0.128967,65,-133,-62,2633,1098,3807,-3957,-3674,2869,-1404,-3232,-4995,0.804538,0.58259,0.11449,3484,2934,6862,1506,-3029,-1402
2859,2768,2869,3099,2971,0.713135,0.500549,-0.479004,0.106567,71,-167,-73,1965,1233,3160,-4505,-3779,2832,-1581,-2634,-5757,0.789873,0.611826,0.039923,1870,2706,3558,1630,-3824,-1661
2854,2759,2826,3087,3005,0.682983,0.527954,-0.498718,0.077576,84,-208,-88,1277,1655,1992,-4974,-3618,2442,-1614,-1415,-6259,0.763145,0.643791,-0.054971,554,5750,-32,1928,-4748,-1997
2863,2767,2845,3087,2974,0.664673,0.542969,-0.509766,0.059448,80,-230,-97,970,2336,1256,-5110,-3080,2151,-1788,-500,-6064,0.742212,0.661184,-0.109352,210,9296,-2030,1843,-5265,-2200
2849,2774,2842,3071,2967,0.625671,0.570129,-0.532288,0.013062,39,-255,-116,1020,4259,-178,-4558,-1471,1597,-2096,1016,-4478,0.680968,0.699522,-0.216742,3628,14106,-4722,914,-5836,-2640
2843,2759,2863,3087,2992,0.592041,0.587952,-0.549683,-0.040222,-13,-222,-124,1918,5805,-1787,-3026,-260,635,-1475,1606,-2206,0.603572,0.740402,-0.295708,6574,15982,-9056,-284,-5085,-2831
2833,2766,2847,3055,2995,0.578674,0.594238,-0.554626,-0.066162,-29,-193,-127,2262,6501,-2791,-2352,265,-157,-925,1902,-1072,0.563264,0.761131,-0.321488,6202,17208,-11832,-652,-4406,-2898
2843,2768,2803,3111,2987,0.555237,0.606934,-0.557007,-0.113892,-28,-144,-133,3191,6988,-5937,-743,427,-3009,1779,2343,1060,0.480292,0.800861,-0.357366,18556,9388,-26592,-625,-3295,-3029
2845,2765,2843,3091,2999,0.508301,0.631653,-0.577942,-0.09259,319,-36,72,7348,5184,-8838,3493,-953,-5020,5242,-368,3269,0.470567,0.749163,-0.466059,23830,32767,-9236,7315,-812,1658
2855,2766,2847,3071,3007,0.492126,0.642822,-0.583313,-0.065796,246,63,83,4731,8154,-10133,720,2342,-5980,2558,3124,5045,0.489537,0.709459,-0.506957,-8706,32767,-32768,5644,1453,1921
2858,2765,2809,3061,2943,0.460632,0.657349,-0.594543,-0.046143,99,-45,33,3614,11749,-11804,-376,6338,-7124,-458,5066,8072,0.487068,0.66046,-0.571278,10894,32767,-20682,2272,-1013,775
2853,2768,2854,3103,2998,0.453308,0.661133,-0.596008,-0.046387,53,-32,-10,4200,12377,-10901,275,7013,-6111,-1476,3948,8296,0.479015,0.654687,-0.584683,11122,26412,-16552,1232,-711,-222
2847,2763,2851,3067,2939,0.450073,0.667053,-0.590759,-0.058594,-46,-29,-52,4015,11730,-9967,299,6244,-5150,-1362,3128,7345,0.4536,0.669675,-0.587957,8014,18394,-16840,-1046,-662,-1174
2851,2773,2839,3071,2991,0.45575,0.66626,-0.585083,-0.077637,-68,-19,-42,4517,8847,-8476,995,3127,-3786,495,1422,4778,0.42985,0.698143,-0.572489,10350,9182,-12046,-1536,-416,-949
2847,2779,2839,3071,2959,0.459167,0.665161,-0.582886,-0.08313,-53,-5,-29,4643,7684,-7592,1163,1886,-2968,955,725,3504,0.424695,0.707751,-0.56445,9892,8974,-9778,-1194,-97,-647
2855,2768,2835,3056,2999,0.466614,0.662476,-0.579407,-0.08728,-32,14,-7,4511,6456,-5895,1028,562,-1395,852,-91,1607,0.425076,0.719382,-0.54924,8196,10550,-7270,-713,334,-141
2853,2767,2838,3071,2974,0.470215,0.661133,-0.578064,-0.087524,-24,17,-1,4386,6194,-5231,880,271,-786,611,-305,998,0.427898,0.722938,-0.542492,8018,11084,-6694,-533,404,-19
2847,2765,2831,3047,2999,0.47583,0.659119,-0.575928,-0.085815,-8,18,5,3988,6046,-4388,424,97,-26,87,-331,268,0.434962,0.726104,-0.532352,6426,11990,-7064,-171,418,127
2833,2758,2834,3071,2995,0.477295,0.658691,-0.5755,-0.084534,0,13,7,3715,6052,-4218,126,103,124,-110,-159,64,0.438004,0.726079,-0.530119,5798,12156,-7616,15,315,172
2849,2750,2831,3063,2963,0.476807,0.659119,-0.575745,-0.081665,16,3,6,3349,6124,-4053,-266,204,304,-424,84,-131,0.441384,0.722581,-0.531906,5996,12596,-7780,367,74,158
2849,2759,2827,3063,2967,0.475586,0.659851,-0.576172,-0.080261,18,-1,5,3289,6206,-4023,-332,306,357,-550,122,-117,0.442118,0.72012,-0.534754,6320,12932,-7876,434,-4,127
2853,2754,2823,3071,2979,0.473083,0.661194,-0.576965,-0.078369,13,-2,2,3318,6361,-4064,-305,495,360,-672,118,25,0.442271,0.716032,-0.540117,6942,12954,-8462,319,-37,68
2853,2767,2838,3087,2982,0.47229,0.661621,-0.577148,-0.07782,8,-1,1,3367,6362,-4169,-255,506,268,-604,126,103,0.442188,0.714781,-0.541729,7002,12636,-9084,206,-19,40
2851,2768,2839,3069,2975,0.47168,0.661926,-0.577332,-0.077515,-1,0,1,3436,6271,-4482,-184,422,-34,-328,219,238,0.442013,0.713938,-0.542968,7154,12334,-9868,-20,8,30
2849,2767,2839,3071,2993,0.472107,0.661621,-0.577332,-0.077759,-7,1,1,3486,6280,-4601,-136,426,-159,-234,246,330,0.442231,0.714497,-0.542123,7270,12706,-9880,-154,30,43
2847,2763,2851,3067,2955,0.47467,0.659729,-0.577087,-0.07959,-21,2,1,3542,6348,-4857,-85,464,-460,-45,371,542,0.442837,0.718168,-0.536626,7216,12990,-10548,-475,59,45
2853,2768,2837,3071,2971,0.476746,0.658264,-0.576843,-0.081116,-28,3,2,3564,6441,-5020,-66,532,-660,49,471,705,0.443224,0.721231,-0.532194,7234,13532,-11062,-629,91,47
2855,2768,2834,3071,2975,0.482727,0.654419,-0.575684,-0.085083,-40,8,1,3574,6785,-5356,-66,806,-1100,171,746,1130,0.444436,0.729773,-0.519411,6978,14918,-11798,-900,188,43
2851,2768,2835,3071,2975,0.486572,0.6521,-0.574768,-0.087708,-47,9,1,3506,7047,-5551,-138,1022,-1363,194,979,1386,0.444944,0.73541,-0.511147,6520,15754,-12352,-1064,221,44
2849,2768,2843,3071,2981,0.496033,0.645752,-0.572693,-0.09491,-67,9,5,3324,7830,-6073,-326,1691,-2059,224,1617,2130,0.445573,0.749336,-0.489916,6050,18714,-13724,-1528,209,131
2855,2763,2835,3071,3007,0.502014,0.641235,-0.571716,-0.099792,-80,9,8,3219,8320,-6418,-434,2111,-2518,289,2028,2605,0.446038,0.757924,-0.476066,5754,19488,-15094,-1813,216,200
2847,2769,2847,3087,2979,0.514893,0.630981,-0.570374,-0.106873,-75,26,22,3806,8348,-7475,99,2026,-3813,1550,2297,3312,0.452493,0.77169,-0.446927,10258,15494,-17848,-1711,603,516
2835,2773,2838,3071,2983,-1.21228,-1.021118,-1.178833,-1.607117,20257,-1293,32106,-1898,-22817,-19361,-5371,-8602,-32633,16885,-4587,22036,0.42396,6.264807,1.620118,11418,15820,-17948,-596,1523,1053
2851,2769,2850,3071,2975,0.532349,0.619873,-0.569519,-0.089722,-2,88,56,4957,8152,-8303,900,1908,-4885,2642,2414,3937,0.495133,0.762174,-0.417149,11710,17196,-17132,-31,2018,1286
2855,2769,2835,3071,2979,0.544434,0.615906,-0.565979,-0.062561,17,121,70,5190,8945,-8085,772,2870,-4813,1803,2966,4466,0.539213,0.741456,-0.39935,10500,20612,-14966,397,2793,1626
2851,2765,2843,3087,2978,0.560242,0.609802,-0.55957,-0.032532,3,137,80,4962,9621,-7480,150,3725,-4448,614,3715,4414,0.587313,0.719681,-0.370049,8992,20692,-12820,77,3153,1852
2849,2765,2853,3090,2983,0.569824,0.605103,-0.555725,-0.017944,-10,142,83,4851,9801,-7017,-159,3988,-4150,57,3954,4184,0.611615,0.709548,-0.349958,9186,20546,-11004,-213,3269,1919
2843,2769,2831,3071,2966,0.593201,0.591614,-0.545837,0.010376,-36,158,87,4770,9679,-5886,-635,4021,-3461,-704,4075,3382,0.659859,0.690564,-0.295951,9440,17814,-8288,-824,3622,1996
2849,2763,2832,3071,2995,0.62085,0.573547,-0.532837,0.040161,-49,179,92,4658,8903,-4730,-1139,3419,-2880,-975,3972,2132,0.707692,0.669375,-0.225805,8954,14820,-5760,-1116,4113,2114
2854,2767,2843,3087,2979,0.635742,0.562988,-0.525024,0.056335,-52,190,95,4556,8316,-4091,-1432,2936,-2573,-1024,3794,1357,0.730993,0.656676,-0.185265,8388,12900,-4316,-1190,4358,2192
2847,2771,2842,3071,2987,0.666016,0.539551,-0.506897,0.091187,-51,205,100,4088,6744,-2745,-2249,1613,-1957,-1005,3191,-541,0.773602,0.626254,-0.096168,6246,8390,-1532,-1168,4704,2298
2858,2757,2837,3091,2975,0.693787,0.515442,-0.486328,0.128113,-36,202,97,3242,4829,-1440,-3368,-9,-1403,-896,2264,-2716,0.806885,0.590604,-0.004443,3966,3484,1464,-823,4637,2223
2854,2765,2850,3091,2990,0.705933,0.503723,-0.475586,0.146973,-28,196,95,2859,3811,-633,-3854,-869,-960,-844,1473,-3693,0.81953,0.571393,0.040023,3470,1634,3784,-619,4501,2184
2847,2751,2842,3095,2966,0.727112,0.48114,-0.453979,0.183594,-16,175,87,1740,2106,1258,-5115,-2260,235,-1184,-395,-5455,0.836856,0.53299,0.124805,-3034,-530,8678,-357,4029,1999
2855,2769,2827,3071,2991,0.736755,0.471191,-0.442932,0.197388,-22,144,53,-1243,665,2254,-8113,-3590,914,-2181,-1483,-8519,0.83868,0.519447,0.16356,-24052,-9024,11138,-485,3299,1236
2845,2783,2858,3063,2990,0.752075,0.46405,-0.424805,0.196228,-24,-1,-75,-2262,-1714,6956,-8988,-6066,5249,-3267,-6634,-9509,0.82109,0.531284,0.208321,5638,-9110,32134,-528,-16,-1701
2847,2766,2832,3071,2995,0.762878,0.456421,-0.419006,0.18457,-25,-20,-50,801,-3223,9376,-5816,-7660,7474,-1809,-9720,-7112,0.807785,0.541715,0.232163,8978,-6986,20776,-550,-438,-1145
2851,2753,2859,3071,2995,0.766785,0.451477,-0.418274,0.18219,-30,-8,-20,1733,-3236,9208,-4869,-7659,7222,-1253,-9650,-6309,0.805961,0.539961,0.242367,8384,-6374,16410,-679,-176,-458
2843,2771,2857,3071,2965,0.770874,0.443176,-0.419556,0.182251,-5,-14,0,2229,-2958,7447,-4393,-7302,5357,-386,-8028,-6057,0.808388,0.530337,0.25503,4038,-4768,8306,-98,-311,13
2832,2737,2817,3071,2951,0.766418,0.448242,-0.423218,0.180359,44,-51,-27,1731,-2330,5216,-4907,-6707,3250,-13,-5799,-6781,0.810413,0.53442,0.239892,1472,-2552,4152,1014,-1151,-613
2847,2755,2830,3095,2971,0.761047,0.456482,-0.425842,0.176147,62,-76,-48,1429,-1833,4372,-5198,-6295,2565,-104,-4820,-7068,0.808989,0.544787,0.220504,1244,-178,4222,1432,-1732,-1082
2833,2768,2855,3071,2983,0.745605,0.479919,-0.434204,0.15863,70,-130,-78,1502,-108,3689,-5049,-4842,2359,-895,-3470,-6453,0.799749,0.577905,0.162235,3946,5294,6096,1621,-2959,-1777
2851,2755,2818,3071,2970,0.726379,0.504944,-0.447327,0.131348,54,-163,-87,1890,1515,3239,-4520,-3531,2503,-1580,-2559,-5487,0.782504,0.616051,0.08981,4942,7392,4916,1247,-3728,-1988
2857,2779,2831,3102,2979,0.716248,0.515991,-0.455383,0.115234,41,-172,-87,2044,2141,2901,-4274,-3054,2469,-1765,-2127,-5103,0.771254,0.634203,0.052669,4908,7808,3580,944,-3939,-1982
2847,2765,2823,3059,2992,0.695251,0.534973,-0.473328,0.079468,20,-184,-88,2171,2942,1801,-3917,-2535,1969,-1676,-1113,-4646,0.74319,0.668653,-0.020546,4360,7634,-494,472,-4202,-1996
2839,2750,2839,3089,2979,0.670898,0.552917,-0.492493,0.040283,22,-196,-95,2064,3315,138,-3714,-2437,928,-1013,157,-4420,0.705372,0.702225,-0.096539,3932,7362,-4894,519,-4474,-2167
2851,2768,2859,3071,2983,0.656494,0.562622,-0.502014,0.02002,29,-201,-99,2092,3459,-645,-3492,-2427,478,-598,629,-4190,0.681666,0.718616,-0.137176,4370,7748,-5812,667,-4590,-2260
2851,2767,2845,3071,2959,0.624756,0.582764,-0.519287,-0.020691,35,-200,-107,2272,4310,-1848,-2845,-1831,-57,-209,1249,-3137,0.62474,0.749659,-0.218525,4962,12848,-7354,822,-4566,-2441
2847,2773,2847,3071,2987,0.595703,0.599854,-0.530273,-0.063904,3,-175,-120,2557,6219,-2850,-1990,-190,-539,-366,1714,-1101,0.555105,0.782442,-0.282068,5554,18792,-8916,88,-3995,-2731
2836,2751,2834,3071,3005,0.584167,0.606689,-0.532104,-0.086792,-18,-157,-129,2559,7220,-3528,-1671,656,-1050,-293,2058,-19,0.516365,0.801181,-0.302423,5014,20204,-11410,-401,-3587,-2946
2847,2775,2835,3063,2943,0.558167,0.62146,-0.536743,-0.118652,97,-102,-86,6422,1774,-7890,2721,-4952,-5033,7482,-312,-1082,0.451709,0.821128,-0.348677,32767,-32602,-32768,2225,-2324,-1947
2861,2769,2827,3057,2941,0.506348,0.655334,-0.557373,-0.058777,316,75,85,5239,7371,-9904,1246,1397,-5969,3354,2773,4492,0.487412,0.729175,-0.480285,-9538,32018,-32768,7243,1736,1960
2859,2768,2815,3089,2962,0.483276,0.669678,-0.562683,-0.03717,252,15,76,3733,9378,-11623,-314,3732,-7280,1528,5029,6276,0.494079,0.689109,-0.530143,2416,32767,-32768,5786,355,1757
2847,2768,2839,3091,2935,0.455444,0.684387,-0.568787,-0.025574,65,-33,-6,3877,12505,-11331,-80,7159,-6548,-1813,4398,8455,0.483097,0.652493,-0.583821,9346,31426,-19230,1494,-753,-135
2855,2770,2850,3031,2993,0.455322,0.687378,-0.564392,-0.040588,-72,-30,-42,4272,12808,-9939,518,7304,-5170,-2265,2956,8153,0.458161,0.671772,-0.582061,9890,22622,-16080,-1636,-665,-961
2833,2773,2853,3107,2959,0.462524,0.684143,-0.56134,-0.05365,-122,-27,-44,4542,11567,-9255,889,5889,-4615,-1172,2257,7091,0.445859,0.693097,-0.566348,10668,14456,-14440,-2776,-603,-997
2841,2758,2831,3071,2915,0.479736,0.674744,-0.555847,-0.075012,-112,-2,-30,4787,8085,-7772,1247,2098,-3442,1223,1080,3891,0.432092,0.730789,-0.528471,9752,6210,-10156,-2546,-41,-676
2849,2774,2838,3038,3011,0.493164,0.667603,-0.551392,-0.083862,-61,15,-10,4523,5832,-5859,985,-319,-1767,1739,163,1068,0.43188,0.750957,-0.499482,7854,6974,-6004,-1382,356,-226
2854,2768,2841,3103,2991,0.497986,0.665161,-0.549866,-0.085022,-39,17,-2,4313,5318,-4977,753,-875,-966,1491,-153,138,0.434544,0.755983,-0.489573,7366,7984,-4880,-882,397,-43
2851,2768,2864,3071,3007,0.503174,0.662659,-0.548462,-0.082886,0,15,8,3902,5063,-3751,280,-1144,180,724,-454,-829,0.442093,0.757784,-0.479873,6490,10392,-4744,18,365,191
2859,2745,2847,3067,2975,0.503479,0.662781,-0.548401,-0.080383,15,12,10,3624,5231,-3514,-26,-958,418,333,-325,-936,0.445664,0.755557,-0.480069,5474,11700,-6038,360,288,235
2850,2767,2800,3110,2999,0.500488,0.664978,-0.549133,-0.075745,29,2,6,3306,5933,-3427,-371,-201,566,-379,-51,-593,0.448933,0.748815,-0.487517,6274,14262,-6720,666,57,146
2862,2769,2823,3071,2974,0.498718,0.666382,-0.549316,-0.073975,25,1,3,3264,6326,-3459,-416,215,568,-669,25,-305,0.449318,0.745944,-0.491621,6320,15004,-7214,588,39,87
2863,2740,2837,3056,3007,0.497253,0.667969,-0.548889,-0.072693,5,2,-1,3297,6834,-3651,-379,738,403,-893,141,179,0.448761,0.7441,-0.494916,6866,14464,-8028,123,55,-5
2850,2762,2839,3071,2951,0.497742,0.667969,-0.548401,-0.072937,-5,3,-2,3356,6825,-3793,-317,722,252,-761,177,271,0.448485,0.744949,-0.493859,7074,13352,-8470,-104,81,-26
2851,2763,2823,3106,2993,0.5,0.666748,-0.547607,-0.074402,-17,2,-1,3400,6584,-4172,-273,454,-167,-295,362,298,0.448393,0.748234,-0.488891,6912,12424,-9482,-379,57,-10
2858,2771,2823,3071,2994,0.501404,0.66571,-0.547363,-0.075623,-21,1,0,3443,6501,-4333,-228,354,-354,-89,426,335,0.448215,0.750366,-0.485652,7204,12602,-9588,-460,29,9
2851,2767,2847,3071,2960,0.504761,0.663025,-0.547119,-0.078796,-27,-1,0,3515,6617,-4637,-153,427,-721,138,589,598,0.447841,0.75556,-0.477949,7186,14018,-10248,-605,-9,15
2847,2759,2839,3047,2995,0.506836,0.661377,-0.546936,-0.080994,-32,-1,0,3536,6872,-4829,-128,654,-953,161,730,890,0.447279,0.759016,-0.473116,7184,15568,-10904,-718,-5,10
2847,2755,2842,3091,2967,0.513428,0.656738,-0.54541,-0.087097,-53,6,-1,3599,7893,-5330,-51,1590,-1581,49,1151,1924,0.445657,0.769383,-0.457583,7374,19498,-12270,-1200,140,-8
2847,2769,2843,3071,2991,0.518738,0.653137,-0.544006,-0.09137,-69,8,1,3575,8565,-5646,-70,2199,-1999,-14,1498,2567,0.44504,0.777025,-0.445094,6848,21194,-13352,-1579,206,29
2855,2767,2845,3090,2981,0.533081,0.64209,-0.541443,-0.101868,-101,14,14,3636,9395,-6541,-21,2883,-3175,548,2286,3586,0.446449,0.794883,-0.410887,8160,19770,-16044,-2311,324,336
2853,2765,2845,3071,2971,0.541321,0.634827,-0.541138,-0.105591,-102,21,27,4015,9298,-7037,313,2731,-3828,1314,2411,3829,0.451794,0.801568,-0.391657,10758,17468,-17054,-2326,495,637
2855,2759,2850,3071,2981,0.556824,0.62085,-0.542419,-0.101196,-55,60,57,4969,8719,-7862,1049,2155,-4917,2789,2484,3995,0.478409,0.801189,-0.35938,12502,16082,-17750,-1248,1390,1324
2851,2764,2837,3071,2979,0.569397,0.613281,-0.541687,-0.078613,7,109,72,5541,8564,-8107,1277,2145,-5328,3079,2809,4152,0.520446,0.783569,-0.339146,12116,17736,-16124,167,2514,1667
2858,2767,2832,3071,2975,0.575256,0.611511,-0.539612,-0.062439,23,128,78,5612,8868,-7947,1151,2552,-5241,2624,3115,4325,0.544466,0.770937,-0.330308,11476,19968,-14620,547,2953,1805
2855,2769,2843,3071,2989,0.590332,0.606445,-0.531921,-0.027771,8,152,88,5365,10086,-7144,496,3978,-4674,871,3918,4669,0.594337,0.745552,-0.301453,9442,23926,-11478,199,3483,2031
2855,2768,2839,3087,2987,0.613525,0.593323,-0.521057,0.003479,-45,163,97,5040,10688,-5841,-231,4753,-3816,-640,4340,4237,0.643492,0.724412,-0.247107,9112,21856,-7432,-1011,3753,2227
2847,2772,2838,3071,2987,0.628113,0.583069,-0.514954,0.017822,-67,169,100,4841,10451,-5160,-628,4601,-3437,-1008,4413,3589,0.667681,0.714111,-0.210303,8458,18832,-6278,-1523,3878,2311
2853,2767,2835,3071,2983,0.65918,0.557251,-0.502686,0.047302,-82,175,115,4318,8827,-3827,-1542,3198,-2790,-1044,4147,1446,0.715439,0.687101,-0.126466,6672,11682,-3696,-1864,4009,2650
2855,2767,2833,3071,2975,0.687561,0.528076,-0.491699,0.08136,-66,173,133,3665,6720,-2355,-2577,1426,-2016,-1006,3286,-959,0.762075,0.64616,-0.041273,5470,6930,256,-1507,3964,3069
2858,2768,2835,3071,2981,0.700134,0.513123,-0.486206,0.100403,-54,171,139,3380,5655,-1442,-3041,568,-1446,-1069,2527,-2031,0.783857,0.620876,0.000578,5110,5070,2762,-1220,3937,3189
2860,2775,2839,3071,2983,0.721436,0.485413,-0.473206,0.141052,-22,167,131,2695,3679,446,-4020,-964,-216,-1302,737,-3859,0.819712,0.566894,0.080816,2910,1878,6292,-499,3832,3022
2853,2771,2832,3071,2979,0.737915,0.462463,-0.457825,0.17865,-7,143,102,1460,2029,2241,-5428,-2222,987,-1782,-1097,-5566,0.84091,0.518937,0.152959,-3364,-670,9992,-140,3284,2356
2851,2769,2843,3071,2979,0.744995,0.453796,-0.449585,0.191956,-9,109,63,-998,938,3104,-7912,-3187,1598,-2709,-2030,-7989,0.844095,0.503551,0.183807,-19430,-5464,12186,-187,2507,1453
2846,2768,2839,3094,2991,0.757874,0.44635,-0.436401,0.189392,-36,-11,-62,-2046,-1105,6905,-8849,-5293,5098,-3771,-6188,-8931,0.830544,0.511252,0.220567,5130,-6424,28146,-812,-247,-1408
2855,2769,2839,3089,2991,0.769897,0.433044,-0.433777,0.177551,-57,-12,-33,842,-2604,8698,-5889,-6804,6661,-2309,-8688,-6672,0.821703,0.512764,0.248577,8080,-6232,17288,-1284,-262,-742
2847,2768,2841,3071,2990,0.775146,0.424622,-0.43396,0.174622,-65,-1,-9,1608,-2874,8195,-5118,-7025,6042,-1556,-8455,-6174,0.821061,0.50673,0.26272,7188,-7706,12478,-1488,-15,-197
2845,2767,2843,3071,2997,0.78064,0.412109,-0.437012,0.172485,-18,-16,-7,2006,-3543,6081,-4748,-7578,3800,66,-7139,-6590,0.824463,0.492662,0.278336,4182,-8584,5232,-396,-358,-150
2851,2765,2838,3071,2992,0.413025,-0.439087,0.171326,0.001343,-34,-24,1989,-3545,5026,-19862,-2375,7993,-19439,-4732,-6647,-1554,-0.142703,-0.362248,-0.051558,3476,-3480,3368,1216,-1203,-1044
2846,2763,2845,3103,2989,0.769836,0.429199,-0.442993,0.163635,70,-73,-67,1921,-2424,3541,-4817,-6649,1583,678,-4499,-7013,0.822529,0.515848,0.23897,4016,148,3892,1623,-1667,-1527
2851,2769,2851,3071,2975,0.754944,0.455505,-0.448547,0.145996,78,-113,-93,2422,-369,3143,-4215,-4930,1647,-134,-3228,-5859,0.81026,0.55679,0.182575,6506,5266,5432,1787,-2586,-2121
2846,2783,2833,3071,2991,0.736206,0.483276,-0.457947,0.121338,70,-142,-98,2824,1158,2696,-3660,-3760,1766,-664,-2379,-4954,0.791566,0.600449,0.113451,6690,5966,3756,1610,-3239,-2236
2846,2766,2823,3095,2991,0.725586,0.496643,-0.463928,0.107605,67,-150,-98,2984,1619,2388,-3406,-3467,1764,-720,-2085,-4675,0.780122,0.620872,0.07617,6904,5718,2900,1552,-3419,-2234
2861,2755,2847,3059,2987,0.70166,0.523804,-0.476379,0.079285,76,-158,-102,3052,2249,1522,-3104,-3153,1544,-635,-1430,-4416,0.751572,0.659525,-0.002695,5692,6554,20,1755,-3598,-2329
2855,2771,2826,3103,2983,0.673706,0.552368,-0.488403,0.048523,73,-168,-106,2875,3401,551,-2955,-2307,1267,-901,-489,-3821,0.711686,0.69687,-0.087414,5450,10774,-1392,1691,-3842,-2411
2851,2765,2817,3071,2959,0.659729,0.565063,-0.494324,0.031555,59,-171,-104,2891,4137,216,-2744,-1715,1259,-1143,-175,-3273,0.687901,0.714381,-0.127415,6048,12896,-1448,1362,-3897,-2382
2839,2755,2838,3071,2991,0.634338,0.5849,-0.505432,-0.00531,27,-166,-103,2984,5116,-646,-2218,-1006,952,-1112,307,-2346,0.635018,0.747417,-0.195156,6140,11738,-4304,619,-3785,-2351
2855,2758,2832,3056,2983,0.609253,0.601501,-0.514954,-0.042297,25,-159,-102,2667,5411,-1982,-2056,-950,98,-485,1052,-1948,0.57659,0.776495,-0.254003,3544,12290,-8566,589,-3624,-2336
2832,2749,2845,3103,2986,0.595459,0.609436,-0.519897,-0.060486,24,-164,-92,2277,5979,-2788,-2191,-481,-465,-398,1734,-1442,0.545431,0.788681,-0.283476,2108,16110,-10370,560,-3736,-2102
2858,2767,2849,3063,2965,0.567017,0.618896,-0.53595,-0.090881,55,-144,-17,5027,3230,-6429,969,-3317,-3639,4876,735,-932,0.495292,0.799265,-0.340508,32767,-30572,-32768,1262,-3287,-369
2859,2763,2787,3039,2979,0.530334,0.63855,-0.556702,-0.032227,244,116,103,4994,7620,-8424,493,1777,-4857,2051,3072,3652,0.54932,0.713171,-0.435369,-7676,32767,-32768,5598,2679,2381
2861,2768,2832,3071,2995,0.516663,0.649597,-0.557556,-0.013672,166,52,66,3771,9761,-10535,-803,4137,-6719,748,5644,5520,0.558374,0.686491,-0.465718,5566,32767,-32768,3823,1198,1519
2843,2755,2859,3103,2990,0.505371,0.658447,-0.557556,-0.010254,1,-8,-16,3788,12435,-11157,-717,6889,-7151,-1131,6124,7765,0.550042,0.676955,-0.488917,7510,27832,-23904,26,-182,-360
2850,2761,2815,3103,2951,0.50769,0.659607,-0.553528,-0.027649,-77,-23,-45,4644,11567,-9974,338,5829,-6017,-361,4337,7166,0.525567,0.700361,-0.48296,12104,17584,-15070,-1759,-519,-1024
2855,2768,2832,3055,2999,0.513733,0.656433,-0.551025,-0.038818,-109,-19,-44,5030,10263,-8978,809,4387,-5135,485,3219,5972,0.515196,0.717242,-0.469105,12162,12062,-11414,-2476,-420,-994
2864,2773,2837,3067,2993,0.529175,0.647217,-0.545837,-0.055847,-92,5,-28,5324,7343,-6440,1183,1232,-2887,1549,1087,2768,0.505396,0.745949,-0.433683,10366,6440,-5644,-2097,123,-630
2859,2751,2835,3055,3015,0.540222,0.641113,-0.541504,-0.062378,-41,13,-12,4831,5291,-4333,693,-936,-986,1523,-70,41,0.505082,0.760243,-0.408522,7850,5956,-2952,-931,314,-264
2853,2761,2823,3071,2961,0.543091,0.639771,-0.540161,-0.062805,-17,11,-6,4577,4798,-3513,428,-1450,-218,1223,-439,-801,0.506351,0.762757,-0.402188,7716,7206,-2392,-384,271,-125
2859,2783,2859,3103,2961,0.543701,0.640259,-0.539307,-0.05957,22,6,3,4286,4756,-2509,106,-1473,781,447,-828,-1379,0.510162,0.760472,-0.401623,7884,10616,-3024,520,138,77
2853,2767,2837,3057,2975,0.541992,0.641907,-0.539368,-0.056885,33,4,3,4153,5057,-2370,-38,-1145,955,78,-771,-1274,0.511637,0.75718,-0.40597,7438,12132,-4270,777,93,80
2854,2766,2847,3095,2967,0.536621,0.646667,-0.53949,-0.052612,36,-4,-2,3837,5928,-2553,-348,-222,875,-567,-330,-710,0.510958,0.750798,-0.418498,6952,14430,-5866,825,-73,-24
2855,2767,2846,3071,2961,0.533997,0.648926,-0.539429,-0.051636,29,-6,-4,3749,6275,-2720,-421,141,755,-750,-141,-429,0.509091,0.748756,-0.424269,7010,14428,-6538,675,-130,-89
2863,2765,2823,3071,2995,0.530396,0.652161,-0.539124,-0.052002,9,-7,-7,3716,6591,-3138,-413,464,400,-727,125,-33,0.50407,0.747877,-0.431944,7482,13536,-7562,222,-151,-146
2851,2757,2832,3087,2961,0.529602,0.652832,-0.539001,-0.052856,1,-6,-6,3739,6554,-3353,-372,422,197,-553,217,43,0.5019,0.748462,-0.43344,7640,12704,-7990,25,-137,-132
2853,2766,2827,3071,2992,0.529175,0.652771,-0.539246,-0.054932,-8,-6,-2,3819,6300,-3708,-268,155,-153,-112,322,48,0.498995,0.750103,-0.433852,7904,11834,-8206,-165,-133,-28
2835,2758,2843,3087,2971,0.529114,0.652344,-0.539734,-0.055847,-8,-6,1,3862,6212,-3812,-220,62,-258,35,339,48,0.498298,0.750613,-0.433785,7974,12002,-8184,-166,-135,24
2865,2770,2847,3071,2978,0.529114,0.651306,-0.540894,-0.057251,-7,-6,3,3939,6282,-3918,-139,128,-366,97,354,185,0.497813,0.751163,-0.433527,8028,13132,-8082,-153,-117,72
2854,2769,2797,3071,2957,0.529236,0.650696,-0.541382,-0.058105,-8,-6,2,3938,6398,-3989,-136,240,-441,76,415,303,0.497419,0.751658,-0.433033,7824,13498,-8452,-181,-115,63
2858,2759,2827,3103,3001,0.529724,0.649475,-0.542114,-0.060608,-13,-7,0,3878,6713,-4207,-182,537,-672,21,638,604,0.495615,0.753798,-0.431425,7538,14618,-9114,-292,-142,14
2837,2770,2835,3071,3007,0.530334,0.648621,-0.542358,-0.062561,-18,-7,0,3846,6935,-4328,-201,743,-807,-24,767,809,0.494106,0.755833,-0.429693,7488,15262,-9420,-412,-157,3
2839,2767,2845,3063,2983,0.533081,0.645447,-0.542786,-0.068115,-35,-8,2,3847,7574,-4648,-173,1330,-1187,-113,1072,1430,0.490768,0.762095,-0.422403,7780,17544,-10264,-788,-164,52
2866,2763,2832,3063,2995,0.535645,0.6427,-0.54303,-0.071777,-46,-7,4,3854,7953,-4870,-155,1674,-1463,-115,1287,1815,0.489479,0.766472,-0.415878,7712,18162,-11186,-1049,-151,113
2853,2751,2887,3061,2967,0.542725,0.635193,-0.543701,-0.079468,-58,1,10,4177,8298,-5569,169,1941,-2306,487,1609,2506,0.489205,0.775883,-0.398216,10048,16386,-13730,-1317,29,236
2837,2766,2847,3087,2995,0.549988,0.628845,-0.543823,-0.079285,-30,33,19,4913,8087,-6443,829,1714,-3310,1615,1701,3012,0.498477,0.777948,-0.382417,11992,15768,-15414,-679,759,449
2851,2781,2836,3095,2990,0.553284,0.627197,-0.54303,-0.074524,-11,52,25,5231,8107,-6813,1074,1758,-3728,1964,1820,3311,0.507417,0.774973,-0.376581,12268,16584,-15750,-241,1208,591
2847,2770,2847,3098,2992,0.560303,0.625671,-0.539795,-0.056885,13,85,43,5619,8509,-7164,1246,2262,-4168,1946,2221,3913,0.533715,0.762543,-0.365668,11844,18456,-14854,298,1965,988
2855,2753,2829,3055,2951,0.564331,0.624817,-0.537598,-0.045349,17,96,51,5592,8780,-7212,1085,2603,-4272,1672,2579,4092,0.550096,0.753966,-0.358881,10810,19266,-14638,403,2206,1176
2864,2753,2826,3071,2987,0.574219,0.621704,-0.532288,-0.020569,9,109,62,5499,9416,-6888,700,3387,-4105,755,3127,4296,0.585724,0.735885,-0.339696,10904,20964,-11996,219,2517,1422
2847,2771,2851,3099,2991,0.590332,0.613708,-0.52417,0.004272,-21,131,66,5606,9996,-6022,493,4096,-3540,-261,3276,4329,0.624113,0.720105,-0.302882,11612,21192,-9038,-479,3012,1528
2847,2769,2843,3071,2989,0.601501,0.607361,-0.518616,0.016602,-38,144,68,5625,10052,-5536,348,4207,-3276,-595,3338,4128,0.644063,0.713437,-0.27577,11264,20170,-8158,-866,3307,1571
2851,2771,2847,3089,2991,0.62793,0.590759,-0.504822,0.042053,-60,167,73,5431,9543,-4711,-169,3813,-3008,-800,3588,3176,0.683672,0.699452,-0.207777,10092,16550,-7030,-1374,3840,1680
2847,2767,2847,3071,2993,0.655884,0.570923,-0.488708,0.070801,-58,183,82,5056,8270,-3963,-857,2701,-2901,-571,3685,1593,0.721916,0.679716,-0.129593,9076,11988,-5364,-1320,4205,1896
2843,2762,2847,3071,2993,0.669434,0.56012,-0.480042,0.087524,-52,191,91,4944,7446,-3372,-1124,1990,-2648,-449,3391,726,0.74076,0.665895,-0.088372,9280,9946,-2902,-1177,4394,2093
2847,2769,2839,3071,3199,0.695251,0.536743,-0.460999,0.126465,-34,206,106,4562,5786,-1816,-1801,627,-1805,-486,2377,-1001,0.776778,0.629743,-0.001245,7512,6466,1436,-762,4734,2440
2847,2765,2843,3071,2983,0.717957,0.512634,-0.438965,0.170349,-15,210,111,3676,4087,-91,-2918,-717,-820,-752,1027,-2842,0.804969,0.586544,0.088996,4014,3266,4992,-331,4824,2547
2853,2768,2845,3071,2981,0.727661,0.501099,-0.427002,0.192261,-7,203,105,2674,3273,801,-3995,-1356,-288,-1159,274,-4056,0.814109,0.565069,0.133024,-2814,1630,7222,-142,4651,2414
2847,2764,2834,3071,2979,0.745422,0.486572,-0.400452,0.217224,3,97,-26,-3731,1,3480,-10353,-4516,1794,-3524,-2883,-10490,0.808402,0.551428,0.205727,-20812,-8422,19386,84,2232,-589
2847,2759,2832,3067,2983,0.753723,0.485474,-0.388123,0.213379,-12,32,-88,-3226,-413,6567,-9716,-5051,4704,-4153,-5895,-9488,0.792254,0.566191,0.227305,860,-3472,32430,-261,736,-2011
2847,2767,2835,3071,2975,0.771057,0.474976,-0.374268,0.19928,-52,8,-69,-164,-1444,9500,-6442,-6222,7299,-2831,-9044,-6606,0.766469,0.583299,0.268564,6532,-1956,21506,-1171,186,-1561
2846,2765,2843,3071,2987,0.785522,0.456787,-0.371277,0.190674,-78,1,-9,1092,-1782,8253,-5113,-6500,5738,-1526,-8041,-5856,0.757487,0.576048,0.306901,4420,-6020,9996,-1785,24,-204
2847,2769,2842,3071,2967,0.789185,0.449158,-0.373901,0.18866,-51,-18,2,1279,-2261,7009,-4943,-6912,4413,-685,-7193,-6281,0.75963,0.567856,0.31686,3414,-7428,6368,-1162,-391,51
2853,2771,2846,3071,2987,0.786316,0.44751,-0.382874,0.186462,28,-56,-5,1460,-2614,4796,-4839,-7209,2287,505,-5516,-7065,0.769007,0.560985,0.306204,3884,-4644,4186,644,-1278,-110
2851,2768,2831,3071,2991,0.774414,0.462097,-0.392395,0.18103,73,-88,-33,1727,-1438,3781,-4622,-6137,1610,341,-4114,-6676,0.77506,0.573638,0.264981,4104,2062,5678,1681,-1993,-755
2849,2766,2841,3095,2983,0.766602,0.473145,-0.397156,0.175049,79,-107,-48,1860,-434,3627,-4485,-5237,1687,-168,-3547,-6145,0.774567,0.586383,0.236722,4634,5316,6628,1813,-2436,-1088
2847,2766,2845,3071,2979,0.749207,0.496643,-0.409729,0.155396,65,-145,-65,2183,1276,3467,-4110,-3777,2066,-1064,-2816,-5134,0.768296,0.616836,0.170926,5130,6838,6114,1498,-3308,-1483
2851,2767,2838,3071,2987,0.139893,0.109497,0.197693,-1.21228,-9910,-19355,17225,-10434,-7351,16277,-7806,-3675,4495,9180,5246,10617,-0.320794,-0.448683,1.438121,5226,6434,3456,1074,-3957,-1565
2847,2768,2847,3071,2991,0.718872,0.527954,-0.437927,0.112488,39,-183,-71,2470,2495,2474,-3660,-2916,1991,-1360,-1823,-4547,0.748404,0.66054,0.058915,5538,6906,2498,905,-4181,-1613
2847,2768,2847,3089,2983,0.696045,0.546448,-0.459106,0.077515,28,-192,-80,2604,3312,1373,-3325,-2336,1527,-1305,-873,-4046,0.723833,0.689529,-0.018897,5716,9412,-1064,650,-4388,-1826
2855,2767,2847,3091,2971,0.671997,0.563904,-0.478394,0.038757,19,-189,-92,2925,4173,70,-2700,-1731,838,-933,25,-3180,0.686669,0.720801,-0.093766,6978,10794,-3720,446,-4314,-2098
2843,2763,2847,3071,2990,0.659912,0.572021,-0.486694,0.018738,13,-183,-96,3137,4644,-513,-2300,-1391,537,-733,328,-2620,0.663788,0.736729,-0.128245,7476,12138,-4574,313,-4188,-2189
2849,2766,2833,3071,2979,0.638916,0.584778,-0.499329,-0.021057,-12,-155,-98,3712,5857,-1446,-1313,-436,50,-447,628,-1149,0.613431,0.768277,-0.182637,8968,15976,-5726,-263,-3532,-2238
2844,2763,2838,3087,2991,0.624329,0.59314,-0.504761,-0.060364,-33,-120,-104,3619,6988,-3023,-957,421,-1276,212,1634,74,0.558665,0.801567,-0.213168,5940,16188,-12190,-746,-2737,-2367
2845,2766,2835,3071,2971,0.616943,0.597717,-0.505859,-0.078369,-27,-108,-100,3434,7230,-4020,-911,538,-2165,847,2210,446,0.530488,0.816803,-0.226399,5842,15924,-13800,-599,-2455,-2285
2847,2768,2847,3059,2959,0.594421,0.608887,-0.517517,-0.090027,137,-47,17,7284,4271,-8216,3142,-2422,-5945,6984,846,1257,0.505614,0.817051,-0.277125,32767,-718,-31266,3144,-1069,399
2853,2757,2851,3101,3067,0.568848,0.625549,-0.532227,-0.042908,154,64,101,4802,9622,-9374,281,3417,-6513,2305,4867,5016,0.55183,0.757358,-0.349148,-2604,29664,-32768,3531,1477,2329
2853,2767,2839,3047,2987,0.557922,0.632263,-0.536621,-0.030762,104,19,67,4496,11415,-9945,-90,5365,-6868,885,5747,6490,0.559887,0.738522,-0.375495,9222,32767,-18388,2395,440,1556
2847,2771,2819,3057,2997,0.552795,0.637146,-0.536194,-0.030151,-10,-4,-18,4630,12676,-9036,88,6640,-5865,-576,5115,7210,0.554389,0.736757,-0.386967,9612,24048,-14866,-219,-71,-400
2855,2764,2853,3071,2961,0.55835,0.635803,-0.531006,-0.044922,-78,-12,-42,5125,11056,-7379,735,4848,-4327,100,3241,5678,0.535851,0.757709,-0.372441,11930,14108,-9810,-1784,-254,-950
2853,2781,2842,3071,2977,0.563721,0.632446,-0.528503,-0.053467,-87,-10,-40,5333,9473,-6524,1005,3168,-3585,889,2236,4254,0.528227,0.769561,-0.358664,11756,9202,-7920,-1979,-214,-896
2839,2746,2839,3087,2975,0.572937,0.626465,-0.524597,-0.063965,-50,5,-21,5378,6769,-4782,1110,338,-2035,1678,583,1525,0.520979,0.784961,-0.335312,10152,7222,-4274,-1129,129,-479
2846,2770,2854,3099,2960,0.576233,0.624573,-0.522949,-0.065552,-31,11,-12,5169,6045,-3935,902,-413,-1254,1497,72,554,0.520797,0.788359,-0.327226,8950,8324,-2844,-700,259,-257
2846,2767,2859,3094,2958,0.580994,0.622192,-0.520569,-0.065369,-8,12,0,4682,5506,-2519,393,-974,72,684,-543,-587,0.523551,0.791037,-0.316289,8048,10260,-1550,-172,278,9
2855,2779,2849,3117,2935,0.582275,0.621826,-0.519775,-0.06427,2,11,2,4494,5490,-2090,190,-989,479,322,-667,-832,0.525375,0.79096,-0.313659,7894,11134,-1940,55,252,46
2842,2775,2849,3039,2999,0.58197,0.623291,-0.518677,-0.061279,19,5,0,4101,5847,-1861,-218,-616,720,-234,-452,-827,0.527319,0.789042,-0.315073,7084,13306,-3736,440,119,20
2842,2768,2846,3091,2975,0.580566,0.624939,-0.518372,-0.06012,22,0,-2,3950,6144,-1926,-365,-311,683,-448,-256,-654,0.526756,0.787966,-0.318586,7076,14080,-4352,519,9,-31
2850,2768,2839,3071,2991,0.577087,0.628784,-0.517761,-0.059326,18,-4,-7,3868,6828,-2226,-416,379,451,-714,76,-66,0.52298,0.78716,-0.326897,7790,15736,-5526,418,-70,-153
2847,2771,2827,3024,2995,0.575989,0.630249,-0.51709,-0.059814,9,-3,-9,3889,7121,-2422,-373,666,275,-743,218,240,0.52028,0.787892,-0.329255,7884,15890,-6120,223,-63,-203
2847,2759,2837,3089,3005,0.575439,0.631836,-0.515442,-0.062622,-9,-3,-12,3977,7409,-2926,-234,923,-223,-492,495,684,0.514077,0.791723,-0.329845,8428,15228,-7316,-187,-53,-266
2832,2785,2833,3013,2959,0.576111,0.631714,-0.514587,-0.064636,-17,-2,-11,4070,7440,-3150,-118,932,-464,-278,572,832,0.511256,0.794396,-0.327781,8688,15042,-7634,-379,-36,-245
2839,2753,2847,3071,2973,0.579102,0.6297,-0.513062,-0.069519,-31,-1,-8,4211,7529,-3513,60,970,-895,89,736,1093,0.506677,0.800655,-0.319562,8834,15480,-7924,-704,-17,-173
2847,2763,2839,3090,2943,0.583923,0.625671,-0.511719,-0.075562,-43,-1,-6,4233,7826,-3886,111,1206,-1373,336,1064,1451,0.503056,0.808021,-0.306645,8474,16820,-8988,-977,-18,-115
2846,2755,2847,3089,2962,0.586914,0.622986,-0.511047,-0.079041,-50,0,-3,4287,8117,-4049,179,1464,-1603,406,1221,1757,0.5014,0.812065,-0.298565,9038,18206,-8992,-1129,9,-64
2859,2759,2843,3071,2971,0.596252,0.614746,-0.508972,-0.086731,-73,9,2,4517,9049,-4264,418,2320,-2019,424,1528,2667,0.500317,0.821375,-0.273926,9740,20778,-9336,-1669,223,56
2860,2771,2845,3091,2989,0.602478,0.609314,-0.507385,-0.090698,-83,15,4,4662,9350,-4492,559,2581,-2382,667,1744,3025,0.50085,0.826234,-0.257497,10318,20002,-10594,-1879,358,113
2853,2743,2837,3062,2998,0.615112,0.598206,-0.505005,-0.093445,-64,35,23,5194,8779,-5084,1020,1977,-3234,1885,1868,2891,0.509471,0.830307,-0.225785,12150,14732,-11674,-1448,817,527
2852,2763,2831,3089,2959,0.620117,0.594055,-0.504456,-0.089539,-36,49,35,5419,8330,-5270,1165,1554,-3510,2363,1873,2644,0.519261,0.827104,-0.214814,12016,14088,-11580,-804,1129,815
2847,2766,2841,3067,2991,0.625916,0.591309,-0.503479,-0.07135,24,72,55,5535,8063,-5448,1063,1410,-3758,2485,2193,2500,0.545891,0.812065,-0.206276,11132,16704,-10752,567,1670,1260
2855,2768,2835,3063,2999,0.629272,0.592346,-0.501099,-0.044556,45,90,68,5566,8749,-4912,832,2276,-3240,1401,2399,2940,0.57787,0.790148,-0.204005,10936,20338,-7776,1042,2062,1571
2851,2767,2831,3087,2987,0.631775,0.592224,-0.499146,-0.030334,39,94,73,5442,9256,-4594,569,2877,-2957,664,2618,3169,0.594766,0.778587,-0.199816,9994,21526,-7300,904,2162,1686
2850,2783,2842,3071,3005,0.640198,0.587585,-0.494812,-0.003357,6,99,83,5286,9884,-3725,128,3693,-2248,-633,2751,3276,0.62961,0.755664,-0.180231,10448,20816,-4370,160,2282,1922
