flex_1,flex_2,flex_3,flex_4,flex_5,Qw,Qx,Qy,Qz,GYRx,GYRy,GYRz,ACCx,ACCy,ACCz,ACCx_real,ACCy_real,ACCz_real,ACCx_world,ACCy_world,ACCz_world,GRAx,GRAy,GRAz,ACCx_raw,ACCy_raw,ACCz_raw,GYRx_raw,GYRy_raw,GYRz_raw
2855.0,2800.0,2877.0,3131.0,3019.0,1.0,0.0,0.0,0.0,0.0,0.0,0.0,0.0,0.0,0.0,0.0,0.0,0.0,0.0,0.0,0.0,0.0,0.0,0.0,0.0,0.0,0.0,0.0,0.0,0.0
2862.0,2793.0,2883.0,3119.0,3031.0,0.847656,0.324707,-0.132568,0.397949,108.0,-181.0,-88.0,-1205.0,-6831.0,5886.0,-5163.0,-10476.0,-289.0,4614.0,-7796.0,-7374.0,0.483179,0.444969,0.753876,-5712.0,-16750.0,7100.0,2481.0,-4129.0,-2008.0
2864.0,2783.0,2869.0,3119.0,3015.0,0.841309,0.374146,-0.153992,0.358276,173.0,-252.0,-170.0,-2227.0,-6909.0,3459.0,-6545.0,-11162.0,-2049.0,3443.0,-6845.0,-10623.0,0.527204,0.519201,0.672464,-7168.0,-12098.0,-1674.0,3978.0,-5753.0,-3886.0
2863.0,2791.0,2887.0,3120.0,3027.0,0.827209,0.449097,-0.172424,0.290161,237.0,-315.0,-273.0,-2931.0,-5042.0,142.0,-7402.0,-10308.0,-4257.0,934.0,-3231.0,-12954.0,0.545883,0.642932,0.537051,-7192.0,-944.0,-9828.0,5437.0,-7197.0,-6242.0
2863.0,2801.0,2895.0,3142.0,3035.0,0.815247,0.493103,-0.179443,0.244812,247.0,-338.0,-316.0,-2972.0,-2749.0,-1425.0,-7346.0,-8615.0,-5104.0,-767.0,-472.0,-12385.0,0.534016,0.716141,0.449209,-5706.0,9702.0,-11980.0,5675.0,-7722.0,-7216.0
2864.0,2773.0,2897.0,3149.0,3041.0,0.782898,0.578369,-0.185669,0.134216,211.0,-346.0,-392.0,-2648.0,3874.0,-4389.0,-6301.0,-3136.0,-6534.0,-3421.0,5347.0,-7205.0,0.445973,0.855768,0.261959,-4068.0,28874.0,-17632.0,4844.0,-7920.0,-8973.0
2862.0,2803.0,2895.0,3143.0,3039.0,0.740723,0.648254,-0.175842,0.009766,185.0,-302.0,-437.0,-2082.0,9263.0,-7033.0,-4319.0,1423.0,-7832.0,-2454.0,8697.0,-582.0,0.273162,0.956919,0.097611,-2622.0,30504.0,-21590.0,4240.0,-6908.0,-10004.0
2863.0,2797.0,2879.0,3119.0,3030.0,0.714355,0.678223,-0.165405,-0.047424,199.0,-260.0,-418.0,-1635.0,10832.0,-8117.0,-3043.0,2765.0,-8323.0,-793.0,9031.0,1989.0,0.171988,0.984673,0.025208,346.0,29852.0,-23034.0,4563.0,-5943.0,-9563.0
2859.0,2803.0,2895.0,3115.0,3039.0,0.658325,0.727722,-0.150391,-0.11969,200.0,-113.0,-225.0,2114.0,12878.0,-9458.0,1918.0,4733.0,-8602.0,4687.0,6794.0,5649.0,0.02381,0.994156,-0.104479,15776.0,32767.0,-20284.0,4600.0,-2577.0,-5144.0
2855.0,2800.0,2890.0,3123.0,3034.0,0.625977,0.75592,-0.139893,-0.130859,74.0,23.0,-64.0,1243.0,14491.0,-9821.0,1428.0,6438.0,-8329.0,4122.0,5901.0,7812.0,-0.0227,0.982989,-0.182015,-6150.0,32767.0,-21292.0,1699.0,535.0,-1461.0
2863.0,2802.0,2893.0,3147.0,3037.0,0.621338,0.760559,-0.13446,-0.131653,-2.0,21.0,-29.0,28.0,14993.0,-9999.0,299.0,6960.0,-8416.0,3084.0,6212.0,8440.0,-0.033169,0.980533,-0.193136,-6108.0,32767.0,-20206.0,-32.0,494.0,-645.0
2863.0,2806.0,2896.0,3147.0,3031.0,0.627625,0.756348,-0.132507,-0.128235,-68.0,17.0,33.0,-136.0,15251.0,-8707.0,90.0,7195.0,-7238.0,2407.0,5319.0,8370.0,-0.027651,0.983389,-0.179263,1994.0,29148.0,-11592.0,-1550.0,404.0,759.0
2863.0,2807.0,2896.0,3121.0,3035.0,0.634705,0.750916,-0.134338,-0.122803,-77.0,27.0,49.0,465.0,14789.0,-7592.0,578.0,6709.0,-6248.0,2449.0,4482.0,7633.0,-0.013899,0.986213,-0.16399,4780.0,26494.0,-8422.0,-1748.0,631.0,1129.0
2859.0,2800.0,2896.0,3103.0,3035.0,0.651062,0.738586,-0.137939,-0.107178,-78.0,45.0,57.0,1712.0,13351.0,-5522.0,1537.0,5230.0,-4463.0,2615.0,3035.0,5793.0,0.021294,0.991299,-0.129168,7026.0,22170.0,-5474.0,-1776.0,1043.0,1307.0
2863.0,2797.0,2890.0,3115.0,3037.0,0.666992,0.726379,-0.140625,-0.087646,-71.0,60.0,63.0,2996.0,11993.0,-4020.0,2502.0,3853.0,-3243.0,3049.0,1986.0,4286.0,0.060262,0.993629,-0.094842,9758.0,20508.0,-4110.0,-1611.0,1378.0,1446.0
2867.0,2803.0,2877.0,3153.0,3051.0,0.674744,0.720215,-0.142151,-0.075562,-69.0,69.0,75.0,3520.0,11493.0,-3480.0,2840.0,3355.0,-2841.0,3201.0,1664.0,3789.0,0.08299,0.993403,-0.077928,9884.0,20162.0,-3950.0,-1577.0,1584.0,1723.0
2864.0,2799.0,2887.0,3142.0,3037.0,0.691345,0.705566,-0.148438,-0.045776,-82.0,76.0,117.0,3876.0,11130.0,-2641.0,2723.0,3026.0,-2314.0,2773.0,1483.0,3468.0,0.140647,0.98917,-0.039804,7550.0,22268.0,-3194.0,-1872.0,1753.0,2689.0
2859.0,2805.0,2895.0,3153.0,3031.0,0.711609,0.683533,-0.161743,-0.012451,-117.0,60.0,160.0,3415.0,11150.0,-2102.0,1668.0,3147.0,-2209.0,1486.0,1946.0,3400.0,0.213174,0.976844,0.013164,5078.0,22398.0,-2572.0,-2670.0,1376.0,3671.0
2861.0,2795.0,2885.0,3118.0,3027.0,0.723022,0.669128,-0.171448,0.004211,-136.0,48.0,175.0,3105.0,11259.0,-1816.0,1027.0,3344.0,-2189.0,709.0,2240.0,3391.0,0.253557,0.966146,0.045652,4320.0,23370.0,-1848.0,-3105.0,1110.0,4025.0
2862.0,2799.0,2918.0,3121.0,3031.0,0.747375,0.63324,-0.197632,0.035645,-166.0,13.0,212.0,2386.0,10768.0,-1455.0,-403.0,3129.0,-2436.0,-710.0,3030.0,2488.0,0.340553,0.932447,0.11979,3082.0,18762.0,-2530.0,-3801.0,310.0,4861.0
2813.0,2801.0,2895.0,3118.0,3029.0,0.768921,0.589539,-0.237549,0.068665,-183.0,-22.0,256.0,2480.0,9873.0,-807.0,-1175.0,2713.0,-2379.0,-1401.0,3240.0,1390.0,0.446273,0.873995,0.191969,5996.0,16546.0,890.0,-4190.0,-486.0,5881.0
2861.0,2799.0,2895.0,3143.0,3031.0,0.77832,0.564941,-0.260071,0.085754,-186.0,-28.0,264.0,2661.0,9262.0,-513.0,-1449.0,2423.0,-2367.0,-1538.0,3260.0,759.0,0.501729,0.834806,0.226341,6358.0,14648.0,410.0,-4249.0,-622.0,6061.0
2859.0,2795.0,2885.0,3151.0,3027.0,0.792542,0.513428,-0.306946,0.118408,-184.0,-46.0,264.0,2963.0,7402.0,-272.0,-2018.0,1330.0,-2601.0,-1300.0,3154.0,-980.0,0.608123,0.741136,0.284319,6768.0,8352.0,-76.0,-4192.0,-1042.0,6053.0
2861.0,2783.0,2890.0,3149.0,3037.0,0.7995,0.460327,-0.356262,0.147949,-174.0,-69.0,258.0,3432.0,4899.0,56.0,-2350.0,-267.0,-2583.0,-380.0,2246.0,-2659.0,0.705873,0.630645,0.322265,8626.0,1804.0,1194.0,-3977.0,-1558.0,5925.0
2855.0,2781.0,2893.0,3115.0,3026.0,0.800293,0.432983,-0.381775,0.161865,-172.0,-78.0,256.0,3783.0,3527.0,229.0,-2371.0,-1137.0,-2502.0,293.0,1561.0,-3262.0,0.751233,0.569435,0.333443,9888.0,-1272.0,1520.0,-3927.0,-1773.0,5884.0
2863.0,2766.0,2880.0,3127.0,3027.0,0.797852,0.376648,-0.432007,0.186768,-173.0,-81.0,230.0,4657.0,773.0,201.0,-2142.0,-2828.0,-2608.0,2001.0,218.0,-3915.0,0.830046,0.439649,0.342956,12308.0,-6274.0,-782.0,-3959.0,-1843.0,5282.0
2857.0,2751.0,2890.0,3127.0,3038.0,0.794495,0.323608,-0.474487,0.197083,-185.0,-73.0,130.0,5561.0,-1397.0,-656.0,-1660.0,-4077.0,-3442.0,3901.0,-502.0,-3968.0,0.88151,0.327184,0.340203,13908.0,-9248.0,-4750.0,-4224.0,-1658.0,2985.0
2863.0,2749.0,2893.0,3135.0,3035.0,0.794067,0.301453,-0.491394,0.192566,-185.0,-69.0,57.0,6041.0,-2548.0,-1244.0,-1303.0,-4919.0,-3990.0,5035.0,-1007.0,-3929.0,0.896499,0.289496,0.335283,14810.0,-12178.0,-5740.0,-4217.0,-1560.0,1313.0
2859.0,2749.0,2896.0,3135.0,3023.0,0.795593,0.274292,-0.513855,0.166321,-123.0,-53.0,-95.0,6293.0,-5076.0,-2143.0,-1152.0,-7251.0,-4775.0,6951.0,-2838.0,-4506.0,0.90888,0.26552,0.321348,12856.0,-17338.0,-5502.0,-2800.0,-1199.0,-2174.0
2861.0,2759.0,2891.0,3135.0,3023.0,0.797546,0.285034,-0.51593,0.128357,8.0,-27.0,-230.0,6201.0,-6329.0,-1816.0,-1140.0,-8968.0,-4315.0,7213.0,-4579.0,-5227.0,0.896129,0.32221,0.305127,11034.0,-13534.0,-1686.0,188.0,-617.0,-5258.0
2855.0,2737.0,2896.0,3127.0,3035.0,0.797729,0.304382,-0.509583,0.10614,55.0,-21.0,-283.0,5731.0,-5810.0,-1418.0,-1458.0,-8902.0,-3837.0,6472.0,-4567.0,-5772.0,0.877632,0.377455,0.295315,8374.0,-7168.0,-274.0,1267.0,-468.0,-6468.0
2851.0,2747.0,2901.0,3131.0,3039.0,0.794861,0.359741,-0.48584,0.051453,93.0,-15.0,-362.0,5207.0,-3037.0,-100.0,-1423.0,-7312.0,-2303.0,4103.0,-3566.0,-5587.0,0.809369,0.521893,0.268997,10032.0,3978.0,4554.0,2135.0,-334.0,-8290.0
2852.0,2751.0,2885.0,3133.0,3038.0,0.788818,0.42218,-0.446472,-0.011658,101.0,26.0,-404.0,5531.0,-143.0,1278.0,-158.0,-5684.0,-727.0,2462.0,-3116.0,-4132.0,0.694528,0.676457,0.244797,11260.0,6816.0,5646.0,2333.0,612.0,-9238.0
2849.0,2763.0,2890.0,3133.0,3026.0,0.784424,0.453735,-0.420715,-0.04187,112.0,52.0,-404.0,4998.0,1090.0,1548.0,-97.0,-5030.0,-370.0,1785.0,-2647.0,-3904.0,0.622042,0.747072,0.234197,5668.0,9972.0,4334.0,2587.0,1197.0,-9249.0
2851.0,2757.0,2895.0,3135.0,3029.0,0.770325,0.515503,-0.362366,-0.097046,121.0,73.0,-365.0,2800.0,3896.0,1562.0,-953.0,-3186.0,-123.0,110.0,-844.0,-3216.0,0.458224,0.864542,0.205766,-1338.0,15196.0,1992.0,2789.0,1690.0,-8351.0
2857.0,2751.0,2899.0,3121.0,3031.0,0.749573,0.566956,-0.315063,-0.131897,132.0,55.0,-210.0,521.0,5923.0,289.0,-2123.0,-1720.0,-1009.0,-725.0,1397.0,-2450.0,0.322767,0.933061,0.158553,-6770.0,18930.0,-4214.0,3045.0,1281.0,-4810.0
2854.0,2754.0,2895.0,3135.0,3021.0,0.738281,0.586609,-0.302429,-0.138794,123.0,31.0,-113.0,-1185.0,7800.0,-393.0,-3509.0,16.0,-1447.0,-1852.0,3100.0,-1166.0,0.28372,0.950115,0.12875,-13388.0,28380.0,-4474.0,2831.0,718.0,-2569.0
2855.0,2759.0,2894.0,3135.0,3023.0,0.722839,0.606262,-0.296814,-0.147583,23.0,-42.0,10.0,-4334.0,11749.0,-958.0,-6383.0,3851.0,-1684.0,-4520.0,5839.0,1966.0,0.25015,0.96407,0.088625,-14920.0,32767.0,-2496.0,527.0,-943.0,249.0
2851.0,2755.0,2898.0,3131.0,3039.0,0.725952,0.594421,-0.306763,-0.159546,-103.0,-67.0,54.0,-4025.0,13581.0,-1179.0,-6119.0,5709.0,-2039.0,-4119.0,6592.0,3707.0,0.255715,0.960928,0.105021,-3302.0,28562.0,-3358.0,-2356.0,-1515.0,1256.0
2859.0,2746.0,2887.0,3153.0,3025.0,0.732056,0.582642,-0.312744,-0.163635,-114.0,-49.0,60.0,-2928.0,12871.0,-1336.0,-5116.0,5044.0,-2363.0,-2938.0,6213.0,3155.0,0.267211,0.955404,0.125402,1012.0,20058.0,-3686.0,-2608.0,-1110.0,1378.0
2847.0,2751.0,2884.0,3123.0,3039.0,0.742432,0.565002,-0.320984,-0.162659,-56.0,1.0,51.0,-710.0,9962.0,-1734.0,-3108.0,2233.0,-3007.0,-587.0,4775.0,729.0,0.292812,0.943373,0.155404,5974.0,10982.0,-3148.0,-1267.0,41.0,1174.0
2847.0,2742.0,2891.0,3151.0,3026.0,0.747437,0.561707,-0.322021,-0.148621,6.0,57.0,44.0,1481.0,8248.0,-1581.0,-1094.0,585.0,-2904.0,982.0,2989.0,-265.0,0.314419,0.935398,0.161537,8732.0,13314.0,-1980.0,143.0,1307.0,1030.0
2864.0,2755.0,2895.0,3135.0,3027.0,0.749451,0.563049,-0.319641,-0.137939,19.0,80.0,46.0,2287.0,7914.0,-1389.0,-365.0,277.0,-2712.0,1401.0,2347.0,-297.0,0.323777,0.932138,0.161509,9072.0,14120.0,-1640.0,441.0,1839.0,1067.0
2861.0,2759.0,2899.0,3121.0,3019.0,0.754639,0.56665,-0.311768,-0.110352,23.0,109.0,67.0,3193.0,7499.0,-1183.0,362.0,-70.0,-2521.0,1797.0,1771.0,-351.0,0.345482,0.924041,0.163365,7868.0,14368.0,-2174.0,543.0,2514.0,1552.0
2859.0,2736.0,2911.0,3147.0,3027.0,0.757629,0.567932,-0.307556,-0.093872,25.0,116.0,80.0,3286.0,7521.0,-1061.0,341.0,-1.0,-2418.0,1655.0,1773.0,-278.0,0.359401,0.918306,0.165677,6852.0,15478.0,-1246.0,577.0,2672.0,1855.0
2869.0,2743.0,2875.0,3151.0,3043.0,0.764343,0.567627,-0.300232,-0.058655,7.0,111.0,106.0,3042.0,8131.0,-878.0,-172.0,734.0,-2314.0,891.0,2256.0,189.0,0.392372,0.902944,0.175321,5578.0,18472.0,-724.0,175.0,2563.0,2437.0
2850.0,2753.0,2891.0,3109.0,3029.0,0.768494,0.564819,-0.297791,-0.040588,-3.0,110.0,116.0,3095.0,8337.0,-551.0,-278.0,1027.0,-2062.0,529.0,2219.0,421.0,0.41185,0.892294,0.18453,6468.0,16920.0,1236.0,-50.0,2532.0,2673.0
2854.0,2769.0,2902.0,3125.0,3031.0,0.77832,0.554016,-0.295227,-0.002258,-30.0,108.0,140.0,3402.0,8820.0,-441.0,-342.0,1744.0,-2175.0,158.0,2659.0,889.0,0.45706,0.863737,0.211695,8630.0,18262.0,-184.0,-673.0,2479.0,3216.0
2867.0,2769.0,2895.0,3123.0,3005.0,0.789551,0.536804,-0.294495,0.04071,-37.0,124.0,167.0,4313.0,8803.0,-63.0,145.0,2055.0,-2112.0,227.0,2668.0,1238.0,0.508744,0.82369,0.250162,12164.0,17862.0,1476.0,-843.0,2862.0,3839.0
2859.0,2759.0,2895.0,3155.0,3029.0,0.795105,0.526611,-0.293579,0.065674,-36.0,141.0,181.0,4940.0,8843.0,173.0,548.0,2298.0,-2063.0,318.0,2698.0,1566.0,0.536022,0.798862,0.272997,13652.0,17908.0,1528.0,-818.0,3252.0,4158.0
2863.0,2769.0,2879.0,3142.0,3071.0,0.804626,0.506287,-0.285522,0.121094,-20.0,186.0,179.0,5742.0,8764.0,26.0,973.0,2656.0,-2630.0,386.0,3449.0,1693.0,0.582094,0.745593,0.324238,13396.0,16412.0,-1122.0,-439.0,4275.0,4115.0
2859.0,2783.0,2892.0,3123.0,3037.0,0.808289,0.497314,-0.2771,0.149963,-9.0,208.0,168.0,5970.0,8347.0,-289.0,1078.0,2441.0,-3170.0,546.0,3899.0,1288.0,0.597111,0.720838,0.351714,13114.0,13680.0,-2624.0,-206.0,4765.0,3870.0
2862.0,2775.0,2878.0,3127.0,3051.0,0.813171,0.480896,-0.253235,0.207947,10.0,231.0,151.0,5887.0,7398.0,-872.0,874.0,1853.0,-4223.0,502.0,4665.0,61.0,0.611848,0.676783,0.409101,11042.0,12612.0,-2708.0,230.0,5297.0,3459.0
2832.0,2768.0,2890.0,3152.0,3053.0,0.814331,0.473206,-0.239197,0.235901,12.0,230.0,144.0,5718.0,7190.0,-840.0,697.0,1800.0,-4425.0,176.0,4813.0,-325.0,0.61283,0.657839,0.437646,10312.0,13568.0,-1140.0,297.0,5281.0,3299.0
2869.0,2775.0,2855.0,3167.0,3039.0,0.815735,0.45575,-0.211182,0.286682,-6.0,210.0,130.0,5366.0,7048.0,-207.0,402.0,1948.0,-4264.0,-631.0,4615.0,-655.0,0.605847,0.622458,0.495305,10038.0,13418.0,2304.0,-126.0,4819.0,2982.0
2847.0,2799.0,2875.0,3111.0,3051.0,0.816589,0.444824,-0.198669,0.309448,-22.0,198.0,123.0,5170.0,6903.0,274.0,256.0,1958.0,-4028.0,-950.0,4313.0,-780.0,0.599763,0.603522,0.525238,8952.0,12828.0,3354.0,-484.0,4558.0,2838.0
2871.0,2821.0,2876.0,3117.0,3039.0,0.819702,0.420776,-0.176331,0.346252,-41.0,165.0,85.0,4581.0,5940.0,1384.0,-174.0,1289.0,-3397.0,-1052.0,3208.0,-1351.0,0.580467,0.567713,0.583657,7370.0,7634.0,6508.0,-922.0,3801.0,1947.0
2853.0,2787.0,2896.0,3133.0,3029.0,0.82489,0.396851,-0.157471,0.3703,-49.0,127.0,44.0,4031.0,4698.0,2634.0,-504.0,289.0,-2570.0,-641.0,1856.0,-1756.0,0.5537,0.538093,0.635279,6928.0,6168.0,9184.0,-1122.0,2922.0,1012.0
2863.0,2799.0,2855.0,3163.0,3019.0,0.828064,0.384888,-0.15033,0.378784,-59.0,110.0,38.0,3931.0,4235.0,3301.0,-497.0,-53.0,-2092.0,-381.0,1295.0,-1673.0,0.540544,0.523538,0.65843,7470.0,5910.0,10590.0,-1346.0,2539.0,889.0
2865.0,2803.0,2925.0,3153.0,3031.0,0.834412,0.358582,-0.141663,0.393738,-81.0,88.0,43.0,3780.0,3441.0,4389.0,-469.0,-547.0,-1366.0,47.0,472.0,-1469.0,0.518784,0.486853,0.702623,6858.0,3830.0,11414.0,-1846.0,2020.0,986.0
2865.0,2801.0,2896.0,3127.0,3042.0,0.837463,0.344604,-0.139526,0.400391,-85.0,77.0,42.0,3619.0,2766.0,4703.0,-556.0,-1047.0,-1223.0,395.0,60.0,-1655.0,0.509649,0.465457,0.723438,6202.0,1176.0,11064.0,-1927.0,1776.0,964.0
2871.0,2807.0,2882.0,3127.0,3005.0,0.842285,0.318359,-0.138367,0.412292,-71.0,58.0,39.0,3399.0,1111.0,5259.0,-660.0,-2347.0,-958.0,1398.0,-850.0,-2045.0,0.495603,0.422204,0.758931,6420.0,-2782.0,12366.0,-1605.0,1329.0,913.0
2865.0,2800.0,2893.0,3131.0,3053.0,-1.21228,1.603149,1.976318,0.906372,411.0,-4260.0,5171.0,6146.0,20072.0,-6855.0,8622.0,22565.0,27426.0,3859.0,23167.0,10267.0,7.697803,-0.304373,-4.184789,984.0,-5052.0,17146.0,-849.0,1170.0,1010.0
2851.0,2783.0,2921.0,3151.0,3025.0,0.843994,0.288391,-0.135437,0.431396,-18.0,45.0,45.0,2188.0,-1155.0,7207.0,-1723.0,-4185.0,678.0,2369.0,-3460.0,-1830.0,0.477438,0.369947,0.796916,-752.0,-6786.0,18778.0,-403.0,1048.0,1048.0
2866.0,2797.0,2899.0,3127.0,3033.0,0.841797,0.279053,-0.131104,0.442993,28.0,-11.0,36.0,-368.0,-3242.0,7948.0,-4201.0,-6139.0,1314.0,2655.0,-6368.0,-3072.0,0.467962,0.353656,0.809806,-6794.0,-10730.0,19412.0,655.0,-247.0,835.0
2865.0,2807.0,2883.0,3135.0,3019.0,0.83606,0.283264,-0.137634,0.449158,32.0,-61.0,27.0,-144.0,-2676.0,8507.0,-4113.0,-5543.0,1940.0,2345.0,-6343.0,-2378.0,0.484601,0.350012,0.801556,2904.0,-2232.0,17032.0,755.0,-1381.0,632.0
2862.0,2790.0,2879.0,3135.0,3055.0,0.833679,0.286987,-0.142944,0.449524,26.0,-63.0,9.0,364.0,-2543.0,8202.0,-3702.0,-5410.0,1695.0,2477.0,-5831.0,-2384.0,0.496355,0.349997,0.794298,3532.0,-5252.0,13936.0,601.0,-1440.0,219.0
2851.0,2789.0,2887.0,3119.0,3043.0,0.830811,0.298096,-0.153564,0.444153,53.0,-84.0,-32.0,552.0,-3715.0,6904.0,-3707.0,-6655.0,554.0,3456.0,-5592.0,-3886.0,0.519966,0.35891,0.775075,252.0,-11634.0,9546.0,1232.0,-1911.0,-716.0
2863.0,2789.0,2862.0,3134.0,3043.0,0.829041,0.308411,-0.159241,0.438354,77.0,-110.0,-49.0,258.0,-4436.0,6228.0,-4119.0,-7481.0,10.0,3845.0,-5778.0,-4974.0,0.53442,0.371762,0.758988,-1462.0,-13224.0,8384.0,1775.0,-2501.0,-1104.0
2864.0,2803.0,2879.0,3135.0,3025.0,0.822754,0.343811,-0.173523,0.41803,136.0,-186.0,-95.0,-1011.0,-5594.0,4374.0,-5704.0,-9040.0,-1387.0,3927.0,-6000.0,-8046.0,0.57298,0.420668,0.703357,-6658.0,-13888.0,2064.0,3129.0,-4254.0,-2156.0
2871.0,2800.0,2902.0,3127.0,3023.0,0.809509,0.405884,-0.19397,0.377197,205.0,-291.0,-169.0,-2322.0,-5505.0,1630.0,-7402.0,-9689.0,-3246.0,2729.0,-4485.0,-11472.0,0.620237,0.510804,0.595217,-7454.0,-8524.0,-5374.0,4697.0,-6655.0,-3853.0
2863.0,2800.0,2885.0,3135.0,3023.0,0.798645,0.447327,-0.205383,0.346191,236.0,-336.0,-214.0,-2436.0,-4764.0,289.0,-7660.0,-9452.0,-3933.0,1858.0,-2862.0,-12321.0,0.637778,0.572307,0.515399,-4760.0,-4380.0,-6990.0,5409.0,-7674.0,-4885.0
2859.0,2802.0,2891.0,3147.0,3035.0,0.765869,0.542053,-0.222595,0.264648,283.0,-371.0,-297.0,-1492.0,-1746.0,-1561.0,-6635.0,-7582.0,-4126.0,78.0,759.0,-10860.0,0.627865,0.712465,0.313224,1338.0,7704.0,-7430.0,6500.0,-8477.0,-6799.0
2859.0,2800.0,2899.0,3152.0,3029.0,0.71936,0.637329,-0.220764,0.165833,302.0,-333.0,-367.0,-244.0,2698.0,-2811.0,-4577.0,-4213.0,-3548.0,-1311.0,3150.0,-6295.0,0.528998,0.843719,0.090055,1950.0,19456.0,-9548.0,6935.0,-7608.0,-8397.0
2859.0,2799.0,2903.0,3127.0,3051.0,-1.21228,-1.821899,-1.949707,1.173462,4462.0,6369.0,29464.0,-3279.0,19624.0,-22582.0,4937.0,20922.0,12430.0,15242.0,-13197.0,30182.0,-9.003042,-0.158508,-4.274039,-4088.0,31238.0,-17984.0,7103.0,-5991.0,-9026.0
2864.0,2797.0,2865.0,3135.0,3029.0,0.62738,0.758423,-0.175537,0.016052,291.0,-239.0,-377.0,-491.0,9940.0,-6443.0,-2494.0,2190.0,-4705.0,-2044.0,4787.0,2459.0,0.244606,0.946004,-0.212155,1036.0,32767.0,-21880.0,6670.0,-5452.0,-8613.0
2869.0,2801.0,2895.0,3149.0,3047.0,0.566223,0.809509,-0.1474,-0.047119,231.0,-105.0,-221.0,2257.0,12398.0,-8663.0,1514.0,4774.0,-5761.0,1957.0,3254.0,6620.0,0.090636,0.930616,-0.354203,10916.0,31668.0,-23308.0,5298.0,-2390.0,-5048.0
2867.0,2795.0,2899.0,3147.0,3037.0,0.526917,0.838013,-0.127258,-0.061951,106.0,9.0,-89.0,332.0,14231.0,-10896.0,83.0,6867.0,-7316.0,804.0,3491.0,9372.0,0.030278,0.898893,-0.436981,-9636.0,32767.0,-28476.0,2445.0,225.0,-2018.0
2862.0,2800.0,2893.0,3117.0,3035.0,0.519653,0.843384,-0.119019,-0.066345,22.0,8.0,-59.0,-1013.0,14802.0,-11671.0,-1109.0,7492.0,-7976.0,-175.0,3931.0,10269.0,0.011788,0.892327,-0.45102,-8904.0,32767.0,-27084.0,520.0,201.0,-1346.0
2862.0,2823.0,2886.0,3133.0,3023.0,0.526184,0.839905,-0.111633,-0.071533,-79.0,7.0,-5.0,-1166.0,15005.0,-11300.0,-1144.0,7633.0,-7728.0,-123.0,3792.0,10240.0,-0.002683,0.89986,-0.435915,-90.0,28386.0,-18788.0,-1802.0,164.0,-101.0
2861.0,2791.0,2896.0,3143.0,3058.0,0.545654,0.827942,-0.110291,-0.067261,-103.0,30.0,20.0,23.0,13699.0,-9240.0,-50.0,6175.0,-6000.0,667.0,2997.0,8042.0,0.008985,0.918377,-0.395389,4108.0,22372.0,-11520.0,-2356.0,708.0,468.0
2875.0,2789.0,2926.0,3167.0,2996.0,0.556519,0.821167,-0.110046,-0.062012,-102.0,42.0,28.0,642.0,12858.0,-8092.0,472.0,5258.0,-5037.0,999.0,2543.0,6765.0,0.020642,0.927638,-0.372867,4644.0,20760.0,-9352.0,-2328.0,976.0,644.0
2855.0,2807.0,2905.0,3135.0,3023.0,0.578369,0.806702,-0.111206,-0.047729,-103.0,50.0,51.0,1454.0,11523.0,-6257.0,1031.0,3791.0,-3583.0,1266.0,1902.0,4800.0,0.051629,0.943758,-0.326345,5356.0,19334.0,-7532.0,-2357.0,1146.0,1189.0
2857.0,2807.0,2902.0,3119.0,3025.0,0.60083,0.789795,-0.120056,-0.026794,-106.0,54.0,103.0,2208.0,10570.0,-4889.0,1372.0,2742.0,-2624.0,1388.0,1486.0,3485.0,0.101942,0.955499,-0.276475,5826.0,19170.0,-6064.0,-2422.0,1243.0,2362.0
2871.0,2799.0,2887.0,3151.0,3027.0,0.612427,0.779907,-0.128052,-0.01355,-111.0,53.0,129.0,2366.0,10383.0,-4302.0,1254.0,2528.0,-2258.0,1151.0,1329.0,3157.0,0.135709,0.958742,-0.249402,5632.0,19776.0,-5074.0,-2535.0,1222.0,2973.0
2865.0,2804.0,2902.0,3133.0,3047.0,0.636536,0.756042,-0.151123,0.016968,-126.0,46.0,178.0,2270.0,10276.0,-3260.0,483.0,2433.0,-1711.0,137.0,1205.0,2757.0,0.218047,0.957368,-0.188973,3508.0,20298.0,-3984.0,-2864.0,1064.0,4086.0
2863.0,2814.0,2895.0,3143.0,3023.0,0.660278,0.726501,-0.18396,0.048767,-140.0,17.0,224.0,1642.0,10352.0,-2500.0,-928.0,2639.0,-1489.0,-1479.0,1484.0,2376.0,0.313788,0.941444,-0.1233,806.0,21616.0,-2674.0,-3191.0,396.0,5147.0
2850.0,2801.0,2874.0,3139.0,3031.0,0.671814,0.708801,-0.205139,0.06366,-155.0,-7.0,246.0,1264.0,10580.0,-2058.0,-1733.0,2992.0,-1328.0,-2452.0,1616.0,2255.0,0.365875,0.926247,-0.089095,426.0,22636.0,-1368.0,-3535.0,-147.0,5653.0
2875.0,2768.0,2862.0,3125.0,3019.0,0.695862,0.664673,-0.256653,0.089417,-202.0,-50.0,276.0,1163.0,10681.0,-1230.0,-2736.0,3479.0,-1103.0,-3688.0,2012.0,1773.0,0.476055,0.879143,-0.015442,3128.0,20528.0,-136.0,-4609.0,-1139.0,6338.0
2864.0,2783.0,2885.0,3090.0,3035.0,0.71991,0.607483,-0.316895,0.110596,-244.0,-76.0,292.0,1646.0,9519.0,-769.0,-3192.0,2927.0,-1269.0,-3657.0,2614.0,392.0,0.590641,0.804571,0.061044,4710.0,13998.0,-690.0,-5579.0,-1738.0,6700.0
2863.0,2789.0,2887.0,3135.0,3031.0,0.730408,0.57489,-0.348694,0.119812,-256.0,-86.0,296.0,1912.0,8440.0,-753.0,-3389.0,2244.0,-1537.0,-3188.0,2880.0,-643.0,0.647135,0.756253,0.095764,5400.0,9908.0,-1636.0,-5862.0,-1960.0,6787.0
2863.0,2785.0,2870.0,3143.0,3039.0,0.744995,0.504944,-0.413818,0.136597,-251.0,-102.0,294.0,2736.0,5306.0,-1000.0,-3445.0,68.0,-2208.0,-1121.0,2680.0,-2881.0,0.754533,0.639309,0.147462,8834.0,54.0,-2904.0,-5746.0,-2314.0,6748.0
2851.0,2767.0,2881.0,3123.0,3023.0,0.748535,0.435608,-0.475342,0.154785,-207.0,-91.0,267.0,4657.0,1845.0,-1141.0,-2277.0,-2291.0,-2521.0,1794.0,1118.0,-3509.0,0.846471,0.504984,0.168559,15740.0,-5956.0,-2410.0,-4733.0,-2069.0,6123.0
2865.0,2755.0,2867.0,3135.0,3045.0,0.74762,0.404114,-0.500732,0.164124,-180.0,-72.0,237.0,5601.0,419.0,-1224.0,-1619.0,-3184.0,-2631.0,2971.0,307.0,-3279.0,0.881364,0.439883,0.171831,16682.0,-7382.0,-3076.0,-4101.0,-1649.0,5450.0
2855.0,2746.0,2879.0,3115.0,3037.0,0.74469,0.352173,-0.538208,0.178162,-137.0,-38.0,150.0,7014.0,-1606.0,-1647.0,-580.0,-4331.0,-3061.0,4653.0,-723.0,-2507.0,0.927084,0.332743,0.172611,17224.0,-7696.0,-4708.0,-3138.0,-859.0,3445.0
2849.0,2747.0,2899.0,3125.0,3025.0,0.744934,0.320129,-0.558167,0.175903,-106.0,-23.0,16.0,6954.0,-2741.0,-2255.0,-781.0,-5039.0,-3662.0,5508.0,-1153.0,-2780.0,0.944218,0.280584,0.171836,11732.0,-9752.0,-6826.0,-2423.0,-515.0,374.0
2862.0,2751.0,2897.0,3133.0,3039.0,0.745483,0.314392,-0.563354,0.167236,-76.0,-30.0,-58.0,6422.0,-3492.0,-2582.0,-1320.0,-5788.0,-3954.0,5990.0,-1582.0,-3532.0,0.945098,0.280321,0.167503,9372.0,-11478.0,-6976.0,-1737.0,-676.0,-1313.0
2855.0,2743.0,2893.0,3125.0,3039.0,0.744568,0.329285,-0.564331,0.136719,6.0,-46.0,-208.0,5567.0,-4133.0,-2395.0,-2054.0,-6885.0,-3592.0,5986.0,-2473.0,-4749.0,0.930404,0.33604,0.146175,9614.0,-8308.0,-2948.0,158.0,-1034.0,-4742.0
2863.0,2751.0,2901.0,3135.0,3021.0,0.742126,0.376038,-0.547302,0.090942,70.0,-28.0,-333.0,5667.0,-3063.0,-1235.0,-1547.0,-6819.0,-2202.0,4770.0,-2901.0,-4749.0,0.88073,0.458589,0.118078,12090.0,-268.0,1730.0,1605.0,-630.0,-7608.0
2851.0,2723.0,2880.0,3121.0,3015.0,0.740845,0.406433,-0.531006,0.062927,78.0,-13.0,-377.0,5846.0,-1978.0,-532.0,-1018.0,-6363.0,-1397.0,3931.0,-2931.0,-4407.0,0.837937,0.535378,0.105656,12928.0,2256.0,3150.0,1794.0,-281.0,-8618.0
2855.0,2739.0,2899.0,3115.0,3035.0,0.737061,0.470032,-0.485535,0.005432,98.0,32.0,-405.0,6298.0,-786.0,608.0,392.0,-6418.0,-101.0,3259.0,-3686.0,-4139.0,0.720843,0.687609,0.086614,12750.0,698.0,3730.0,2251.0,745.0,-9270.0
2854.0,2742.0,2878.0,3119.0,3027.0,0.728027,0.532288,-0.429993,-0.041687,125.0,65.0,-365.0,4993.0,959.0,959.0,227.0,-5683.0,438.0,2105.0,-2884.0,-4448.0,0.581714,0.81089,0.063538,4216.0,9142.0,2364.0,2880.0,1501.0,-8359.0
2851.0,2751.0,2897.0,3135.0,3025.0,0.721008,0.561401,-0.40155,-0.060974,129.0,69.0,-329.0,3879.0,2444.0,945.0,-303.0,-4588.0,558.0,1100.0,-1922.0,-4067.0,0.51058,0.858518,0.047157,810.0,14308.0,1520.0,2955.0,1585.0,-7515.0
2855.0,2758.0,2884.0,3134.0,3031.0,0.705139,0.607788,-0.354248,-0.088562,102.0,53.0,-199.0,1326.0,6004.0,282.0,-1884.0,-1531.0,198.0,-1033.0,513.0,-2144.0,0.391934,0.919896,0.010166,-5756.0,23276.0,-2388.0,2339.0,1235.0,-4547.0
2854.0,2743.0,2887.0,3123.0,3029.0,0.698242,0.622986,-0.338928,-0.096802,74.0,35.0,-125.0,-259.0,7950.0,-268.0,-3148.0,285.0,-218.0,-2317.0,1988.0,-842.0,0.352696,0.935608,-0.006071,-10338.0,27638.0,-3870.0,1707.0,812.0,-2848.0
2854.0,2751.0,2887.0,3123.0,3023.0,0.68988,0.637939,-0.324219,-0.109009,9.0,-7.0,-22.0,-3077.0,11507.0,-1182.0,-5602.0,3717.0,-983.0,-4692.0,4558.0,1831.0,0.308262,0.950889,-0.024267,-12704.0,32767.0,-4560.0,207.0,-144.0,-494.0
2865.0,2751.0,2891.0,3115.0,3015.0,0.692383,0.634277,-0.322754,-0.118652,-61.0,-17.0,29.0,-3511.0,13229.0,-1565.0,-5939.0,5406.0,-1458.0,-4988.0,5480.0,3420.0,0.296422,0.954916,-0.013005,-5502.0,27840.0,-3928.0,-1387.0,-388.0,675.0
2864.0,2759.0,2895.0,3139.0,3031.0,0.69696,0.628235,-0.324036,-0.120544,-70.0,-5.0,43.0,-3045.0,12882.0,-1736.0,-5504.0,5068.0,-1740.0,-4350.0,5473.0,3180.0,0.30022,0.953831,0.000607,-3048.0,22644.0,-4746.0,-1602.0,-110.0,994.0
2865.0,2757.0,2895.0,3141.0,3037.0,0.706116,0.617065,-0.327209,-0.116211,-42.0,23.0,57.0,-1430.0,10870.0,-2000.0,-4040.0,3108.0,-2198.0,-2479.0,4699.0,1604.0,0.318676,0.94749,0.024269,3334.0,14886.0,-4032.0,-951.0,546.0,1308.0
2855.0,2751.0,2895.0,3135.0,3029.0,0.713074,0.610596,-0.329834,-0.099182,-9.0,57.0,74.0,595.0,9106.0,-1792.0,-2266.0,1436.0,-2092.0,-866.0,3254.0,476.0,0.349272,0.936227,0.036694,7068.0,13952.0,-2142.0,-192.0,1307.0,1714.0
2855.0,2747.0,2883.0,3127.0,3026.0,0.716431,0.608521,-0.330078,-0.086426,3.0,76.0,82.0,1418.0,8577.0,-1546.0,-1594.0,966.0,-1885.0,-401.0,2609.0,232.0,0.367772,0.92898,0.041494,7436.0,14300.0,-1676.0,90.0,1744.0,1887.0
2858.0,2757.0,2894.0,3133.0,3031.0,0.723328,0.60498,-0.328308,-0.054749,13.0,103.0,100.0,2530.0,7954.0,-1144.0,-818.0,489.0,-1573.0,59.0,1837.0,28.0,0.408705,0.911147,0.052413,8062.0,14308.0,-972.0,307.0,2365.0,2295.0
2855.0,2754.0,2882.0,3122.0,3027.0,0.72699,0.602722,-0.326904,-0.036133,14.0,112.0,111.0,2856.0,7748.0,-1008.0,-680.0,375.0,-1496.0,115.0,1680.0,-45.0,0.431756,0.89997,0.059679,7456.0,14366.0,-1146.0,338.0,2587.0,2546.0
2863.0,2763.0,2895.0,3135.0,3031.0,0.734131,0.596863,-0.323608,0.004517,14.0,123.0,129.0,3104.0,7651.0,-733.0,-832.0,495.0,-1371.0,-208.0,1663.0,-74.0,0.480533,0.873428,0.078001,6818.0,14782.0,-836.0,331.0,2826.0,2967.0
2859.0,2770.0,2893.0,3150.0,3037.0,0.741028,0.587463,-0.321716,0.04718,4.0,122.0,139.0,3687.0,7889.0,-502.0,-673.0,1005.0,-1343.0,-414.0,1724.0,348.0,0.532235,0.840296,0.102734,9530.0,16296.0,264.0,93.0,2809.0,3197.0
2859.0,2769.0,2893.0,3109.0,3025.0,0.744751,0.581177,-0.320557,0.069031,-4.0,127.0,144.0,4104.0,7989.0,-323.0,-464.0,1260.0,-1296.0,-448.0,1701.0,622.0,0.557708,0.821407,0.118896,10820.0,16718.0,436.0,-75.0,2910.0,3311.0
2847.0,2775.0,2885.0,3103.0,3023.0,0.753601,0.564331,-0.317017,0.114319,-23.0,145.0,152.0,5032.0,8381.0,130.0,60.0,2006.0,-1197.0,-599.0,1769.0,1403.0,0.606835,0.778079,0.162014,12246.0,18196.0,1286.0,-507.0,3327.0,3490.0
2855.0,2786.0,2887.0,3147.0,3025.0,0.75885,0.554138,-0.313354,0.137329,-31.0,157.0,149.0,5248.0,8586.0,184.0,105.0,2401.0,-1367.0,-811.0,2088.0,1619.0,0.627777,0.75495,0.189453,11638.0,18140.0,420.0,-691.0,3618.0,3415.0
2861.0,2789.0,2887.0,3143.0,3035.0,0.770142,0.532104,-0.300964,0.181824,-42.0,179.0,129.0,5630.0,8530.0,57.0,247.0,2712.0,-2011.0,-899.0,2855.0,1580.0,0.657069,0.710147,0.252463,12952.0,16164.0,-324.0,-943.0,4112.0,2963.0
2859.0,2789.0,2885.0,3119.0,3027.0,0.776306,0.519958,-0.29248,0.203491,-47.0,191.0,120.0,5894.0,8170.0,-28.0,440.0,2531.0,-2388.0,-662.0,3170.0,1346.0,0.665723,0.68826,0.288158,13124.0,13898.0,-520.0,-1075.0,4376.0,2753.0
2866.0,2783.0,2887.0,3119.0,3029.0,0.788635,0.493652,-0.27179,0.245789,-55.0,204.0,108.0,5831.0,7126.0,-350.0,331.0,1842.0,-3338.0,-345.0,3806.0,192.0,0.671354,0.645018,0.364795,10286.0,10634.0,-1736.0,-1257.0,4684.0,2479.0
2859.0,2779.0,2887.0,3121.0,3027.0,-0.003906,0.012024,0.00647,0.347412,6566.0,-431.0,-19862.0,23294.0,29718.0,-11159.0,23225.0,29681.0,-12146.0,-2816.0,-3700.0,-1138.0,0.008405,0.004401,0.120524,11976.0,8820.0,1148.0,-1508.0,4384.0,2505.0
2864.0,2800.0,2887.0,3147.0,3030.0,0.804443,0.448669,-0.24231,0.304504,-60.0,190.0,110.0,5790.0,5445.0,129.0,357.0,740.0,-3801.0,168.0,3706.0,-1162.0,0.663092,0.57429,0.479834,11764.0,7332.0,2550.0,-1371.0,4370.0,2531.0
2863.0,2800.0,2897.0,3143.0,3031.0,0.811035,0.419128,-0.222473,0.34198,-47.0,177.0,99.0,5524.0,4460.0,1001.0,219.0,137.0,-3501.0,304.0,3050.0,-1709.0,0.647534,0.527693,0.549565,9524.0,6256.0,5310.0,-1055.0,4072.0,2268.0
2861.0,2790.0,2879.0,3119.0,3026.0,0.813599,0.405701,-0.212463,0.358154,-40.0,162.0,85.0,5118.0,4037.0,1655.0,-94.0,-124.0,-3100.0,203.0,2428.0,-1922.0,0.636327,0.507966,0.580483,7492.0,5636.0,7400.0,-913.0,3721.0,1955.0
2863.0,2791.0,2893.0,3119.0,3035.0,0.818298,0.381958,-0.195496,0.382385,-43.0,110.0,56.0,3994.0,3502.0,3182.0,-1019.0,-394.0,-1993.0,-282.0,894.0,-2070.0,0.612058,0.475602,0.63172,4954.0,5786.0,11290.0,-964.0,2538.0,1301.0
2861.0,2791.0,2894.0,3119.0,3037.0,0.823425,0.35968,-0.187988,0.396423,-66.0,59.0,43.0,3294.0,3101.0,4708.0,-1578.0,-530.0,-784.0,-533.0,-461.0,-1699.0,0.59476,0.443294,0.670471,5186.0,4992.0,13482.0,-1496.0,1373.0,995.0
2861.0,2795.0,2896.0,3151.0,3031.0,0.826233,0.3479,-0.188232,0.401062,-79.0,42.0,41.0,3208.0,2747.0,5276.0,-1626.0,-725.0,-352.0,-400.0,-925.0,-1508.0,0.590107,0.423908,0.687045,6178.0,3026.0,13764.0,-1803.0,967.0,947.0
2866.0,2791.0,2893.0,3151.0,3027.0,0.831421,0.323303,-0.192261,0.408875,-77.0,37.0,36.0,3464.0,1472.0,6158.0,-1320.0,-1644.0,284.0,525.0,-1681.0,-1192.0,0.58408,0.380381,0.71695,7818.0,-1816.0,14300.0,-1763.0,849.0,826.0
2861.0,2801.0,2895.0,3115.0,3027.0,0.833557,0.31189,-0.193359,0.412903,-65.0,37.0,32.0,3043.0,999.0,6666.0,-1707.0,-1952.0,680.0,537.0,-2337.0,-1196.0,0.579912,0.360278,0.730643,1374.0,960.0,17736.0,-1471.0,859.0,737.0
2863.0,2789.0,2893.0,3120.0,3031.0,0.835999,0.292908,-0.191956,0.422424,-17.0,36.0,41.0,1969.0,-642.0,8047.0,-2687.0,-3325.0,1864.0,1055.0,-4378.0,-1209.0,0.568412,0.327567,0.754694,-3118.0,-5292.0,14282.0,-386.0,836.0,951.0
2855.0,2800.0,2881.0,3134.0,3023.0,1.824463,1.678406,-1.1474,1.412537,-1420.0,-1185.0,10304.0,-13747.0,15293.0,14432.0,-21352.0,-8323.0,4680.0,17042.0,-4719.0,-12454.0,8.928396,2.882889,1.190352,-88.0,-5180.0,18510.0,131.0,-783.0,692.0
2863.0,2799.0,2880.0,3143.0,3031.0,0.831787,0.28595,-0.199097,0.432007,14.0,-57.0,15.0,604.0,-1941.0,8379.0,-4133.0,-4428.0,2176.0,1241.0,-5959.0,-2087.0,0.578277,0.303676,0.757093,1242.0,-6248.0,16298.0,340.0,-1300.0,352.0
2867.0,2802.0,2881.0,3159.0,3031.0,0.826782,0.295288,-0.21228,0.429077,44.0,-99.0,-16.0,725.0,-3025.0,7584.0,-4226.0,-5532.0,1559.0,2177.0,-6043.0,-3101.0,0.604422,0.306109,0.735418,1458.0,-9764.0,12296.0,1010.0,-2253.0,-360.0
2864.0,2789.0,2874.0,3155.0,3056.0,0.820496,0.319153,-0.227661,0.415894,90.0,-151.0,-73.0,51.0,-4313.0,6358.0,-5184.0,-7052.0,685.0,2910.0,-6448.0,-5196.0,0.639057,0.334361,0.692492,-3052.0,-11784.0,8494.0,2068.0,-3440.0,-1669.0
2859.0,2798.0,2895.0,3122.0,3030.0,0.816895,0.33844,-0.235962,0.403015,112.0,-187.0,-111.0,-587.0,-4698.0,5521.0,-5979.0,-7669.0,118.0,2890.0,-6490.0,-6640.0,0.658305,0.362747,0.659518,-5234.0,-11710.0,5694.0,2580.0,-4265.0,-2520.0
2854.0,2791.0,2894.0,3125.0,3029.0,0.806274,0.393494,-0.255615,0.360046,161.0,-270.0,-198.0,-1724.0,-5274.0,3339.0,-7421.0,-8964.0,-1244.0,2641.0,-5660.0,-9895.0,0.695544,0.450461,0.559535,-5516.0,-11816.0,-474.0,3698.0,-6169.0,-4525.0
2863.0,2795.0,2899.0,3135.0,3023.0,0.786316,0.470093,-0.27301,0.293457,221.0,-309.0,-291.0,-1330.0,-5148.0,991.0,-7107.0,-9891.0,-2358.0,2642.0,-3149.0,-11703.0,0.705249,0.579049,0.408888,-264.0,-9076.0,-5152.0,5068.0,-7067.0,-6653.0
2861.0,2795.0,2903.0,3120.0,3024.0,0.752319,0.560608,-0.274048,0.211121,280.0,-288.0,-358.0,-5.0,-3928.0,-1145.0,-5322.0,-9890.0,-2956.0,2651.0,-11.0,-11305.0,0.649055,0.727798,0.221173,4990.0,-2172.0,-7060.0,6428.0,-6586.0,-8194.0
2847.0,2814.0,2895.0,3157.0,3059.0,0.729675,0.60675,-0.265869,0.169312,304.0,-252.0,-372.0,643.0,-2510.0,-1855.0,-4218.0,-9026.0,-2856.0,2284.0,1242.0,-10031.0,0.593456,0.795432,0.12226,4640.0,4580.0,-8024.0,6976.0,-5771.0,-8505.0
2862.0,2803.0,2893.0,3153.0,3039.0,0.674438,0.695801,-0.230225,0.089111,328.0,-182.0,-381.0,-255.0,2666.0,-4058.0,-3814.0,-4686.0,-3449.0,-640.0,4068.0,-5606.0,0.434552,0.897518,-0.074334,-5488.0,23866.0,-17458.0,7531.0,-4165.0,-8708.0
2850.0,2795.0,2907.0,3167.0,3055.0,0.610291,0.769775,-0.185913,0.017761,294.0,-130.0,-310.0,-712.0,8519.0,-6954.0,-2794.0,876.0,-4870.0,-1896.0,5184.0,1345.0,0.254266,0.932969,-0.254348,-858.0,32767.0,-22366.0,6746.0,-2967.0,-7083.0
2854.0,2811.0,2907.0,3151.0,3025.0,0.555664,0.817078,-0.152161,-0.02124,195.0,-42.0,-167.0,-1312.0,12137.0,-9516.0,-2412.0,4645.0,-6390.0,-2041.0,4856.0,6361.0,0.134391,0.914505,-0.381555,-7906.0,32767.0,-27362.0,4474.0,-948.0,-3821.0
2855.0,2800.0,2907.0,3123.0,3047.0,0.539307,0.829468,-0.141052,-0.032959,98.0,-33.0,-109.0,-2235.0,13263.0,-10796.0,-3033.0,5857.0,-7388.0,-2539.0,5142.0,8072.0,0.097464,0.903973,-0.415975,-9506.0,32767.0,-28780.0,2266.0,-735.0,-2490.0
2864.0,2799.0,2899.0,3119.0,3031.0,0.535583,0.83252,-0.132507,-0.049072,-65.0,-21.0,-19.0,-2091.0,14699.0,-11783.0,-2584.0,7287.0,-8330.0,-1842.0,5176.0,9947.0,0.06023,0.904772,-0.421389,-892.0,32767.0,-23838.0,-1468.0,-481.0,-424.0
2863.0,2799.0,2886.0,3115.0,3037.0,0.553467,0.820496,-0.134033,-0.049316,-109.0,20.0,30.0,-355.0,14378.0,-10467.0,-907.0,6829.0,-7334.0,-317.0,4413.0,9036.0,0.067438,0.921454,-0.38242,5122.0,25020.0,-14692.0,-2484.0,470.0,704.0
2845.0,2799.0,2880.0,3127.0,3007.0,0.56427,0.813171,-0.135437,-0.043823,-105.0,42.0,42.0,540.0,13559.0,-9246.0,-128.0,5943.0,-6302.0,274.0,3803.0,7778.0,0.081574,0.929567,-0.35927,6216.0,22000.0,-10988.0,-2391.0,981.0,984.0
2853.0,2785.0,2897.0,3155.0,3024.0,0.585144,0.798584,-0.138428,-0.025696,-92.0,65.0,64.0,1749.0,11944.0,-6872.0,758.0,4229.0,-4300.0,793.0,2626.0,5423.0,0.12096,0.941687,-0.313845,6278.0,19486.0,-7204.0,-2101.0,1505.0,1473.0
2847.0,2823.0,2896.0,3109.0,3003.0,0.595215,0.790894,-0.141174,-0.014709,-92.0,66.0,78.0,2150.0,11360.0,-5931.0,963.0,3613.0,-3547.0,859.0,2184.0,4588.0,0.144791,0.945656,-0.290946,6684.0,19502.0,-6466.0,-2099.0,1529.0,1807.0
2863.0,2807.0,2879.0,3127.0,3005.0,0.61615,0.772705,-0.151733,0.01062,-102.0,64.0,115.0,2673.0,10539.0,-4458.0,1006.0,2764.0,-2489.0,699.0,1617.0,3425.0,0.203393,0.948981,-0.240343,5940.0,18912.0,-5008.0,-2326.0,1473.0,2642.0
2864.0,2815.0,2879.0,3107.0,3045.0,0.637634,0.750305,-0.169922,0.038818,-111.0,51.0,154.0,2746.0,9855.0,-3186.0,493.0,2124.0,-1680.0,82.0,1254.0,2448.0,0.274947,0.943648,-0.183747,5618.0,17896.0,-2658.0,-2529.0,1188.0,3535.0
2863.0,2773.0,2883.0,3167.0,3022.0,0.648071,0.737427,-0.182312,0.053955,-114.0,44.0,175.0,2667.0,9692.0,-2586.0,79.0,2023.0,-1323.0,-404.0,1085.0,2122.0,0.315878,0.936137,-0.154128,4556.0,18774.0,-1688.0,-2591.0,1026.0,4011.0
2865.0,2777.0,2883.0,3135.0,3026.0,0.668701,0.707458,-0.21283,0.083252,-136.0,17.0,204.0,2229.0,9951.0,-1662.0,-1067.0,2490.0,-910.0,-1830.0,1058.0,1921.0,0.402433,0.91072,-0.091702,3684.0,20364.0,-920.0,-3112.0,410.0,4687.0
2847.0,2785.0,2896.0,3127.0,3050.0,0.690125,0.66925,-0.252258,0.109924,-169.0,-10.0,235.0,2192.0,9643.0,-976.0,-1865.0,2530.0,-786.0,-2662.0,1318.0,1291.0,0.495313,0.868274,-0.023175,4520.0,17684.0,-392.0,-3856.0,-218.0,5395.0
2851.0,2783.0,2895.0,3139.0,3007.0,0.700684,0.646423,-0.275879,0.122559,-187.0,-27.0,252.0,2185.0,9292.0,-692.0,-2280.0,2425.0,-790.0,-2965.0,1516.0,780.0,0.545057,0.838254,0.012006,4196.0,16188.0,414.0,-4265.0,-600.0,5783.0
2863.0,2799.0,2891.0,3099.0,3035.0,0.719788,0.593506,-0.329346,0.145203,-216.0,-59.0,275.0,1951.0,8212.0,-66.0,-3344.0,1996.0,-708.0,-3461.0,1786.0,-702.0,0.646475,0.758753,0.07846,3026.0,12934.0,1362.0,-4926.0,-1343.0,6310.0
2863.0,2775.0,2898.0,3123.0,3039.0,0.734619,0.530579,-0.390503,0.162109,-247.0,-95.0,285.0,2248.0,6321.0,162.0,-3861.0,972.0,-918.0,-2745.0,1885.0,-2365.0,0.745765,0.652938,0.131939,6624.0,5704.0,916.0,-5638.0,-2167.0,6538.0
2863.0,2749.0,2890.0,3106.0,3039.0,0.739197,0.496277,-0.422668,0.169128,-247.0,-105.0,282.0,2686.0,4958.0,162.0,-3808.0,118.0,-1067.0,-1820.0,1633.0,-3109.0,0.792739,0.590722,0.150077,8224.0,1244.0,100.0,-5643.0,-2387.0,6478.0
2842.0,2751.0,2885.0,3120.0,3021.0,0.740173,0.427917,-0.485168,0.183289,-213.0,-110.0,268.0,3987.0,1666.0,59.0,-3181.0,-2066.0,-1275.0,664.0,321.0,-3932.0,0.875082,0.455615,0.162949,12138.0,-7166.0,-434.0,-4862.0,-2512.0,6154.0
2847.0,2729.0,2895.0,3103.0,3023.0,0.73645,0.395691,-0.514282,0.191223,-186.0,-111.0,256.0,4582.0,27.0,-124.0,-2863.0,-3136.0,-1417.0,1879.0,-461.0,-4036.0,0.908817,0.386128,0.157868,12708.0,-9428.0,-1490.0,-4260.0,-2521.0,5865.0
2863.0,2753.0,2899.0,3143.0,3023.0,0.724243,0.341125,-0.563293,0.204529,-137.0,-92.0,183.0,6290.0,-2269.0,-627.0,-1537.0,-4429.0,-1714.0,3740.0,-1650.0,-2863.0,0.955463,0.263696,0.132694,18432.0,-9622.0,-2924.0,-3132.0,-2094.0,4214.0
2863.0,2751.0,2899.0,3119.0,3031.0,0.716492,0.304993,-0.593079,0.20459,-114.0,-46.0,54.0,8094.0,-3285.0,-1133.0,109.0,-4877.0,-2037.0,4694.0,-2184.0,-1066.0,0.974669,0.194374,0.110455,20632.0,-8986.0,-3410.0,-2589.0,-1051.0,1240.0
2877.0,2733.0,2898.0,3135.0,3031.0,0.716858,0.295044,-0.599915,0.197754,-99.0,-24.0,-19.0,8377.0,-3584.0,-1209.0,375.0,-5105.0,-2077.0,4874.0,-2471.0,-802.0,0.976799,0.185738,0.106043,17360.0,-8676.0,-2764.0,-2266.0,-534.0,-417.0
2843.0,2741.0,2895.0,3131.0,3027.0,0.722412,0.296692,-0.60083,0.17041,-50.0,-17.0,-160.0,7206.0,-3751.0,-1264.0,-733.0,-5585.0,-2098.0,4814.0,-2867.0,-2174.0,0.969212,0.223893,0.101896,9414.0,-7658.0,-2486.0,-1144.0,-385.0,-3658.0
2846.0,2746.0,2898.0,3115.0,3011.0,0.726807,0.326294,-0.591064,0.12616,-7.0,-41.0,-276.0,5899.0,-2972.0,-658.0,-1813.0,-5635.0,-1381.0,3791.0,-3027.0,-3661.0,0.941509,0.325168,0.088339,9296.0,-1994.0,1270.0,-149.0,-921.0,-6306.0
2851.0,2739.0,2896.0,3135.0,3039.0,0.727844,0.348389,-0.58252,0.097229,0.0,-47.0,-325.0,5796.0,-2182.0,-145.0,-1705.0,-5408.0,-788.0,3059.0,-3052.0,-3753.0,0.915714,0.39387,0.078507,11574.0,472.0,2828.0,7.0,-1073.0,-7435.0
2850.0,2751.0,2900.0,3135.0,3019.0,0.729187,0.401001,-0.553711,0.030029,18.0,-15.0,-409.0,6774.0,-831.0,1012.0,-38.0,-5349.0,477.0,2221.0,-3898.0,-2950.0,0.831601,0.551554,0.065218,17418.0,1240.0,5504.0,419.0,-341.0,-9359.0
2858.0,2751.0,2879.0,3135.0,3015.0,0.728271,0.462891,-0.50415,-0.034546,74.0,52.0,-441.0,7245.0,-677.0,1574.0,1491.0,-6485.0,1056.0,2620.0,-5136.0,-3484.0,0.702335,0.709053,0.063137,13406.0,-1498.0,4534.0,1709.0,1209.0,-10100.0
2847.0,2751.0,2895.0,3143.0,3005.0,0.724792,0.496887,-0.473328,-0.060791,114.0,83.0,-431.0,6555.0,-338.0,1588.0,1429.0,-6709.0,1112.0,2512.0,-4881.0,-4259.0,0.625716,0.777828,0.058084,8048.0,2170.0,2828.0,2632.0,1903.0,-9856.0
2861.0,2743.0,2886.0,3117.0,3023.0,0.70874,0.567749,-0.40625,-0.101074,162.0,107.0,-370.0,3820.0,2246.0,1319.0,42.0,-5019.0,1112.0,855.0,-2509.0,-4403.0,0.461082,0.886896,0.025151,-1736.0,16390.0,1764.0,3720.0,2471.0,-8457.0
2845.0,2737.0,2879.0,3133.0,3021.0,0.692322,0.617737,-0.349792,-0.129089,68.0,73.0,-210.0,579.0,7741.0,845.0,-2082.0,-5.0,910.0,-2087.0,574.0,-688.0,0.324851,0.945654,-0.00798,-9402.0,31504.0,-906.0,1568.0,1681.0,-4790.0
2847.0,2743.0,2895.0,3133.0,3014.0,0.690002,0.627258,-0.333008,-0.139648,-2.0,35.0,-111.0,-1511.0,9728.0,56.0,-3840.0,1874.0,127.0,-3340.0,2572.0,703.0,0.284361,0.958628,-0.008742,-15994.0,29926.0,-5100.0,-44.0,823.0,-2540.0
2855.0,2763.0,2911.0,3135.0,3030.0,0.691284,0.626221,-0.324036,-0.157959,-58.0,-44.0,11.0,-4862.0,11135.0,-1404.0,-6911.0,3203.0,-1450.0,-4778.0,5951.0,1363.0,0.250167,0.968162,0.005673,-15978.0,23516.0,-5774.0,-1312.0,-1006.0,254.0
2847.0,2745.0,2901.0,3119.0,3011.0,0.691833,0.622253,-0.327271,-0.164551,-46.0,-55.0,33.0,-5002.0,11193.0,-1561.0,-7034.0,3257.0,-1654.0,-4643.0,6270.0,1391.0,0.248049,0.968697,0.011405,-9122.0,22782.0,-3320.0,-1041.0,-1246.0,759.0
2851.0,2757.0,2893.0,3134.0,3015.0,0.693542,0.61554,-0.334412,-0.167969,-20.0,-9.0,39.0,-3416.0,11268.0,-1193.0,-5521.0,3353.0,-1344.0,-3672.0,5178.0,1795.0,0.257075,0.966147,0.018495,-1402.0,21508.0,-1284.0,-438.0,-204.0,906.0
2846.0,2749.0,2898.0,3115.0,3025.0,0.69519,0.615601,-0.334656,-0.160522,8.0,32.0,34.0,-2135.0,10331.0,-1464.0,-4327.0,2439.0,-1612.0,-2526.0,4419.0,1162.0,0.267664,0.963359,0.018099,-558.0,17868.0,-3482.0,197.0,741.0,797.0
2847.0,2756.0,2871.0,3111.0,3047.0,0.695557,0.617188,-0.333679,-0.154602,17.0,42.0,34.0,-1406.0,10029.0,-1416.0,-3645.0,2150.0,-1542.0,-2072.0,3859.0,1047.0,0.273349,0.961753,0.015439,1756.0,18574.0,-2260.0,392.0,975.0,796.0
2865.0,2767.0,2895.0,3137.0,3023.0,0.698608,0.619446,-0.329956,-0.138855,8.0,65.0,42.0,111.0,9712.0,-1072.0,-2256.0,1871.0,-1192.0,-1324.0,2645.0,1121.0,0.288994,0.957132,0.01475,4212.0,18256.0,-1432.0,194.0,1508.0,982.0
2859.0,2762.0,2877.0,3119.0,3019.0,0.702026,0.619019,-0.327515,-0.129272,-3.0,74.0,52.0,628.0,9418.0,-1019.0,-1827.0,1604.0,-1175.0,-1004.0,2315.0,959.0,0.299804,0.953812,0.019103,4154.0,16852.0,-1846.0,-66.0,1706.0,1196.0
2851.0,2737.0,2883.0,3155.0,3011.0,0.711243,0.614868,-0.323608,-0.106567,-17.0,82.0,78.0,1314.0,8565.0,-1176.0,-1383.0,834.0,-1458.0,-405.0,2119.0,281.0,0.329278,0.943613,0.034438,4120.0,14666.0,-3428.0,-370.0,1894.0,1803.0
2846.0,2767.0,2897.0,3135.0,3005.0,0.716309,0.611328,-0.323181,-0.093445,-20.0,81.0,92.0,1583.0,8372.0,-1260.0,-1273.0,702.0,-1617.0,-234.0,2156.0,142.0,0.348744,0.936198,0.043662,4922.0,15938.0,-2632.0,-440.0,1864.0,2128.0
2849.0,2731.0,2873.0,3135.0,3029.0,0.726562,0.602417,-0.323975,-0.065002,-23.0,79.0,111.0,1735.0,8349.0,-1292.0,-1480.0,832.0,-1818.0,-404.0,2453.0,65.0,0.392458,0.917506,0.064253,2450.0,16712.0,-2882.0,-521.0,1832.0,2556.0
2847.0,2750.0,2890.0,3119.0,3025.0,0.734802,0.59314,-0.326843,-0.036499,-14.0,64.0,121.0,1318.0,8398.0,-1196.0,-2262.0,1061.0,-1872.0,-1146.0,2897.0,-193.0,0.437032,0.89554,0.082625,1772.0,16736.0,-1768.0,-317.0,1475.0,2780.0
2843.0,2751.0,2865.0,3135.0,3019.0,0.737976,0.58783,-0.330688,-0.022034,-13.0,53.0,134.0,1437.0,8269.0,-983.0,-2349.0,1042.0,-1721.0,-1319.0,2778.0,-321.0,0.462176,0.882181,0.090196,4132.0,15644.0,-412.0,-293.0,1217.0,3082.0
2843.0,2735.0,2883.0,3119.0,3013.0,0.74353,0.572815,-0.344666,0.011963,-16.0,44.0,180.0,2377.0,7990.0,-327.0,-1933.0,1079.0,-1195.0,-1322.0,2127.0,-233.0,0.526244,0.843564,0.106069,8642.0,16258.0,1322.0,-362.0,1026.0,4130.0
2842.0,2769.0,2878.0,3127.0,3021.0,0.749451,0.551208,-0.362732,0.053711,-24.0,61.0,210.0,3973.0,8143.0,522.0,-966.0,1693.0,-536.0,-1259.0,1426.0,681.0,0.602911,0.787242,0.129156,13424.0,16834.0,3638.0,-549.0,1399.0,4814.0
2859.0,2781.0,2862.0,3111.0,3039.0,0.752991,0.538513,-0.370117,0.077209,-27.0,81.0,213.0,4909.0,8152.0,829.0,-338.0,1976.0,-366.0,-1085.0,1219.0,1219.0,0.640546,0.753838,0.145973,15556.0,15966.0,3084.0,-616.0,1869.0,4879.0
2855.0,2766.0,2883.0,3135.0,3023.0,0.760803,0.511902,-0.377869,0.127808,-23.0,127.0,201.0,6489.0,7380.0,848.0,706.0,1790.0,-711.0,-243.0,1280.0,1584.0,0.705817,0.682324,0.190328,17426.0,10928.0,1212.0,-511.0,2928.0,4614.0
2837.0,2777.0,2911.0,3135.0,3019.0,0.764465,0.499084,-0.37738,0.15509,-10.0,154.0,192.0,7179.0,6679.0,734.0,1184.0,1386.0,-1043.0,379.0,1381.0,1535.0,0.731795,0.646009,0.216959,18350.0,9144.0,746.0,-213.0,3530.0,4409.0
2863.0,2763.0,2883.0,3135.0,3035.0,0.770691,0.476685,-0.365051,0.213257,26.0,210.0,167.0,8353.0,5514.0,596.0,2077.0,770.0,-1689.0,1420.0,1813.0,1565.0,0.765996,0.579054,0.278952,19736.0,8370.0,1228.0,601.0,4825.0,3826.0
2861.0,2796.0,2891.0,3135.0,3031.0,0.773499,0.467102,-0.352234,0.24353,42.0,240.0,151.0,8691.0,5142.0,671.0,2363.0,627.0,-1912.0,1660.0,2101.0,1567.0,0.772412,0.551046,0.315354,19022.0,8238.0,1880.0,967.0,5512.0,3477.0
2864.0,2799.0,2885.0,3127.0,3023.0,0.779114,0.448059,-0.315552,0.30426,47.0,279.0,133.0,8080.0,5003.0,530.0,1818.0,856.0,-2740.0,1071.0,3140.0,728.0,0.764355,0.506158,0.399263,11524.0,10872.0,0.0,1083.0,6398.0,3061.0
2855.0,2779.0,2889.0,3126.0,3027.0,0.782227,0.437561,-0.294922,0.331177,27.0,266.0,118.0,6748.0,5236.0,497.0,594.0,1228.0,-3133.0,-55.0,3399.0,-341.0,0.751212,0.489201,0.443118,5126.0,11830.0,1028.0,628.0,6103.0,2722.0
2864.0,2775.0,2867.0,3111.0,3031.0,0.791199,0.411804,-0.261047,0.36908,-40.0,190.0,74.0,4425.0,5564.0,1464.0,-1449.0,1804.0,-2832.0,-1989.0,2556.0,-1696.0,0.717058,0.458943,0.524487,3288.0,10914.0,8538.0,-912.0,4361.0,1707.0
2867.0,2774.0,2882.0,3107.0,3011.0,0.227539,0.330811,0.155151,-1.21228,21204.0,-8484.0,2576.0,-18796.0,-14452.0,-2237.0,-11647.0,-12603.0,-13606.0,17225.0,31341.0,-5875.0,-0.872676,-0.225629,1.38789,4134.0,7598.0,11672.0,-2204.0,2725.0,526.0
2863.0,2769.0,2887.0,3143.0,3039.0,0.81311,0.364258,-0.236023,0.387817,-123.0,90.0,12.0,3115.0,4466.0,4060.0,-2343.0,1113.0,-1044.0,-2164.0,217.0,-1756.0,0.666356,0.409296,0.62316,5768.0,5072.0,11728.0,-2815.0,2072.0,281.0
2861.0,2801.0,2895.0,3149.0,3045.0,0.828308,0.326721,-0.23584,0.389099,-140.0,55.0,21.0,2935.0,2231.0,4863.0,-2348.0,-699.0,-667.0,-726.0,-1006.0,-2214.0,0.64495,0.357721,0.675125,4908.0,-4730.0,11988.0,-3198.0,1277.0,497.0
2859.0,2807.0,2906.0,3139.0,3046.0,0.834167,0.29541,-0.241394,0.398193,-61.0,31.0,57.0,2465.0,-325.0,6047.0,-2761.0,-2787.0,240.0,645.0,-3021.0,-2429.0,0.637987,0.3006,0.708855,2654.0,-7416.0,14782.0,-1377.0,731.0,1315.0
2866.0,2800.0,2895.0,3119.0,3031.0,0.833618,0.286926,-0.242554,0.404785,-23.0,14.0,55.0,1962.0,-867.0,6450.0,-3253.0,-3177.0,571.0,684.0,-3740.0,-2557.0,0.636681,0.28201,0.717611,932.0,-3992.0,15430.0,-517.0,321.0,1275.0
2869.0,2778.0,2893.0,3120.0,3051.0,0.830566,0.278564,-0.246765,0.414246,-9.0,-20.0,42.0,1763.0,-983.0,7343.0,-3485.0,-3098.0,1420.0,439.0,-4420.0,-2006.0,0.640698,0.25829,0.722949,4194.0,-2498.0,16418.0,-205.0,-437.0,972.0
2859.0,2795.0,2891.0,3155.0,3039.0,0.828674,0.275452,-0.250305,0.41803,-9.0,-24.0,40.0,1978.0,-1246.0,7282.0,-3306.0,-3271.0,1359.0,730.0,-4370.0,-1959.0,0.645137,0.247249,0.722924,5468.0,-4436.0,13480.0,-199.0,-528.0,923.0
2859.0,2801.0,2891.0,3123.0,3047.0,0.823792,0.271973,-0.258057,0.42511,11.0,-23.0,28.0,2674.0,-2311.0,6513.0,-2703.0,-4184.0,624.0,2030.0,-3982.0,-2282.0,0.656406,0.228693,0.718789,7042.0,-8098.0,10300.0,270.0,-509.0,654.0
2863.0,2800.0,2887.0,3151.0,3023.0,0.818481,0.274963,-0.262512,0.430664,39.0,-28.0,7.0,2549.0,-3270.0,5782.0,-2911.0,-5104.0,-41.0,2913.0,-4042.0,-3112.0,0.666556,0.223996,0.710866,3316.0,-9336.0,10328.0,905.0,-639.0,183.0
2861.0,2783.0,2890.0,3111.0,3038.0,0.816223,0.278809,-0.264099,0.431519,47.0,-43.0,-11.0,1937.0,-3988.0,5687.0,-3565.0,-5849.0,-87.0,3258.0,-4687.0,-3785.0,0.67175,0.227213,0.704946,-378.0,-12912.0,11006.0,1099.0,-966.0,-238.0
2847.0,2783.0,2869.0,3095.0,3039.0,0.812256,0.29425,-0.269653,0.425232,80.0,-102.0,-66.0,-217.0,-6385.0,5384.0,-5855.0,-8422.0,-197.0,4305.0,-6892.0,-6258.0,0.688304,0.248683,0.681286,-7716.0,-20664.0,9054.0,1848.0,-2322.0,-1508.0
2860.0,2791.0,2893.0,3103.0,3027.0,0.805176,0.331299,-0.280762,0.403748,149.0,-192.0,-142.0,-2464.0,-8392.0,4118.0,-8359.0,-10905.0,-983.0,4985.0,-8087.0,-9973.0,0.719647,0.306794,0.622734,-11232.0,-20686.0,2748.0,3424.0,-4392.0,-3250.0
2862.0,2799.0,2896.0,3143.0,3021.0,0.798645,0.362305,-0.287476,0.384888,191.0,-242.0,-190.0,-3224.0,-8457.0,3058.0,-9270.0,-11384.0,-1628.0,4673.0,-7486.0,-11842.0,0.738075,0.357414,0.572066,-10384.0,-16066.0,-344.0,4397.0,-5536.0,-4332.0
2863.0,2801.0,2895.0,3149.0,3031.0,0.777405,0.448486,-0.296448,0.326355,267.0,-299.0,-300.0,-3133.0,-6313.0,915.0,-9306.0,-10440.0,-2540.0,2813.0,-4000.0,-13344.0,0.753651,0.503816,0.421845,-4236.0,-3198.0,-4852.0,6130.0,-6839.0,-6856.0
2863.0,2805.0,2890.0,3127.0,3047.0,0.742737,0.555969,-0.285217,0.24054,328.0,-301.0,-413.0,-2848.0,-1301.0,-1624.0,-8509.0,-6942.0,-3418.0,-923.0,1103.0,-11410.0,0.691148,0.688666,0.219067,-6640.0,15468.0,-12040.0,7518.0,-6875.0,-9457.0
2861.0,2807.0,2903.0,3118.0,3035.0,0.71814,0.613525,-0.269165,0.188171,352.0,-297.0,-454.0,-3419.0,2058.0,-3346.0,-8477.0,-4330.0,-4183.0,-3396.0,3854.0,-9039.0,0.617492,0.779895,0.10227,-11424.0,25026.0,-17528.0,8080.0,-6801.0,-10394.0
2859.0,2800.0,2891.0,3121.0,3030.0,0.649658,0.722961,-0.22345,0.072205,364.0,-294.0,-472.0,-4988.0,8516.0,-7726.0,-8221.0,1085.0,-6535.0,-6550.0,8173.0,-1311.0,0.394734,0.907087,-0.145334,-12000.0,32767.0,-29140.0,8342.0,-6716.0,-10803.0
2862.0,2803.0,2885.0,3122.0,3031.0,0.576477,0.794861,-0.1875,-0.025452,226.0,-231.0,-307.0,-1251.0,12136.0,-10821.0,-2690.0,4550.0,-8084.0,-1645.0,7006.0,6440.0,0.175718,0.925982,-0.333986,17196.0,32767.0,-27480.0,5183.0,-5277.0,-7026.0
2859.0,2801.0,2887.0,3117.0,3031.0,0.547974,0.81488,-0.180725,-0.054565,19.0,-30.0,-51.0,2791.0,14090.0,-11831.0,1896.0,6612.0,-8607.0,2678.0,4636.0,9628.0,0.109137,0.912789,-0.393439,6374.0,32767.0,-25996.0,437.0,-667.0,-1148.0
2863.0,2807.0,2887.0,3147.0,3039.0,0.55011,0.813843,-0.178833,-0.054993,-61.0,19.0,-3.0,2085.0,14698.0,-12038.0,1206.0,7201.0,-8853.0,1995.0,4947.0,10159.0,0.107245,0.915075,-0.388676,-516.0,32767.0,-24772.0,-1375.0,453.0,-68.0
2863.0,2803.0,2896.0,3151.0,3039.0,0.574036,0.79834,-0.174927,-0.050476,-155.0,52.0,34.0,1320.0,15075.0,-10949.0,335.0,7421.0,-8197.0,976.0,5179.0,9726.0,0.120234,0.93421,-0.335881,2714.0,28088.0,-16802.0,-3537.0,1214.0,794.0
2863.0,2794.0,2894.0,3135.0,3031.0,0.606262,0.774597,-0.176575,-0.034668,-151.0,74.0,81.0,1960.0,13046.0,-8132.0,646.0,5251.0,-5982.0,990.0,4278.0,6669.0,0.160394,0.951461,-0.262424,6104.0,19534.0,-6424.0,-3447.0,1703.0,1867.0
2859.0,2799.0,2885.0,3121.0,3039.0,0.62085,0.762878,-0.178955,-0.0224,-128.0,85.0,95.0,2289.0,12138.0,-6482.0,748.0,4312.0,-4613.0,824.0,3396.0,5311.0,0.188032,0.955283,-0.228052,6766.0,19104.0,-3366.0,-2910.0,1952.0,2177.0
2859.0,2795.0,2894.0,3119.0,3031.0,0.645752,0.740601,-0.185425,0.00769,-100.0,94.0,115.0,3432.0,10608.0,-3755.0,1376.0,2795.0,-2396.0,1032.0,1662.0,3407.0,0.250868,0.953637,-0.165817,10684.0,16976.0,-248.0,-2280.0,2173.0,2648.0
2861.0,2797.0,2885.0,3126.0,3038.0,0.666016,0.718994,-0.193237,0.044983,-79.0,110.0,134.0,3990.0,9476.0,-2048.0,1351.0,1772.0,-1157.0,868.0,766.0,2227.0,0.322083,0.940338,-0.108693,7752.0,16144.0,-350.0,-1802.0,2525.0,3076.0
2859.0,2803.0,2894.0,3142.0,3039.0,0.674255,0.70874,-0.197021,0.064148,-72.0,105.0,138.0,3706.0,9151.0,-1505.0,784.0,1528.0,-830.0,302.0,643.0,1769.0,0.356614,0.930467,-0.082395,5360.0,16662.0,176.0,-1634.0,2418.0,3172.0
2862.0,2799.0,2895.0,3151.0,3039.0,0.688477,0.687866,-0.207336,0.098938,-72.0,76.0,147.0,2865.0,8751.0,-591.0,-588.0,1327.0,-325.0,-1036.0,453.0,965.0,0.421605,0.906133,-0.03236,2902.0,16262.0,740.0,-1635.0,1746.0,3388.0
2855.0,2794.0,2890.0,3121.0,3039.0,0.694397,0.676941,-0.215393,0.114258,-75.0,52.0,156.0,2521.0,8564.0,-357.0,-1196.0,1265.0,-279.0,-1582.0,507.0,586.0,0.453828,0.890911,-0.009401,3462.0,15996.0,630.0,-1702.0,1211.0,3581.0
2858.0,2800.0,2887.0,3115.0,3035.0,0.703857,0.652893,-0.240295,0.143188,-81.0,17.0,185.0,3012.0,7934.0,254.0,-1290.0,968.0,-7.0,-1585.0,254.0,145.0,0.525241,0.850272,0.031907,8822.0,13820.0,2614.0,-1852.0,399.0,4249.0
2864.0,2794.0,2896.0,3151.0,3043.0,0.707581,0.638977,-0.256287,0.159119,-85.0,13.0,203.0,3597.0,7632.0,670.0,-1039.0,892.0,243.0,-1381.0,-14.0,158.0,0.566033,0.822695,0.052014,10934.0,13422.0,3904.0,-1935.0,315.0,4669.0
2855.0,2799.0,2896.0,3143.0,3039.0,0.713501,0.606934,-0.290161,0.195618,-88.0,27.0,229.0,4609.0,6922.0,1296.0,-728.0,756.0,519.0,-1118.0,-314.0,143.0,0.651514,0.752574,0.094788,11310.0,11522.0,3882.0,-1993.0,638.0,5254.0
2861.0,2769.0,2886.0,3071.0,3039.0,0.715271,0.589966,-0.306274,0.215515,-82.0,35.0,232.0,4811.0,6480.0,1371.0,-861.0,647.0,419.0,-1129.0,-226.0,-86.0,0.692432,0.711957,0.116196,10584.0,10250.0,2976.0,-1859.0,806.0,5334.0
2814.0,2779.0,2891.0,3093.0,3031.0,0.715027,0.557251,-0.336365,0.254944,-67.0,30.0,225.0,4797.0,5558.0,1309.0,-1471.0,434.0,58.0,-1279.0,66.0,-845.0,0.765155,0.625391,0.15259,9132.0,8798.0,2604.0,-1517.0,693.0,5156.0
2855.0,2767.0,2886.0,3089.0,3031.0,0.71228,0.526489,-0.365112,0.286499,-75.0,3.0,190.0,4848.0,5013.0,1803.0,-1884.0,582.0,337.0,-1607.0,-204.0,-1173.0,0.821802,0.540807,0.178927,10092.0,8636.0,5836.0,-1711.0,90.0,4370.0
2864.0,2762.0,2887.0,3155.0,3051.0,0.711914,0.510986,-0.378906,0.297302,-91.0,-8.0,166.0,4821.0,4711.0,2061.0,-2087.0,596.0,500.0,-1719.0,-372.0,-1365.0,0.843332,0.502257,0.190533,9330.0,7466.0,5352.0,-2066.0,-174.0,3822.0
2863.0,2750.0,2887.0,3159.0,3031.0,0.713745,0.479309,-0.408081,0.307007,-131.0,-41.0,122.0,4712.0,3734.0,2175.0,-2471.0,181.0,475.0,-1469.0,-496.0,-1989.0,0.876834,0.433642,0.207418,9424.0,3910.0,4336.0,-2981.0,-939.0,2814.0
2857.0,2749.0,2889.0,3115.0,3030.0,0.715454,0.462769,-0.424255,0.30658,-148.0,-56.0,105.0,4815.0,3074.0,2185.0,-2482.0,-219.0,450.0,-1085.0,-613.0,-2203.0,0.890821,0.402043,0.211718,10356.0,2014.0,4476.0,-3389.0,-1278.0,2425.0
2853.0,2749.0,2895.0,3123.0,3025.0,0.719238,0.428711,-0.457703,0.29895,-163.0,-70.0,75.0,5039.0,1226.0,1867.0,-2454.0,-1584.0,118.0,268.0,-915.0,-2762.0,0.914721,0.34303,0.21339,11088.0,-3924.0,1870.0,-3727.0,-1589.0,1738.0
2855.0,2742.0,2881.0,3125.0,3035.0,0.722168,0.400085,-0.48761,0.283997,-137.0,-72.0,9.0,5479.0,-1265.0,1329.0,-2151.0,-3729.0,-345.0,2367.0,-1681.0,-3196.0,0.931518,0.300899,0.204349,11988.0,-10028.0,1182.0,-3132.0,-1632.0,207.0
2854.0,2743.0,2885.0,3131.0,3039.0,0.723694,0.392456,-0.497803,0.272766,-106.0,-70.0,-48.0,5603.0,-2519.0,1002.0,-2053.0,-4947.0,-606.0,3462.0,-2186.0,-3504.0,0.934611,0.296469,0.196305,11760.0,-12344.0,-54.0,-2420.0,-1598.0,-1092.0
2854.0,2749.0,2895.0,3135.0,3023.0,0.726807,0.400146,-0.505066,0.237793,-30.0,-82.0,-195.0,5100.0,-3262.0,670.0,-2473.0,-6059.0,-719.0,4002.0,-2697.0,-4477.0,0.924475,0.341456,0.169585,6926.0,-5928.0,794.0,-686.0,-1873.0,-4453.0
2861.0,2751.0,2894.0,3139.0,3031.0,0.726929,0.44165,-0.494568,0.178528,34.0,-124.0,-339.0,3083.0,-2269.0,142.0,-4099.0,-6082.0,-846.0,2878.0,-1902.0,-6526.0,0.876725,0.465508,0.120645,-138.0,-1240.0,-2168.0,781.0,-2840.0,-7755.0
2828.0,2751.0,2894.0,3135.0,3023.0,0.721863,0.471985,-0.486206,0.140564,62.0,-157.0,-384.0,2527.0,-1625.0,-98.0,-4310.0,-6087.0,-767.0,2363.0,-1403.0,-6975.0,0.834636,0.544731,0.081678,3158.0,840.0,-1006.0,1442.0,-3590.0,-8783.0
2859.0,2754.0,2891.0,3133.0,3029.0,0.701294,0.540955,-0.460388,0.059753,119.0,-150.0,-440.0,3859.0,483.0,922.0,-1960.0,-5281.0,997.0,1378.0,-2151.0,-5117.0,0.710383,0.703717,-0.009205,13468.0,9210.0,6436.0,2729.0,-3434.0,-10066.0
2854.0,2750.0,2887.0,3127.0,3033.0,0.677979,0.609741,-0.410339,-0.009766,152.0,-26.0,-440.0,6387.0,2315.0,1872.0,1926.0,-4523.0,2530.0,2042.0,-4219.0,-2930.0,0.544494,0.834797,-0.080412,19622.0,6980.0,3386.0,3504.0,-595.0,-10056.0
2851.0,2751.0,2897.0,3127.0,3035.0,0.666565,0.641174,-0.378967,-0.029602,171.0,52.0,-380.0,6740.0,3151.0,1385.0,2912.0,-4035.0,2282.0,2632.0,-4139.0,-2428.0,0.467252,0.877205,-0.109536,13534.0,12606.0,-830.0,3920.0,1207.0,-8697.0
2859.0,2766.0,2903.0,3143.0,3025.0,0.64447,0.694336,-0.31665,-0.046509,151.0,107.0,-232.0,2418.0,6909.0,-968.0,-396.0,-663.0,382.0,-243.0,-153.0,-811.0,0.343558,0.924412,-0.164865,-14432.0,27458.0,-10358.0,3479.0,2473.0,-5303.0
2845.0,2751.0,2877.0,3135.0,3045.0,0.629333,0.723755,-0.275757,-0.063354,22.0,20.0,-100.0,-3344.0,11226.0,-3313.0,-5436.0,3477.0,-1676.0,-4940.0,3877.0,2235.0,0.25538,0.945907,-0.199789,-19178.0,32767.0,-11626.0,520.0,461.0,-2288.0
2851.0,2751.0,2881.0,3135.0,3022.0,0.630737,0.724121,-0.268433,-0.075317,-68.0,-29.0,-41.0,-4697.0,12593.0,-4003.0,-6577.0,4778.0,-2422.0,-5873.0,5008.0,3515.0,0.229543,0.953896,-0.192905,-16184.0,32767.0,-12106.0,-1541.0,-654.0,-939.0
2847.0,2741.0,2895.0,3126.0,3034.0,0.6474,0.7052,-0.270935,-0.100159,-164.0,-66.0,25.0,-4616.0,13281.0,-4823.0,-6332.0,5356.0,-3663.0,-4824.0,6307.0,4372.0,0.209543,0.967366,-0.141555,-4706.0,23850.0,-11036.0,-3736.0,-1494.0,593.0
2858.0,2747.0,2896.0,3137.0,3021.0,0.668457,0.680359,-0.278809,-0.111877,-127.0,-14.0,38.0,-2105.0,10509.0,-4554.0,-3911.0,2546.0,-3888.0,-1748.0,5487.0,1928.0,0.220509,0.971966,-0.081271,2952.0,11494.0,-8080.0,-2905.0,-300.0,883.0
2839.0,2753.0,2895.0,3131.0,3007.0,0.676147,0.672363,-0.279968,-0.111145,-86.0,18.0,33.0,-1117.0,9049.0,-4230.0,-2994.0,1090.0,-3730.0,-727.0,4814.0,600.0,0.22914,0.971468,-0.060926,3406.0,9762.0,-6134.0,-1967.0,429.0,765.0
2870.0,2741.0,2891.0,3119.0,3047.0,0.684326,0.667847,-0.274719,-0.100586,-9.0,68.0,15.0,246.0,7346.0,-3226.0,-1733.0,-594.0,-2873.0,166.0,3289.0,-870.0,0.241643,0.969316,-0.04307,3440.0,11376.0,-3492.0,-186.0,1579.0,364.0
2863.0,2754.0,2915.0,3127.0,3013.0,0.687439,0.670898,-0.265076,-0.083679,16.0,81.0,24.0,772.0,7104.0,-2276.0,-1293.0,-815.0,-1941.0,28.0,2243.0,-1034.0,0.252166,0.966766,-0.040795,2426.0,14848.0,-1826.0,372.0,1863.0,551.0
2855.0,2762.0,2885.0,3121.0,3013.0,0.688843,0.672119,-0.261108,-0.074219,13.0,77.0,36.0,829.0,7362.0,-1908.0,-1300.0,-541.0,-1581.0,-247.0,1945.0,-796.0,0.259958,0.964727,-0.039909,1920.0,16522.0,-1778.0,307.0,1777.0,847.0
2853.0,2741.0,2891.0,3127.0,3039.0,0.693726,0.6698,-0.259033,-0.05426,-10.0,59.0,75.0,769.0,8166.0,-1373.0,-1579.0,322.0,-1114.0,-963.0,1701.0,-109.0,0.286709,0.957425,-0.031531,1270.0,18352.0,-1188.0,-229.0,1356.0,1728.0
2864.0,2767.0,2887.0,3107.0,3021.0,0.697327,0.665833,-0.261536,-0.043701,-25.0,46.0,98.0,626.0,8665.0,-1291.0,-1885.0,870.0,-1098.0,-1405.0,1861.0,275.0,0.306556,0.951464,-0.02356,456.0,20762.0,-2224.0,-563.0,1068.0,2245.0
2861.0,2767.0,2903.0,3143.0,3043.0,0.706665,0.65271,-0.272034,-0.023254,-50.0,28.0,124.0,654.0,9599.0,-746.0,-2246.0,1938.0,-745.0,-2226.0,1833.0,1017.0,0.354117,0.935147,-0.000116,1774.0,21374.0,96.0,-1141.0,651.0,2849.0
2866.0,2768.0,2902.0,3123.0,3015.0,0.718079,0.633911,-0.287109,-0.001709,-66.0,24.0,144.0,850.0,9902.0,-436.0,-2510.0,2435.0,-692.0,-2689.0,2026.0,1167.0,0.410168,0.911377,0.031365,2788.0,19882.0,-520.0,-1510.0,554.0,3304.0
2850.0,2747.0,2879.0,3123.0,3023.0,0.724182,0.622742,-0.295959,0.010132,-74.0,24.0,155.0,1171.0,9823.0,-454.0,-2443.0,2483.0,-856.0,-2609.0,2198.0,1104.0,0.441276,0.89596,0.049143,4650.0,19032.0,-1164.0,-1679.0,559.0,3563.0
2867.0,2769.0,2901.0,3123.0,3030.0,0.735962,0.597351,-0.316284,0.038269,-75.0,33.0,181.0,2280.0,9246.0,-429.0,-1908.0,2241.0,-1135.0,-2017.0,2273.0,842.0,0.511266,0.855047,0.08624,8278.0,16508.0,-790.0,-1713.0,760.0,4154.0
2863.0,2774.0,2897.0,3126.0,3037.0,0.741211,0.583679,-0.326843,0.055237,-70.0,41.0,193.0,2935.0,8888.0,-391.0,-1562.0,2095.0,-1250.0,-1664.0,2249.0,748.0,0.549001,0.829151,0.104937,9914.0,15582.0,-502.0,-1599.0,941.0,4422.0
2861.0,2778.0,2882.0,3131.0,3025.0,0.74939,0.555603,-0.347107,0.095886,-51.0,67.0,212.0,4702.0,7963.0,-183.0,-432.0,1686.0,-1342.0,-657.0,1925.0,830.0,0.626786,0.766161,0.141601,15414.0,12810.0,426.0,-1146.0,1555.0,4857.0
2862.0,2798.0,2882.0,3133.0,3055.0,0.754272,0.528992,-0.360046,0.146851,-13.0,117.0,210.0,6417.0,6862.0,-194.0,694.0,1190.0,-1676.0,417.0,1876.0,1005.0,0.698512,0.692262,0.181026,17410.0,10364.0,-632.0,-293.0,2689.0,4814.0
2863.0,2790.0,2885.0,3121.0,3061.0,0.75531,0.517822,-0.361389,0.175415,10.0,146.0,201.0,7132.0,6179.0,-198.0,1171.0,809.0,-1857.0,952.0,1885.0,1006.0,0.727589,0.655447,0.202522,18472.0,8176.0,-442.0,243.0,3362.0,4624.0
2855.0,2787.0,2911.0,3125.0,3019.0,0.755493,0.498352,-0.352112,0.238403,48.0,206.0,187.0,7847.0,5383.0,-201.0,1541.0,589.0,-2292.0,1239.0,2354.0,945.0,0.769654,0.585114,0.255269,16016.0,10178.0,-408.0,1101.0,4721.0,4290.0
2858.0,2798.0,2865.0,3131.0,3055.0,0.755432,0.489746,-0.34137,0.269897,53.0,223.0,171.0,7580.0,5508.0,-165.0,1189.0,955.0,-2517.0,662.0,2771.0,735.0,0.780126,0.55567,0.287138,12996.0,12020.0,94.0,1216.0,5119.0,3922.0
2869.0,2783.0,2894.0,3158.0,3039.0,0.757751,0.470093,-0.315125,0.324768,14.0,213.0,136.0,6335.0,6042.0,439.0,-78.0,1882.0,-2504.0,-1098.0,2934.0,-5.0,0.782914,0.507742,0.359371,8818.0,13588.0,3768.0,340.0,4884.0,3137.0
2851.0,2755.0,2867.0,3135.0,3026.0,0.761108,0.457275,-0.303101,0.345947,-21.0,192.0,116.0,5614.0,6242.0,1073.0,-757.0,2257.0,-2187.0,-1933.0,2564.0,-361.0,0.777771,0.486359,0.397995,6728.0,13572.0,6134.0,-464.0,4416.0,2663.0
2864.0,2806.0,2903.0,3135.0,3027.0,0.773743,0.425842,-0.286011,0.371643,-98.0,130.0,60.0,4074.0,5810.0,2331.0,-2144.0,2153.0,-1549.0,-2768.0,1416.0,-1400.0,0.75912,0.446397,0.473653,4240.0,8816.0,8118.0,-2241.0,2982.0,1385.0
2859.0,2798.0,2883.0,3149.0,3047.0,0.791199,0.388977,-0.282288,0.377991,-150.0,73.0,25.0,3569.0,4146.0,3365.0,-2499.0,851.0,-1041.0,-1923.0,267.0,-2068.0,0.740751,0.402112,0.537883,6876.0,2344.0,9410.0,-3421.0,1675.0,575.0
2859.0,2835.0,2881.0,3142.0,3023.0,0.799927,0.368958,-0.284607,0.378052,-162.0,58.0,24.0,3662.0,3055.0,3719.0,-2353.0,-17.0,-915.0,-1123.0,-199.0,-2251.0,0.734299,0.375086,0.565675,8090.0,-632.0,9386.0,-3697.0,1341.0,552.0
2853.0,2783.0,2911.0,3165.0,3031.0,0.814819,0.328308,-0.291748,0.378357,-149.0,53.0,27.0,3861.0,741.0,4142.0,-2069.0,-1833.0,-889.0,558.0,-1120.0,-2619.0,0.723879,0.314254,0.614181,8120.0,-5500.0,9316.0,-3393.0,1221.0,627.0
2852.0,2791.0,2871.0,3135.0,3059.0,0.820618,0.309875,-0.294006,0.379578,-121.0,55.0,26.0,3630.0,-778.0,4218.0,-2250.0,-3115.0,-984.0,1538.0,-1890.0,-3128.0,0.717777,0.285382,0.63503,4996.0,-11662.0,8564.0,-2768.0,1264.0,615.0
2869.0,2795.0,2875.0,3141.0,3038.0,0.823792,0.284363,-0.297607,0.389771,-28.0,23.0,55.0,2996.0,-2985.0,5111.0,-2836.0,-4922.0,-304.0,2603.0,-3758.0,-3384.0,0.712005,0.236514,0.661121,4460.0,-10258.0,14530.0,-634.0,540.0,1270.0
2875.0,2799.0,2896.0,3125.0,3019.0,0.81842,0.278625,-0.298706,0.403992,31.0,-25.0,46.0,1978.0,-3136.0,5799.0,-3871.0,-4894.0,341.0,2044.0,-4689.0,-3587.0,0.714059,0.214716,0.666164,2766.0,-4904.0,14774.0,727.0,-559.0,1072.0
2861.0,2790.0,2878.0,3135.0,3027.0,0.814575,0.280334,-0.301208,0.408752,36.0,-42.0,35.0,2048.0,-2805.0,6383.0,-3849.0,-4529.0,965.0,1664.0,-4894.0,-3085.0,0.719889,0.210468,0.661297,4730.0,-3558.0,15978.0,840.0,-943.0,823.0
2863.0,2801.0,2907.0,3127.0,3015.0,0.80719,0.285583,-0.308289,0.414429,30.0,-54.0,16.0,2271.0,-2748.0,6958.0,-3745.0,-4431.0,1660.0,1565.0,-5221.0,-2587.0,0.734403,0.205513,0.646707,4270.0,-6888.0,15262.0,702.0,-1220.0,381.0
2851.0,2795.0,2895.0,3151.0,3020.0,0.804443,0.288818,-0.31189,0.414917,34.0,-62.0,-7.0,1764.0,-3375.0,6987.0,-4310.0,-5061.0,1755.0,1842.0,-5844.0,-3116.0,0.741466,0.205859,0.638594,-318.0,-11446.0,13584.0,783.0,-1401.0,-144.0
2867.0,2807.0,2879.0,3135.0,3039.0,0.798767,0.303467,-0.322388,0.407288,64.0,-125.0,-67.0,-247.0,-5945.0,6089.0,-6491.0,-7765.0,1109.0,3286.0,-7540.0,-5998.0,0.762222,0.22219,0.607886,-7066.0,-20568.0,8778.0,1474.0,-2849.0,-1531.0
2863.0,2799.0,2907.0,3155.0,3025.0,0.788635,0.342041,-0.338745,0.382385,136.0,-218.0,-164.0,-2256.0,-8290.0,4085.0,-8775.0,-10587.0,-309.0,4728.0,-8025.0,-10118.0,0.795876,0.280429,0.536424,-9504.0,-21474.0,490.0,3136.0,-4978.0,-3751.0
2853.0,2799.0,2875.0,3154.0,3051.0,0.768311,0.416504,-0.354675,0.332214,221.0,-296.0,-283.0,-2437.0,-8040.0,1462.0,-9168.0,-11352.0,-1826.0,4801.0,-5279.0,-12856.0,0.821739,0.404352,0.401397,-2704.0,-11152.0,-3554.0,5069.0,-6768.0,-6467.0
2855.0,2778.0,2898.0,3135.0,3047.0,0.753906,0.464966,-0.356628,0.296875,259.0,-304.0,-348.0,-1914.0,-6682.0,491.0,-8580.0,-10690.0,-2074.0,3988.0,-3284.0,-12862.0,0.813802,0.489333,0.313132,-550.0,-4242.0,-4750.0,5939.0,-6942.0,-7950.0
2853.0,2791.0,2877.0,3151.0,3015.0,0.714661,0.57605,-0.336731,0.209839,330.0,-280.0,-453.0,-1585.0,-1345.0,-1313.0,-7508.0,-6932.0,-2210.0,153.0,1071.0,-10398.0,0.723052,0.682042,0.109551,-3612.0,18138.0,-7812.0,7570.0,-6406.0,-10375.0
2861.0,2800.0,2915.0,3152.0,3013.0,0.658997,0.685547,-0.289368,0.109314,333.0,-248.0,-460.0,-2522.0,6308.0,-3450.0,-6874.0,-575.0,-2569.0,-4652.0,4199.0,-3858.0,0.531264,0.840282,-0.107482,-9058.0,32767.0,-14058.0,7634.0,-5676.0,-10524.0
2867.0,2813.0,2899.0,3135.0,3051.0,0.627075,0.729309,-0.266541,0.06189,293.0,-239.0,-392.0,-3433.0,8980.0,-5246.0,-6910.0,1757.0,-3559.0,-5826.0,5397.0,-651.0,0.424555,0.881671,-0.205882,-12190.0,32767.0,-22420.0,6734.0,-5456.0,-8962.0
2859.0,2794.0,2901.0,3150.0,3015.0,0.575562,0.779114,-0.247803,-0.016174,92.0,-224.0,-176.0,-2538.0,12386.0,-9393.0,-4668.0,4973.0,-6633.0,-3860.0,6717.0,5520.0,0.260048,0.904872,-0.336892,3090.0,32767.0,-31332.0,2123.0,-5108.0,-4024.0
2861.0,2779.0,2895.0,3135.0,3025.0,0.561584,0.784363,-0.258057,-0.052185,-51.0,-87.0,-9.0,1630.0,14225.0,-11182.0,-73.0,6787.0,-8202.0,636.0,5437.0,9129.0,0.207977,0.907905,-0.363718,15374.0,32767.0,-23554.0,-1155.0,-1985.0,-184.0
2864.0,2805.0,2895.0,3134.0,3055.0,0.566406,0.779663,-0.261475,-0.054077,-77.0,0.0,16.0,2840.0,14716.0,-11138.0,1104.0,7249.0,-8250.0,1574.0,4928.0,9749.0,0.211878,0.911492,-0.352503,10816.0,31630.0,-22160.0,-1752.0,22.0,374.0
2864.0,2791.0,2899.0,3151.0,3043.0,0.581665,0.769714,-0.259155,-0.044922,-78.0,65.0,29.0,2999.0,13102.0,-9823.0,1095.0,5575.0,-7207.0,1681.0,4737.0,7677.0,0.232329,0.918715,-0.319269,6614.0,19118.0,-12238.0,-1777.0,1489.0,687.0
2853.0,2783.0,2882.0,3155.0,3043.0,0.596497,0.76001,-0.25647,-0.027771,-48.0,76.0,46.0,3735.0,10717.0,-7065.0,1574.0,3172.0,-4715.0,1874.0,3044.0,4688.0,0.263754,0.920931,-0.286812,10774.0,15318.0,-5902.0,-1089.0,1754.0,1070.0
2860.0,2783.0,2893.0,3127.0,3031.0,0.6026,0.755554,-0.256226,-0.016113,-34.0,84.0,56.0,4313.0,10090.0,-5775.0,1982.0,2562.0,-3537.0,1956.0,2020.0,3883.0,0.284454,0.918851,-0.273127,11950.0,17260.0,-4078.0,-764.0,1937.0,1292.0
2832.0,2803.0,2896.0,3135.0,3023.0,0.614929,0.746033,-0.255188,0.010437,-35.0,95.0,67.0,4750.0,9785.0,-3943.0,2051.0,2312.0,-1948.0,1454.0,780.0,3258.0,0.329418,0.912188,-0.243439,9400.0,18806.0,-3674.0,-787.0,2186.0,1555.0
2866.0,2807.0,2893.0,3151.0,3013.0,0.627686,0.733582,-0.258179,0.034973,-48.0,63.0,93.0,3651.0,9254.0,-2949.0,575.0,1857.0,-1232.0,48.0,818.0,2150.0,0.375421,0.902858,-0.209586,2084.0,17012.0,-3398.0,-1098.0,1462.0,2151.0
2867.0,2775.0,2900.0,3133.0,3007.0,0.632996,0.726318,-0.264221,0.043701,-53.0,26.0,109.0,2628.0,9116.0,-2577.0,-632.0,1772.0,-981.0,-1053.0,1027.0,1527.0,0.397984,0.896419,-0.194758,-956.0,17658.0,-2958.0,-1206.0,605.0,2519.0
2863.0,2786.0,2879.0,3135.0,3037.0,0.641113,0.708252,-0.290771,0.052307,-73.0,-61.0,150.0,1800.0,9044.0,-1654.0,-1861.0,1853.0,-241.0,-2351.0,851.0,836.0,0.446928,0.877721,-0.172407,4050.0,17874.0,-204.0,-1652.0,-1388.0,3441.0
2867.0,2801.0,2891.0,3143.0,3047.0,0.644714,0.695862,-0.311401,0.055054,-86.0,-86.0,175.0,2390.0,9032.0,-1085.0,-1527.0,1962.0,246.0,-2290.0,373.0,923.0,0.478149,0.862977,-0.162507,9310.0,18082.0,1364.0,-1963.0,-1960.0,4010.0
2883.0,2783.0,2885.0,3133.0,3045.0,0.655579,0.661011,-0.359375,0.06366,-130.0,-79.0,208.0,4890.0,9250.0,308.0,340.0,2524.0,1391.0,-1698.0,-1104.0,2076.0,0.555357,0.820934,-0.13225,17974.0,18850.0,4692.0,-2970.0,-1795.0,4765.0
2864.0,2775.0,2894.0,3131.0,3007.0,0.673279,0.614929,-0.403137,0.077698,-161.0,-33.0,209.0,6644.0,8175.0,752.0,1414.0,1904.0,1418.0,-840.0,-1375.0,2244.0,0.638405,0.765392,-0.081316,16360.0,10802.0,164.0,-3684.0,-736.0,4797.0
2863.0,2741.0,2903.0,3135.0,3039.0,0.682129,0.590759,-0.422302,0.085815,-163.0,-20.0,202.0,6933.0,7004.0,386.0,1382.0,995.0,833.0,-139.0,-973.0,1620.0,0.677522,0.733468,-0.054672,15516.0,6550.0,-1522.0,-3728.0,-447.0,4634.0
2847.0,2742.0,2895.0,3165.0,3023.0,0.696716,0.545898,-0.454407,0.100098,-137.0,-13.0,152.0,6586.0,4359.0,-157.0,503.0,-1127.0,-82.0,1044.0,-542.0,-380.0,0.742471,0.669703,-0.009057,10682.0,2098.0,-1168.0,-3132.0,-291.0,3503.0
2834.0,2743.0,2886.0,3137.0,3039.0,0.706787,0.515381,-0.474182,0.099792,-111.0,-32.0,38.0,5943.0,2590.0,-286.0,-390.0,-2602.0,-441.0,1682.0,-669.0,-1959.0,0.773154,0.633889,0.01904,10176.0,-442.0,-1016.0,-2530.0,-720.0,893.0
2864.0,2751.0,2896.0,3127.0,3056.0,0.71051,0.506958,-0.479309,0.091736,-99.0,-43.0,-26.0,5655.0,1679.0,-446.0,-686.0,-3502.0,-663.0,2189.0,-863.0,-2763.0,0.77412,0.632458,0.026497,9580.0,-2108.0,-1932.0,-2267.0,-980.0,-579.0
2867.0,2738.0,2899.0,3133.0,3026.0,0.715881,0.503601,-0.480042,0.058899,-80.0,-58.0,-158.0,5802.0,-143.0,-641.0,-314.0,-5586.0,-902.0,3571.0,-1887.0,-3975.0,0.746629,0.664489,0.031901,14002.0,-6438.0,-1288.0,-1826.0,-1307.0,-3603.0
2857.0,2751.0,2887.0,3135.0,3034.0,0.717773,0.518677,-0.464172,0.014526,-16.0,-31.0,-259.0,6821.0,-1995.0,-258.0,1238.0,-7984.0,-511.0,5047.0,-3866.0,-5009.0,0.68141,0.731099,0.030928,16772.0,-8170.0,1504.0,-365.0,-698.0,-5924.0
2841.0,2739.0,2903.0,3119.0,3039.0,0.716125,0.533936,-0.449341,-0.006836,33.0,-7.0,-288.0,7041.0,-2425.0,136.0,1828.0,-8739.0,-76.0,5246.0,-4591.0,-5575.0,0.636269,0.770873,0.025888,14432.0,-6662.0,2432.0,760.0,-151.0,-6577.0
2858.0,2743.0,2887.0,3121.0,3011.0,0.705383,0.578552,-0.40686,-0.046204,106.0,29.0,-320.0,5230.0,-793.0,584.0,965.0,-7787.0,588.0,3430.0,-3515.0,-6146.0,0.520523,0.853799,-0.000558,2648.0,7630.0,2504.0,2440.0,668.0,-7307.0
2865.0,2735.0,2895.0,3119.0,3035.0,0.687622,0.628052,-0.354126,-0.085327,110.0,39.0,-297.0,2370.0,3440.0,770.0,-741.0,-4130.0,1095.0,157.0,-1274.0,-4141.0,0.37983,0.924158,-0.039749,-3854.0,20384.0,1190.0,2531.0,910.0,-6790.0
2862.0,2766.0,2896.0,3135.0,3039.0,0.678833,0.647888,-0.330139,-0.101807,89.0,38.0,-242.0,1090.0,5461.0,408.0,-1501.0,-2295.0,879.0,-987.0,-185.0,-2698.0,0.3163,0.946836,-0.057572,-5178.0,22330.0,-1918.0,2046.0,876.0,-5528.0
2853.0,2757.0,2891.0,3123.0,3039.0,0.664734,0.673035,-0.300903,-0.120728,53.0,14.0,-80.0,-2464.0,8436.0,-1207.0,-4409.0,510.0,-493.0,-3329.0,2931.0,-510.0,0.237534,0.967433,-0.087072,-18678.0,26004.0,-7804.0,1236.0,339.0,-1823.0
2855.0,2751.0,2895.0,3135.0,3039.0,0.658691,0.680115,-0.295837,-0.126404,37.0,-13.0,-18.0,-4668.0,10291.0,-1956.0,-6452.0,2338.0,-1134.0,-5030.0,4702.0,978.0,0.217793,0.970761,-0.100224,-21712.0,32344.0,-7830.0,854.0,-276.0,-410.0
2859.0,2736.0,2891.0,3131.0,3034.0,0.656067,0.678955,-0.299255,-0.137634,-46.0,-45.0,47.0,-6120.0,13094.0,-2095.0,-7805.0,5121.0,-1266.0,-6533.0,5809.0,3506.0,0.205768,0.973256,-0.101167,-12236.0,32767.0,-3614.0,-1049.0,-1022.0,1083.0
2853.0,2736.0,2864.0,3135.0,3009.0,0.667358,0.662354,-0.308228,-0.144348,-92.0,-27.0,67.0,-4799.0,12423.0,-2277.0,-6602.0,4451.0,-1723.0,-4993.0,5697.0,2993.0,0.220177,0.973038,-0.067513,-3946.0,18046.0,-5288.0,-2093.0,-603.0,1552.0
2861.0,2758.0,2891.0,3139.0,3027.0,0.673401,0.654175,-0.312744,-0.143921,-74.0,-10.0,67.0,-3744.0,10961.0,-2336.0,-5651.0,3006.0,-1913.0,-3792.0,5229.0,1701.0,0.232906,0.971065,-0.051572,-1014.0,12812.0,-4844.0,-1679.0,-222.0,1549.0
2855.0,2751.0,2899.0,3135.0,3026.0,0.680847,0.645142,-0.319092,-0.13562,-18.0,21.0,55.0,-1655.0,8368.0,-2111.0,-3780.0,462.0,-1815.0,-1869.0,3752.0,-469.0,0.259517,0.965036,-0.036082,2558.0,10528.0,-2950.0,-404.0,499.0,1269.0
2855.0,2751.0,2891.0,3135.0,3043.0,0.684692,0.6427,-0.321594,-0.120972,6.0,43.0,52.0,189.0,7083.0,-1477.0,-2144.0,-764.0,-1206.0,-729.0,2098.0,-1302.0,0.284889,0.957911,-0.033049,5720.0,11394.0,-936.0,142.0,1005.0,1200.0
2862.0,2755.0,2879.0,3127.0,3033.0,0.686951,0.641541,-0.322449,-0.111511,6.0,51.0,60.0,914.0,6818.0,-1189.0,-1543.0,-991.0,-933.0,-378.0,1479.0,-1378.0,0.299935,0.953327,-0.031211,5750.0,12476.0,-796.0,141.0,1188.0,1393.0
2855.0,2751.0,2895.0,3125.0,3031.0,0.692871,0.637451,-0.324768,-0.089844,-2.0,57.0,80.0,1681.0,6817.0,-799.0,-1067.0,-897.0,-605.0,-223.0,920.0,-1188.0,0.335503,0.9417,-0.023676,4946.0,14054.0,-716.0,-43.0,1318.0,1843.0
2851.0,2751.0,2895.0,3135.0,3027.0,0.696472,0.634094,-0.326599,-0.07843,-9.0,56.0,89.0,1804.0,6901.0,-703.0,-1108.0,-754.0,-559.0,-318.0,906.0,-1088.0,0.35547,0.934488,-0.017518,4032.0,14284.0,-1006.0,-191.0,1286.0,2041.0
2859.0,2755.0,2887.0,3131.0,3039.0,0.702942,0.626038,-0.332947,-0.055298,-7.0,41.0,104.0,1775.0,6920.0,-722.0,-1492.0,-591.0,-676.0,-588.0,1183.0,-1133.0,0.398847,0.916959,-0.005591,3832.0,14428.0,-1122.0,-152.0,962.0,2405.0
2859.0,2755.0,2887.0,3135.0,3031.0,0.70636,0.617615,-0.344421,-0.031128,6.0,26.0,121.0,2216.0,7375.0,-177.0,-1455.0,51.0,-175.0,-1034.0,843.0,-606.0,0.448121,0.893959,-0.000161,6216.0,16578.0,1692.0,159.0,614.0,2780.0
2863.0,2754.0,2895.0,3120.0,3031.0,0.707458,0.612915,-0.351318,-0.018311,8.0,25.0,127.0,2614.0,7666.0,158.0,-1274.0,456.0,143.0,-1217.0,572.0,-203.0,0.474641,0.88009,0.001743,7676.0,16978.0,2356.0,201.0,594.0,2915.0
2855.0,2759.0,2885.0,3115.0,3025.0,0.710022,0.602356,-0.364502,0.010437,8.0,42.0,133.0,3800.0,8137.0,476.0,-543.0,1192.0,405.0,-1144.0,207.0,726.0,0.530182,0.847763,0.008546,11028.0,17598.0,1492.0,184.0,971.0,3067.0
2859.0,2767.0,2887.0,3139.0,3025.0,0.71167,0.596802,-0.369568,0.026123,7.0,55.0,132.0,4307.0,8288.0,468.0,-257.0,1487.0,350.0,-1070.0,225.0,1096.0,0.557201,0.830143,0.014404,11606.0,17310.0,720.0,165.0,1279.0,3038.0
2863.0,2767.0,2887.0,3141.0,3031.0,0.716187,0.584534,-0.376404,0.060364,3.0,81.0,136.0,5198.0,8177.0,364.0,203.0,1690.0,91.0,-788.0,370.0,1464.0,0.60972,0.791828,0.033207,12766.0,15558.0,500.0,76.0,1860.0,3126.0
2862.0,2769.0,2887.0,3111.0,3029.0,0.718933,0.577576,-0.378479,0.079285,3.0,93.0,140.0,5562.0,8063.0,316.0,353.0,1751.0,-63.0,-689.0,502.0,1570.0,0.635788,0.770461,0.046311,13282.0,15440.0,304.0,70.0,2134.0,3225.0
2859.0,2771.0,2887.0,3111.0,3029.0,0.724365,0.5625,-0.380066,0.119934,5.0,113.0,145.0,6122.0,7821.0,281.0,506.0,1892.0,-359.0,-643.0,837.0,1688.0,0.685539,0.723745,0.078233,13382.0,15020.0,428.0,127.0,2596.0,3339.0
2859.0,2779.0,2896.0,3135.0,3045.0,0.72699,0.554749,-0.379211,0.141052,6.0,121.0,143.0,6222.0,7663.0,221.0,423.0,1931.0,-572.0,-698.0,1096.0,1594.0,0.707863,0.699616,0.096863,12910.0,14240.0,-64.0,153.0,2787.0,3287.0
2861.0,2778.0,2883.0,3141.0,3039.0,0.731506,0.539124,-0.374939,0.183289,9.0,130.0,137.0,6372.0,7077.0,95.0,259.0,1741.0,-1031.0,-640.0,1531.0,1185.0,0.746171,0.651301,0.137463,13448.0,11950.0,198.0,223.0,2995.0,3160.0
2859.0,2779.0,2891.0,3127.0,3023.0,0.733215,0.531189,-0.371826,0.204773,14.0,135.0,137.0,6474.0,6767.0,162.0,225.0,1633.0,-1141.0,-617.0,1615.0,1013.0,0.762804,0.626672,0.15912,13580.0,11890.0,818.0,332.0,3095.0,3144.0
2864.0,2783.0,2886.0,3127.0,3039.0,0.735291,0.515015,-0.363281,0.249023,20.0,146.0,140.0,6728.0,6420.0,486.0,250.0,1697.0,-1197.0,-771.0,1707.0,929.0,0.790736,0.57644,0.205451,13986.0,12524.0,2100.0,468.0,3351.0,3209.0
2864.0,2793.0,2893.0,3147.0,3039.0,0.736206,0.506348,-0.357666,0.271301,17.0,151.0,137.0,6725.0,6464.0,693.0,160.0,1946.0,-1201.0,-1084.0,1795.0,923.0,0.801377,0.551482,0.231291,13186.0,13350.0,2754.0,408.0,3478.0,3145.0
2864.0,2791.0,2895.0,3143.0,3027.0,0.739868,0.486938,-0.343933,0.311584,-7.0,151.0,116.0,6358.0,6460.0,1157.0,-296.0,2313.0,-1211.0,-1760.0,1861.0,580.0,0.812375,0.506212,0.289091,11232.0,12230.0,3782.0,-147.0,3463.0,2674.0
2855.0,2790.0,2897.0,3151.0,3043.0,0.747009,0.463196,-0.331482,0.342712,-42.0,131.0,91.0,5690.0,5885.0,1643.0,-967.0,2077.0,-1232.0,-2009.0,1631.0,-252.0,0.812726,0.464817,0.351044,9446.0,9676.0,4776.0,-949.0,3014.0,2096.0
2864.0,2782.0,2887.0,3127.0,3039.0,0.751465,0.4505,-0.32666,0.35437,-54.0,116.0,78.0,5520.0,5457.0,1999.0,-1117.0,1807.0,-1119.0,-1900.0,1370.0,-525.0,0.810235,0.445553,0.38062,10366.0,8212.0,6484.0,-1230.0,2667.0,1787.0
2847.0,2785.0,2882.0,3123.0,3031.0,0.760925,0.424561,-0.319031,0.372681,-65.0,98.0,59.0,5421.0,4428.0,2815.0,-1148.0,1083.0,-755.0,-1375.0,718.0,-807.0,0.801968,0.408325,0.435866,10674.0,5540.0,7764.0,-1474.0,2259.0,1365.0
2864.0,2798.0,2896.0,3152.0,3030.0,0.765442,0.41156,-0.31604,0.380371,-66.0,92.0,57.0,5381.0,3814.0,3097.0,-1147.0,622.0,-682.0,-993.0,455.0,-986.0,0.796912,0.389626,0.461321,10448.0,3780.0,7636.0,-1511.0,2110.0,1319.0
2864.0,2800.0,2895.0,3159.0,3039.0,0.772583,0.386292,-0.312378,0.395264,-60.0,77.0,58.0,5096.0,2412.0,3402.0,-1359.0,-454.0,-745.0,-150.0,-49.0,-1607.0,0.78805,0.349941,0.506317,9482.0,340.0,7792.0,-1358.0,1768.0,1350.0
2861.0,2793.0,2883.0,3125.0,3031.0,0.774963,0.374695,-0.311035,0.402771,-49.0,72.0,58.0,5027.0,1609.0,3634.0,-1394.0,-1095.0,-672.0,388.0,-418.0,-1807.0,0.783914,0.330198,0.525654,9612.0,-1674.0,8804.0,-1114.0,1655.0,1334.0
2865.0,2787.0,2887.0,3125.0,3035.0,0.777588,0.355042,-0.30658,0.418579,-23.0,66.0,52.0,4469.0,217.0,3938.0,-1871.0,-2203.0,-647.0,1166.0,-1162.0,-2461.0,0.774011,0.295496,0.559806,6658.0,-3370.0,8384.0,-505.0,1514.0,1202.0
2864.0,2789.0,2894.0,3123.0,3038.0,0.778137,0.340576,-0.302368,0.432434,-11.0,44.0,43.0,3817.0,-714.0,4216.0,-2450.0,-2913.0,-576.0,1576.0,-1835.0,-2993.0,0.765121,0.268521,0.585078,6294.0,-3922.0,9422.0,-232.0,1018.0,985.0
2864.0,2799.0,2893.0,3155.0,3043.0,0.777893,0.334778,-0.301025,0.438293,-7.0,36.0,37.0,3685.0,-1164.0,4368.0,-2555.0,-3269.0,-502.0,1865.0,-2113.0,-3084.0,0.761793,0.256968,0.594526,6728.0,-5100.0,9676.0,-159.0,826.0,869.0
2866.0,2787.0,2890.0,3159.0,3035.0,0.777344,0.325745,-0.298462,0.447754,5.0,26.0,18.0,3471.0,-2268.0,4573.0,-2719.0,-4227.0,-420.0,2692.0,-2673.0,-3321.0,0.755722,0.239156,0.609558,6138.0,-8220.0,9532.0,127.0,613.0,415.0
2864.0,2799.0,2887.0,3126.0,3025.0,0.7771,0.322937,-0.296875,0.451172,14.0,19.0,6.0,3243.0,-2976.0,4661.0,-2923.0,-4893.0,-377.0,3215.0,-3078.0,-3577.0,0.752803,0.234025,0.615017,4860.0,-10362.0,9954.0,328.0,453.0,149.0
2861.0,2797.0,2895.0,3126.0,3029.0,0.777222,0.323547,-0.293457,0.45282,46.0,-18.0,-43.0,1799.0,-5447.0,4943.0,-4338.0,-7389.0,-122.0,4812.0,-4947.0,-5077.0,0.74918,0.23717,0.618319,-2616.0,-20492.0,10578.0,1058.0,-403.0,-979.0
2861.0,2799.0,2895.0,3131.0,3030.0,0.77533,0.342529,-0.293091,0.442139,109.0,-112.0,-113.0,-612.0,-8674.0,5052.0,-6816.0,-10902.0,190.0,6655.0,-7534.0,-8014.0,0.757375,0.271973,0.593394,-8308.0,-26036.0,9974.0,2507.0,-2552.0,-2588.0
2865.0,2800.0,2887.0,3157.0,3027.0,0.771973,0.36322,-0.295227,0.430054,148.0,-170.0,-152.0,-1648.0,-9637.0,4855.0,-7941.0,-12150.0,252.0,7017.0,-8224.0,-9687.0,0.768223,0.306865,0.5618,-9178.0,-23994.0,8106.0,3392.0,-3874.0,-3464.0
2862.0,2790.0,2889.0,3154.0,3045.0,0.757019,0.428894,-0.302856,0.388855,219.0,-273.0,-229.0,-2568.0,-9376.0,3807.0,-9056.0,-12766.0,131.0,6160.0,-7303.0,-12397.0,0.792091,0.413827,0.448614,-5864.0,-14998.0,3988.0,5025.0,-6236.0,-5224.0
2867.0,2802.0,2883.0,3154.0,3043.0,0.72876,0.522034,-0.301636,0.324524,298.0,-311.0,-321.0,-2546.0,-6528.0,1961.0,-8923.0,-11157.0,-274.0,3399.0,-3873.0,-13325.0,0.778465,0.565098,0.272903,-4242.0,-1204.0,-472.0,6841.0,-7109.0,-7352.0
2866.0,2805.0,2896.0,3125.0,3027.0,0.708923,0.575867,-0.291077,0.284607,354.0,-289.0,-374.0,-2196.0,-4577.0,1376.0,-8262.0,-9908.0,6.0,1796.0,-2300.0,-12565.0,0.740493,0.650806,0.167225,-4090.0,1962.0,-474.0,8109.0,-6607.0,-8564.0
2864.0,2791.0,2893.0,3123.0,3051.0,0.643738,0.697571,-0.242981,0.199646,461.0,-293.0,-390.0,-6301.0,2434.0,-5436.0,-11145.0,-4128.0,-4687.0,-6318.0,5796.0,-9469.0,0.591366,0.801085,-0.091388,-23924.0,32738.0,-32768.0,10569.0,-6699.0,-8931.0
2867.0,2811.0,2897.0,3119.0,3037.0,0.552856,0.803711,-0.200256,0.090332,400.0,-358.0,-350.0,-7949.0,8852.0,-10403.0,-10952.0,1868.0,-7353.0,-10120.0,8655.0,314.0,0.366628,0.852494,-0.372244,-14992.0,32767.0,-32768.0,9182.0,-8187.0,-7997.0
2870.0,2813.0,2902.0,3179.0,3059.0,0.509155,0.83844,-0.19043,0.037415,315.0,-373.0,-267.0,-5844.0,10849.0,-11989.0,-7946.0,3971.0,-8068.0,-7707.0,7614.0,5155.0,0.256656,0.839543,-0.478606,4682.0,32767.0,-32768.0,7229.0,-8526.0,-6101.0
2864.0,2804.0,2886.0,3151.0,3031.0,0.449768,0.870667,-0.197876,-0.020142,156.0,-175.0,-51.0,2185.0,13395.0,-13005.0,1014.0,6913.0,-8134.0,410.0,2363.0,10450.0,0.142923,0.791167,-0.594518,24172.0,32767.0,-24280.0,3583.0,-3986.0,-1157.0
2869.0,2806.0,2895.0,3151.0,3031.0,0.436279,0.877808,-0.196228,-0.022644,-10.0,31.0,-39.0,1960.0,14770.0,-13360.0,883.0,8422.0,-8295.0,-170.0,1391.0,11769.0,0.131466,0.774825,-0.618199,-3620.0,32767.0,-29022.0,-221.0,723.0,-882.0
2865.0,2800.0,2899.0,3134.0,3035.0,0.443665,0.875977,-0.187439,-0.02417,-84.0,45.0,-53.0,1100.0,14609.0,-13330.0,84.0,8167.0,-8373.0,-681.0,2025.0,11498.0,0.123975,0.78634,-0.605046,-1938.0,25228.0,-25572.0,-1913.0,1035.0,-1211.0
2870.0,2803.0,2885.0,3133.0,3039.0,0.465332,0.867615,-0.173218,-0.02533,-112.0,37.0,-24.0,206.0,11110.0,-12258.0,-754.0,4423.0,-7624.0,-368.0,4091.0,7833.0,0.117255,0.816233,-0.565584,-2056.0,10744.0,-20018.0,-2565.0,869.0,-542.0
2863.0,2791.0,2887.0,3126.0,3057.0,0.47937,0.860901,-0.168091,-0.026062,-56.0,15.0,-9.0,388.0,8035.0,-9921.0,-564.0,1201.0,-5506.0,285.0,4092.0,3903.0,0.116282,0.834142,-0.53893,3538.0,8606.0,-11822.0,-1265.0,357.0,-188.0
2853.0,2805.0,2891.0,3167.0,3006.0,0.48175,0.859985,-0.16626,-0.024658,-18.0,20.0,-10.0,848.0,7193.0,-8432.0,-116.0,337.0,-4053.0,623.0,3199.0,2434.0,0.11778,0.836796,-0.534526,4552.0,10254.0,-7848.0,-397.0,461.0,-227.0
2861.0,2798.0,2897.0,3151.0,3037.0,0.481262,0.861023,-0.16333,-0.017578,21.0,31.0,2.0,1798.0,7622.0,-5750.0,758.0,785.0,-1358.0,764.0,512.0,1479.0,0.126939,0.834498,-0.536115,5476.0,18788.0,-4566.0,500.0,711.0,62.0
2850.0,2803.0,2897.0,3135.0,3057.0,0.481262,0.861267,-0.162537,-0.012634,18.0,34.0,13.0,1843.0,8309.0,-4921.0,739.0,1484.0,-526.0,395.0,-500.0,1618.0,0.134682,0.833098,-0.536426,3522.0,20766.0,-5530.0,415.0,788.0,312.0
2869.0,2798.0,2894.0,3127.0,3043.0,0.484497,0.858765,-0.166443,-0.002014,-11.0,28.0,58.0,1351.0,9634.0,-4561.0,58.0,2811.0,-215.0,-707.0,-1173.0,2464.0,0.157823,0.832808,-0.530438,966.0,23346.0,-9404.0,-238.0,644.0,1330.0
2859.0,2811.0,2873.0,3163.0,3039.0,0.488708,0.855103,-0.172852,0.004089,-34.0,24.0,88.0,979.0,10392.0,-4779.0,-462.0,3556.0,-500.0,-1418.0,-1091.0,3146.0,0.175942,0.834378,-0.522225,-334.0,25470.0,-11286.0,-770.0,560.0,2036.0
2863.0,2801.0,2899.0,3135.0,3031.0,0.505432,0.84021,-0.195312,0.018494,-97.0,22.0,149.0,840.0,11769.0,-5464.0,-1031.0,4870.0,-1463.0,-2397.0,-437.0,4579.0,0.228512,0.842114,-0.488296,1888.0,27490.0,-12832.0,-2215.0,521.0,3418.0
2865.0,2803.0,2881.0,3142.0,3057.0,0.534058,0.813477,-0.227234,0.036438,-161.0,26.0,188.0,882.0,12279.0,-5791.0,-1591.0,5296.0,-2294.0,-3165.0,829.0,5012.0,0.301995,0.852327,-0.426834,1552.0,24670.0,-12386.0,-3673.0,614.0,4325.0
2865.0,2793.0,2901.0,3121.0,3047.0,0.551086,0.796265,-0.245178,0.045593,-184.0,25.0,202.0,844.0,11967.0,-5956.0,-1964.0,4960.0,-2774.0,-3357.0,1814.0,4646.0,0.342837,0.855264,-0.388375,1470.0,21270.0,-12890.0,-4203.0,577.0,4629.0
2869.0,2802.0,2887.0,3135.0,3038.0,0.5849,0.755615,-0.287598,0.064575,-205.0,7.0,245.0,875.0,10585.0,-5909.0,-2680.0,3648.0,-3390.0,-3265.0,3536.0,2967.0,0.43402,0.846775,-0.307389,2120.0,16792.0,-10654.0,-4689.0,168.0,5618.0
2867.0,2800.0,2877.0,3151.0,3007.0,0.614319,0.706421,-0.341125,0.084534,-206.0,-26.0,293.0,718.0,9062.0,-5063.0,-3693.0,2424.0,-3171.0,-3250.0,4301.0,707.0,0.538552,0.810262,-0.230863,968.0,14008.0,-7078.0,-4706.0,-587.0,6725.0
2863.0,2805.0,2929.0,3167.0,3021.0,0.626099,0.67865,-0.372192,0.094116,-208.0,-49.0,315.0,887.0,8455.0,-4322.0,-3977.0,2067.0,-2698.0,-3179.0,4148.0,-214.0,0.593802,0.779745,-0.198236,3438.0,13294.0,-3686.0,-4747.0,-1109.0,7235.0
2845.0,2774.0,2885.0,3127.0,3058.0,0.645508,0.613403,-0.440369,0.114441,-221.0,-69.0,353.0,2415.0,7237.0,-2262.0,-3392.0,1575.0,-1111.0,-2595.0,2671.0,-1160.0,0.70892,0.691121,-0.140411,11088.0,10748.0,1780.0,-5055.0,-1573.0,8103.0
2859.0,2779.0,2855.0,3139.0,3031.0,0.661682,0.534485,-0.507202,0.138672,-238.0,-45.0,367.0,4375.0,5652.0,-720.0,-2337.0,1010.0,-16.0,-1769.0,1245.0,-1341.0,0.819449,0.566649,-0.085875,13588.0,6000.0,1524.0,-5434.0,-1018.0,8424.0
2863.0,2769.0,2903.0,3127.0,3047.0,0.668762,0.491516,-0.536865,0.151306,-245.0,-27.0,359.0,5026.0,4557.0,-440.0,-2074.0,502.0,48.0,-1177.0,871.0,-1552.0,0.866809,0.494953,-0.059676,13660.0,2024.0,352.0,-5610.0,-610.0,8245.0
2862.0,2771.0,2895.0,3139.0,3035.0,0.681396,0.403931,-0.585327,0.172852,-250.0,8.0,298.0,5526.0,1405.0,-1305.0,-2152.0,-1446.0,-1210.0,1271.0,533.0,-2506.0,0.93732,0.348124,-0.011589,12290.0,-8136.0,-6956.0,-5705.0,194.0,6834.0
2851.0,2768.0,2921.0,3121.0,3015.0,0.68689,0.36438,-0.602783,0.179016,-235.0,21.0,230.0,5705.0,-512.0,-1920.0,-2147.0,-2844.0,-1983.0,2883.0,-70.0,-2883.0,0.958551,0.284762,0.007744,12282.0,-12482.0,-7198.0,-5365.0,492.0,5283.0
2875.0,2737.0,2907.0,3135.0,3043.0,0.697449,0.308289,-0.622253,0.176819,-171.0,20.0,46.0,5126.0,-4596.0,-3306.0,-2877.0,-6316.0,-3596.0,6241.0,-1988.0,-4264.0,0.977002,0.209979,0.035458,6566.0,-21262.0,-10942.0,-3902.0,466.0,1055.0
2851.0,2735.0,2870.0,3167.0,2999.0,0.701782,0.297913,-0.628052,0.155823,-44.0,-21.0,-147.0,3919.0,-7773.0,-3720.0,-4062.0,-9594.0,-3995.0,8179.0,-4340.0,-6225.0,0.974354,0.22241,0.033578,4706.0,-21870.0,-6630.0,-991.0,-467.0,-3364.0
2847.0,2746.0,2861.0,3147.0,3015.0,0.699036,0.336731,-0.619385,0.119263,54.0,-50.0,-307.0,3949.0,-7325.0,-2599.0,-3802.0,-9971.0,-2646.0,7124.0,-4836.0,-6834.0,0.946263,0.323035,0.005849,10692.0,-9004.0,-32.0,1254.0,-1141.0,-7014.0
2855.0,2753.0,2895.0,3126.0,3055.0,0.697449,0.367859,-0.607727,0.094299,70.0,-39.0,-368.0,4771.0,-5951.0,-1564.0,-2741.0,-9215.0,-1487.0,5822.0,-4758.0,-6172.0,0.917095,0.398509,-0.009325,15076.0,-3054.0,3234.0,1626.0,-876.0,-8421.0
2873.0,2749.0,2864.0,3123.0,3051.0,0.697998,0.437195,-0.565857,0.037476,77.0,26.0,-435.0,6686.0,-3286.0,356.0,-53.0,-7938.0,542.0,3913.0,-5211.0,-4563.0,0.822702,0.567911,-0.022728,18024.0,-134.0,5268.0,1766.0,614.0,-9959.0
2853.0,2736.0,2915.0,3151.0,3035.0,0.697449,0.505737,-0.507568,-0.011719,115.0,72.0,-408.0,6067.0,-1917.0,1042.0,364.0,-7793.0,1261.0,3142.0,-4871.0,-5370.0,0.696153,0.717348,-0.026824,5846.0,1676.0,2972.0,2645.0,1663.0,-9328.0
2869.0,2750.0,2907.0,3139.0,3037.0,0.692749,0.53949,-0.477478,-0.031372,135.0,68.0,-369.0,4445.0,-383.0,1047.0,-697.0,-6751.0,1359.0,1861.0,-3393.0,-5737.0,0.627695,0.777421,-0.038149,-1760.0,9870.0,1872.0,3114.0,1572.0,-8439.0
2865.0,2745.0,2897.0,3127.0,3023.0,0.676636,0.595581,-0.427917,-0.065125,109.0,22.0,-238.0,1124.0,4772.0,696.0,-2984.0,-2287.0,1316.0,-1765.0,151.0,-3566.0,0.501515,0.861719,-0.075753,-6360.0,25938.0,-268.0,2503.0,506.0,-5438.0
2850.0,2742.0,2895.0,3142.0,3055.0,0.664001,0.624451,-0.401001,-0.091125,29.0,-12.0,-107.0,-1654.0,9839.0,-177.0,-5084.0,2446.0,654.0,-4715.0,3164.0,11.0,0.418724,0.902355,-0.101539,-11100.0,32767.0,-3316.0,686.0,-266.0,-2435.0
2861.0,2751.0,2899.0,3117.0,3025.0,0.661316,0.630249,-0.393555,-0.1026,-7.0,-19.0,-67.0,-2656.0,11575.0,-666.0,-5860.0,4084.0,187.0,-5514.0,4314.0,1422.0,0.391201,0.914345,-0.104234,-10584.0,32767.0,-4236.0,-138.0,-430.0,-1526.0
2862.0,2743.0,2879.0,3122.0,3043.0,0.663696,0.630127,-0.384338,-0.121216,-58.0,-8.0,-17.0,-3221.0,13585.0,-1389.0,-6148.0,5969.0,-655.0,-5647.0,5507.0,3410.0,0.357405,0.929602,-0.08959,-6152.0,29944.0,-4710.0,-1320.0,-172.0,-370.0
2849.0,2750.0,2896.0,3120.0,3039.0,0.671448,0.624329,-0.378418,-0.126953,-39.0,31.0,20.0,-2256.0,12418.0,-1941.0,-5120.0,4762.0,-1400.0,-3993.0,5227.0,2752.0,0.349655,0.934491,-0.066027,-956.0,18574.0,-5604.0,-877.0,718.0,465.0
2858.0,2749.0,2882.0,3127.0,3035.0,0.674744,0.622437,-0.376953,-0.123047,-22.0,42.0,42.0,-1707.0,11390.0,-2282.0,-4619.0,3749.0,-1797.0,-3113.0,5007.0,1960.0,0.355516,0.932736,-0.059101,42.0,16722.0,-6338.0,-500.0,967.0,974.0
2855.0,2743.0,2896.0,3143.0,3023.0,0.680115,0.619446,-0.377563,-0.105286,10.0,62.0,80.0,-214.0,9877.0,-2113.0,-3352.0,2323.0,-1681.0,-1993.0,3819.0,946.0,0.383135,0.922092,-0.052626,4006.0,16380.0,-3336.0,230.0,1421.0,1838.0
2855.0,2736.0,2886.0,3127.0,3051.0,0.686462,0.614441,-0.381226,-0.07666,9.0,76.0,119.0,759.0,9248.0,-1831.0,-2756.0,1858.0,-1456.0,-1698.0,3157.0,559.0,0.429188,0.902031,-0.045763,3166.0,17442.0,-3024.0,216.0,1752.0,2732.0
2855.0,2750.0,2882.0,3133.0,3025.0,0.690308,0.610291,-0.38385,-0.060547,3.0,77.0,131.0,972.0,9126.0,-1734.0,-2763.0,1842.0,-1409.0,-1786.0,3103.0,433.0,0.456047,0.889058,-0.039605,3242.0,17592.0,-3014.0,83.0,1784.0,3019.0
2861.0,2751.0,2883.0,3139.0,3039.0,0.698853,0.597229,-0.392578,-0.026978,-15.0,66.0,158.0,1539.0,8736.0,-1530.0,-2692.0,1724.0,-1352.0,-1816.0,2955.0,114.0,0.516485,0.855932,-0.021677,5058.0,16878.0,-1948.0,-323.0,1521.0,3625.0
2865.0,2763.0,2881.0,3143.0,3025.0,0.703247,0.588562,-0.39856,-0.009949,-18.0,61.0,164.0,1922.0,8590.0,-1216.0,-2574.0,1743.0,-1129.0,-1902.0,2704.0,55.0,0.548861,0.835739,-0.0106,6162.0,16236.0,-500.0,-402.0,1410.0,3775.0
2855.0,2755.0,2876.0,3151.0,3029.0,0.71167,0.567749,-0.412964,0.024414,-28.0,50.0,182.0,2771.0,8058.0,-639.0,-2271.0,1603.0,-755.0,-1878.0,2178.0,-145.0,0.61551,0.787936,0.014192,9266.0,14224.0,170.0,-638.0,1165.0,4186.0
2859.0,2767.0,2873.0,3141.0,3018.0,0.718933,0.541992,-0.430603,0.062439,-29.0,54.0,203.0,3838.0,7295.0,-332.0,-1788.0,1351.0,-672.0,-1492.0,1780.0,-275.0,0.686832,0.725539,0.041589,10534.0,12430.0,36.0,-652.0,1256.0,4665.0
2865.0,2783.0,2901.0,3131.0,3023.0,0.721802,0.528503,-0.439026,0.082886,-24.0,60.0,205.0,4285.0,6996.0,-205.0,-1624.0,1342.0,-662.0,-1397.0,1686.0,-282.0,0.72139,0.690171,0.055808,11198.0,12328.0,392.0,-545.0,1388.0,4711.0
2863.0,2775.0,2894.0,3119.0,3029.0,0.726196,0.50238,-0.452332,0.124817,-12.0,73.0,195.0,5343.0,6336.0,184.0,-1066.0,1283.0,-520.0,-1135.0,1324.0,-87.0,0.782374,0.616736,0.08595,14820.0,10238.0,1910.0,-255.0,1685.0,4471.0
2867.0,2771.0,2879.0,3151.0,3026.0,0.727905,0.489807,-0.456726,0.146912,-1.0,87.0,189.0,6104.0,5837.0,480.0,-521.0,1094.0,-363.0,-815.0,951.0,174.0,0.808823,0.57887,0.102919,16694.0,8510.0,2662.0,-15.0,1993.0,4343.0
2862.0,2807.0,2893.0,3153.0,3047.0,0.731079,0.467346,-0.457642,0.19397,23.0,124.0,168.0,7075.0,5006.0,715.0,108.0,862.0,-466.0,-331.0,806.0,460.0,0.850446,0.505797,0.144253,15780.0,7910.0,1638.0,535.0,2856.0,3864.0
2853.0,2771.0,2915.0,3139.0,3026.0,0.732788,0.45752,-0.454346,0.217285,27.0,134.0,155.0,7191.0,4674.0,730.0,107.0,798.0,-649.0,-230.0,941.0,360.0,0.864703,0.473085,0.168437,14874.0,7450.0,1478.0,627.0,3087.0,3573.0
2864.0,2782.0,2897.0,3150.0,3039.0,0.736938,0.437683,-0.44458,0.26001,10.0,134.0,135.0,6893.0,4197.0,879.0,-339.0,806.0,-935.0,-381.0,1209.0,-172.0,0.88286,0.413901,0.221465,12278.0,7386.0,2432.0,244.0,3084.0,3107.0
2871.0,2765.0,2895.0,3139.0,3043.0,0.739868,0.426697,-0.439697,0.277649,-9.0,125.0,122.0,6651.0,4175.0,1003.0,-620.0,1002.0,-1037.0,-643.0,1368.0,-420.0,0.88758,0.387236,0.24909,12050.0,8424.0,2870.0,-191.0,2881.0,2817.0
2843.0,2782.0,2889.0,3127.0,3023.0,0.748169,0.403076,-0.430542,0.303955,-42.0,110.0,87.0,6429.0,3866.0,1742.0,-855.0,1069.0,-750.0,-937.0,1080.0,-623.0,0.88927,0.341407,0.304309,12262.0,5838.0,5780.0,-947.0,2520.0,2012.0
2863.0,2778.0,2915.0,3120.0,3027.0,0.758911,0.376953,-0.422729,0.321228,-65.0,95.0,66.0,6199.0,2856.0,2188.0,-1041.0,393.0,-747.0,-472.0,654.0,-1069.0,0.883804,0.300563,0.35834,11794.0,2188.0,5612.0,-1473.0,2182.0,1529.0
2863.0,2805.0,2877.0,3151.0,3027.0,0.763977,0.363342,-0.420349,0.327942,-70.0,85.0,64.0,6126.0,2227.0,2441.0,-1087.0,-62.0,-692.0,-139.0,330.0,-1239.0,0.880584,0.27947,0.382496,11874.0,618.0,6478.0,-1593.0,1959.0,1470.0
2871.0,2781.0,2887.0,3135.0,3034.0,0.772827,0.337097,-0.415894,0.340759,-57.0,79.0,57.0,6063.0,869.0,3015.0,-1085.0,-1077.0,-481.0,610.0,-462.0,-1407.0,0.872566,0.237597,0.426777,11158.0,-2736.0,6974.0,-1298.0,1824.0,1313.0
2875.0,2800.0,2877.0,3119.0,3030.0,0.775879,0.325439,-0.413879,0.347473,-45.0,67.0,58.0,5793.0,167.0,3269.0,-1320.0,-1613.0,-380.0,913.0,-936.0,-1666.0,0.868404,0.217379,0.445519,10044.0,-3336.0,8946.0,-1017.0,1541.0,1336.0
2863.0,2807.0,2879.0,3138.0,3043.0,0.779724,0.306274,-0.409851,0.36084,-26.0,49.0,51.0,5099.0,-727.0,3998.0,-1947.0,-2216.0,95.0,977.0,-1903.0,-2032.0,0.860174,0.181838,0.476393,6810.0,-4366.0,9658.0,-584.0,1126.0,1169.0
2864.0,2807.0,2893.0,3151.0,3027.0,0.78064,0.298706,-0.408813,0.366333,-21.0,30.0,43.0,4640.0,-1130.0,4452.0,-2381.0,-2496.0,460.0,898.0,-2513.0,-2233.0,0.857124,0.16684,0.487244,6690.0,-4958.0,11710.0,-469.0,703.0,986.0
2878.0,2799.0,2901.0,3115.0,3055.0,0.781189,0.289062,-0.408386,0.373291,-5.0,-2.0,14.0,3727.0,-2211.0,4670.0,-3267.0,-3413.0,580.0,1284.0,-3464.0,-3000.0,0.853863,0.146731,0.499266,5026.0,-8058.0,9222.0,-94.0,-23.0,343.0
2871.0,2799.0,2902.0,3155.0,3043.0,0.777832,0.288086,-0.412964,0.375977,16.0,-41.0,-1.0,3113.0,-3184.0,4610.0,-3924.0,-4311.0,572.0,1827.0,-4171.0,-3682.0,0.85906,0.137635,0.492848,4168.0,-8328.0,8992.0,376.0,-926.0,-21.0
2865.0,2800.0,2918.0,3123.0,3023.0,0.775146,0.290955,-0.41687,0.375,20.0,-62.0,-18.0,2722.0,-3389.0,4572.0,-4359.0,-4522.0,614.0,1845.0,-4429.0,-4097.0,0.864487,0.138412,0.483042,3016.0,-7824.0,8840.0,465.0,-1410.0,-412.0
2865.0,2801.0,2863.0,3121.0,3039.0,0.769958,0.303101,-0.428284,0.363098,11.0,-110.0,-74.0,1734.0,-3596.0,4372.0,-5471.0,-4871.0,690.0,1663.0,-4866.0,-5260.0,0.879632,0.155732,0.449379,256.0,-7836.0,7786.0,255.0,-2516.0,-1680.0
2865.0,2815.0,2901.0,3135.0,3039.0,0.7677,0.312561,-0.436279,0.349976,3.0,-140.0,-115.0,1150.0,-3778.0,4062.0,-6129.0,-5207.0,590.0,1658.0,-4998.0,-6105.0,0.888641,0.174532,0.423812,-1326.0,-8846.0,5900.0,71.0,-3203.0,-2625.0
2871.0,2787.0,2879.0,3139.0,3035.0,0.761841,0.34552,-0.456116,0.303589,21.0,-215.0,-241.0,446.0,-4867.0,2448.0,-6965.0,-6911.0,-379.0,2775.0,-4708.0,-8156.0,0.904767,0.249519,0.345142,522.0,-14254.0,-1316.0,496.0,-4922.0,-5498.0
2859.0,2811.0,2893.0,3151.0,3039.0,0.746216,0.410156,-0.470398,0.231567,117.0,-264.0,-392.0,1228.0,-5543.0,460.0,-6079.0,-8772.0,-1350.0,4371.0,-3514.0,-9179.0,0.891994,0.394273,0.220959,5898.0,-10070.0,-4562.0,2687.0,-6038.0,-8975.0
2864.0,2801.0,2903.0,3159.0,3061.0,0.715271,0.508301,-0.458435,0.140808,225.0,-246.0,-525.0,3214.0,-3315.0,-368.0,-3331.0,-8214.0,-883.0,4136.0,-2006.0,-7629.0,0.798956,0.598043,0.062907,13466.0,3722.0,-1054.0,5158.0,-5616.0,-12014.0
2863.0,2789.0,2881.0,3135.0,3039.0,0.694763,0.563843,-0.436646,0.092896,264.0,-200.0,-576.0,3820.0,-684.0,-67.0,-2008.0,-6437.0,74.0,2755.0,-1566.0,-5950.0,0.711487,0.70235,-0.017253,9880.0,15994.0,1878.0,6048.0,-4581.0,-13181.0
2861.0,2775.0,2899.0,3120.0,3007.0,0.645752,0.672913,-0.360779,-0.00116,293.0,-91.0,-611.0,3975.0,4935.0,-191.0,170.0,-2191.0,1168.0,640.0,-1303.0,-2020.0,0.464387,0.869906,-0.165976,8276.0,25186.0,-2240.0,6715.0,-2068.0,-13989.0
2863.0,2797.0,2894.0,3121.0,3038.0,0.593506,0.754028,-0.27478,-0.059814,255.0,39.0,-418.0,2538.0,9283.0,-1775.0,604.0,1681.0,586.0,-312.0,-1041.0,1533.0,0.235964,0.927912,-0.288236,-4420.0,30564.0,-11438.0,5848.0,896.0,-9553.0
2864.0,2797.0,2895.0,3143.0,3043.0,0.570374,0.78186,-0.241211,-0.071106,220.0,71.0,-273.0,-159.0,11166.0,-3779.0,-1502.0,3578.0,-1001.0,-1984.0,713.0,3407.0,0.163971,0.926208,-0.339106,-18434.0,32767.0,-20920.0,5059.0,1628.0,-6243.0
2865.0,2800.0,2896.0,3143.0,3031.0,0.53363,0.815918,-0.206177,-0.083191,106.0,11.0,-67.0,-5844.0,13566.0,-8221.0,-6534.0,6151.0,-4808.0,-5700.0,4675.0,7019.0,0.08429,0.905101,-0.416549,-23326.0,32767.0,-27956.0,2445.0,257.0,-1521.0
2864.0,2801.0,2896.0,3152.0,3031.0,0.524841,0.820496,-0.206909,-0.092041,-42.0,-28.0,43.0,-5431.0,14862.0,-10249.0,-5972.0,7494.0,-6709.0,-4709.0,5403.0,9243.0,0.06615,0.899348,-0.432095,-3772.0,32767.0,-23348.0,-949.0,-635.0,1003.0
2865.0,2797.0,2895.0,3131.0,3024.0,0.531921,0.814209,-0.213196,-0.092896,-94.0,-17.0,66.0,-3820.0,15075.0,-10094.0,-4438.0,7654.0,-6679.0,-3333.0,4873.0,9381.0,0.075534,0.9058,-0.416819,2346.0,30098.0,-18248.0,-2148.0,-387.0,1531.0
2866.0,2801.0,2879.0,3129.0,3021.0,0.554443,0.797119,-0.222961,-0.085876,-111.0,33.0,66.0,-1169.0,13248.0,-8693.0,-2072.0,5693.0,-5659.0,-1142.0,4092.0,7117.0,0.110331,0.922209,-0.370329,4050.0,19096.0,-11944.0,-2533.0,756.0,1530.0
2861.0,2795.0,2901.0,3125.0,3039.0,0.575439,0.782532,-0.226196,-0.072388,-86.0,55.0,57.0,188.0,10854.0,-6731.0,-1016.0,3208.0,-4050.0,-256.0,3204.0,4169.0,0.147033,0.933347,-0.32715,3536.0,15340.0,-7936.0,-1958.0,1265.0,1324.0
2861.0,2795.0,2895.0,3147.0,3027.0,0.584656,0.775818,-0.228027,-0.064941,-79.0,50.0,64.0,720.0,9917.0,-5842.0,-638.0,2242.0,-3320.0,30.0,2711.0,3016.0,0.16587,0.93679,-0.30785,4690.0,14420.0,-6384.0,-1791.0,1157.0,1485.0
2865.0,2795.0,2896.0,3151.0,3039.0,0.601074,0.761414,-0.237854,-0.047791,-67.0,35.0,99.0,1841.0,8506.0,-4345.0,94.0,821.0,-2110.0,589.0,1709.0,1365.0,0.213159,0.938066,-0.272751,6898.0,13654.0,-4582.0,-1533.0,810.0,2274.0
2861.0,2803.0,2895.0,3149.0,3039.0,0.133606,0.499146,-0.226257,-1.21228,23133.0,19545.0,-31063.0,-10248.0,-4038.0,4044.0,-829.0,-9624.0,-5681.0,7314.0,13974.0,-12354.0,-1.14975,0.681952,1.187135,5986.0,15616.0,-2218.0,-1559.0,345.0,3224.0
2855.0,2791.0,2878.0,3127.0,3039.0,0.623474,0.733154,-0.270874,-0.017456,-73.0,4.0,159.0,2617.0,8019.0,-2365.0,59.0,452.0,-547.0,79.0,435.0,557.0,0.31217,0.923662,-0.221863,6582.0,15808.0,-482.0,-1671.0,99.0,3659.0
2863.0,2797.0,2895.0,3131.0,3038.0,0.638672,0.706848,-0.303894,0.003906,-89.0,-18.0,199.0,2534.0,7964.0,-1421.0,-691.0,586.0,86.0,-850.0,215.0,239.0,0.393699,0.900514,-0.184069,3868.0,15596.0,-1136.0,-2018.0,-405.0,4575.0
2864.0,2797.0,2896.0,3147.0,3037.0,0.645569,0.690979,-0.32489,0.013794,-99.0,-42.0,224.0,2411.0,7810.0,-1167.0,-1181.0,574.0,193.0,-1276.0,360.0,-43.0,0.438541,0.883186,-0.166056,4334.0,14734.0,-676.0,-2245.0,-943.0,5141.0
2855.0,2786.0,2895.0,3147.0,3035.0,0.657898,0.651123,-0.376831,0.032593,-125.0,-81.0,265.0,3045.0,7461.0,-361.0,-1364.0,643.0,720.0,-1643.0,72.0,-294.0,0.538277,0.832181,-0.132071,9506.0,13496.0,2200.0,-2848.0,-1834.0,6079.0
2863.0,2768.0,2889.0,3154.0,3043.0,0.669373,0.601257,-0.433228,0.051575,-144.0,-81.0,275.0,4464.0,6650.0,276.0,-795.0,422.0,1082.0,-1301.0,-445.0,-296.0,0.642001,0.760243,-0.098477,13088.0,10088.0,1694.0,-3278.0,-1833.0,6313.0
2859.0,2767.0,2896.0,3109.0,3043.0,0.674438,0.573975,-0.460327,0.061279,-149.0,-75.0,273.0,5056.0,6024.0,328.0,-606.0,143.0,1005.0,-985.0,-516.0,-399.0,0.69127,0.717804,-0.082726,13372.0,8010.0,598.0,-3410.0,-1700.0,6264.0
2862.0,2758.0,2895.0,3127.0,3038.0,0.681641,0.517395,-0.511108,0.079529,-151.0,-71.0,259.0,5708.0,4281.0,-99.0,-674.0,-831.0,375.0,-14.0,-387.0,-1065.0,0.77908,0.624059,-0.057971,12796.0,2870.0,-1802.0,-3454.0,-1624.0,5950.0
2863.0,2757.0,2895.0,3138.0,3043.0,0.683044,0.489441,-0.534912,0.087708,-144.0,-73.0,248.0,5919.0,3312.0,-342.0,-770.0,-1396.0,79.0,529.0,-454.0,-1435.0,0.816593,0.574788,-0.051441,13054.0,710.0,-1972.0,-3283.0,-1672.0,5689.0
2863.0,2755.0,2893.0,3135.0,3035.0,0.68103,0.43927,-0.576721,0.1026,-107.0,-70.0,198.0,6297.0,1605.0,-791.0,-876.0,-2326.0,-371.0,1486.0,-791.0,-1864.0,0.875667,0.479969,-0.051236,13688.0,-1338.0,-3630.0,-2434.0,-1591.0,4552.0
2861.0,2759.0,2896.0,3135.0,3031.0,0.675842,0.409058,-0.603638,0.1073,-66.0,-57.0,62.0,6576.0,925.0,-1239.0,-827.0,-2543.0,-719.0,1942.0,-854.0,-1778.0,0.903711,0.423376,-0.063431,13728.0,526.0,-4838.0,-1507.0,-1295.0,1424.0
2855.0,2750.0,2887.0,3131.0,3039.0,0.674011,0.405029,-0.609619,0.099976,-61.0,-57.0,-35.0,6577.0,716.0,-1560.0,-818.0,-2758.0,-975.0,2262.0,-852.0,-1838.0,0.902766,0.424095,-0.071398,12974.0,250.0,-4742.0,-1375.0,-1294.0,-783.0
2860.0,2743.0,2895.0,3131.0,3031.0,0.671387,0.422546,-0.605774,0.060547,-39.0,-65.0,-251.0,6141.0,89.0,-2112.0,-941.0,-3958.0,-1365.0,3145.0,-1235.0,-2644.0,0.864585,0.494029,-0.091081,11614.0,-3580.0,-6274.0,-873.0,-1485.0,-5740.0
2853.0,2751.0,2893.0,3133.0,3031.0,0.663086,0.472961,-0.580139,0.004272,48.0,-37.0,-395.0,7781.0,-1893.0,-1793.0,1445.0,-6990.0,-805.0,4963.0,-4138.0,-3135.0,0.773406,0.622271,-0.120553,22758.0,-8444.0,-88.0,1117.0,-843.0,-9037.0
2864.0,2753.0,2895.0,3135.0,3024.0,0.657715,0.506409,-0.557312,-0.019775,100.0,10.0,-425.0,8814.0,-2027.0,-1006.0,2972.0,-7664.0,92.0,5180.0,-5541.0,-3167.0,0.713076,0.688187,-0.134067,23234.0,-3296.0,2840.0,2305.0,242.0,-9719.0
2859.0,2759.0,2897.0,3142.0,3031.0,0.647583,0.579773,-0.491089,-0.058044,135.0,105.0,-439.0,8970.0,167.0,352.0,4310.0,-6451.0,1618.0,4252.0,-5971.0,-3010.0,0.568736,0.807912,-0.154572,14924.0,8414.0,4138.0,3096.0,2420.0,-10037.0
2855.0,2755.0,2928.0,3142.0,3039.0,0.095276,0.035706,-1.21228,-1.531372,-17013.0,-6919.0,8109.0,-10491.0,17840.0,5083.0,-11487.0,-12631.0,-2152.0,-23696.0,7330.0,15255.0,0.121645,3.719708,0.88328,-436.0,12964.0,-1894.0,2264.0,3465.0,-8313.0
2855.0,2751.0,2889.0,3139.0,3039.0,0.637085,0.666504,-0.374878,-0.096313,74.0,140.0,-290.0,3414.0,4074.0,-406.0,552.0,-3474.0,983.0,1100.0,-1430.0,-3175.0,0.349272,0.921451,-0.169607,-9000.0,15878.0,-5484.0,1706.0,3218.0,-6634.0
2845.0,2759.0,2897.0,3137.0,3027.0,0.63031,0.695618,-0.325623,-0.113037,20.0,56.0,-125.0,-2644.0,7372.0,-2234.0,-4718.0,-414.0,-760.0,-3036.0,3417.0,-1451.0,0.253225,0.950525,-0.179846,-22762.0,25896.0,-9740.0,471.0,1284.0,-2854.0
2855.0,2755.0,2895.0,3138.0,3027.0,0.629211,0.699646,-0.311462,-0.132446,-52.0,-37.0,-4.0,-6110.0,10408.0,-3154.0,-7802.0,2519.0,-1736.0,-5690.0,6050.0,1114.0,0.20662,0.962955,-0.173064,-18434.0,27458.0,-7818.0,-1173.0,-837.0,-77.0
2854.0,2751.0,2887.0,3135.0,3039.0,0.635132,0.688843,-0.316711,-0.147644,-66.0,-44.0,45.0,-6154.0,10975.0,-3155.0,-7783.0,3040.0,-1929.0,-5470.0,6385.0,1684.0,0.1989,0.968533,-0.149619,-9208.0,20822.0,-5660.0,-1495.0,-1004.0,1033.0
2859.0,2759.0,2896.0,3135.0,3039.0,0.638306,0.683594,-0.320557,-0.150024,-45.0,-21.0,50.0,-5282.0,10444.0,-2948.0,-6954.0,2507.0,-1800.0,-4724.0,5828.0,1261.0,0.204115,0.968866,-0.140116,-5082.0,17154.0,-4802.0,-1026.0,-464.0,1148.0
2855.0,2759.0,2897.0,3143.0,3025.0,0.642212,0.679016,-0.32489,-0.144348,-7.0,23.0,47.0,-3555.0,9521.0,-2505.0,-5367.0,1608.0,-1412.0,-3555.0,4520.0,553.0,0.221267,0.965939,-0.133344,-2120.0,17598.0,-2914.0,-143.0,542.0,1078.0
2859.0,2755.0,2902.0,3143.0,3019.0,0.646973,0.67749,-0.323303,-0.133606,-7.0,48.0,35.0,-2008.0,9192.0,-1808.0,-3951.0,1302.0,-766.0,-2869.0,3079.0,413.0,0.237303,0.963026,-0.127094,430.0,16978.0,-1822.0,-141.0,1116.0,805.0
2853.0,2755.0,2895.0,3147.0,3031.0,0.650635,0.676086,-0.321411,-0.127441,-16.0,54.0,37.0,-1329.0,8884.0,-1559.0,-3343.0,1005.0,-569.0,-2477.0,2514.0,213.0,0.24592,0.961693,-0.120831,1244.0,15824.0,-1778.0,-344.0,1253.0,858.0
2863.0,2751.0,2895.0,3139.0,3043.0,0.660095,0.670959,-0.318237,-0.113098,-26.0,60.0,50.0,-198.0,8150.0,-1324.0,-2396.0,303.0,-480.0,-1658.0,1794.0,-303.0,0.268365,0.957778,-0.102945,2910.0,13862.0,-2216.0,-586.0,1375.0,1152.0
2853.0,2753.0,2897.0,3131.0,3039.0,0.6698,0.664307,-0.318115,-0.093811,-17.0,67.0,75.0,1062.0,7047.0,-1279.0,-1407.0,-732.0,-582.0,-559.0,1181.0,-1069.0,0.301508,0.94959,-0.085068,5804.0,10510.0,-2686.0,-372.0,1540.0,1738.0
2862.0,2763.0,2902.0,3143.0,3043.0,0.673889,0.661072,-0.319763,-0.080688,-4.0,73.0,90.0,1597.0,6705.0,-1287.0,-1059.0,-1016.0,-642.0,-164.0,987.0,-1250.0,0.324288,0.942581,-0.078627,6532.0,12130.0,-2276.0,-87.0,1675.0,2082.0
2851.0,2759.0,2887.0,3143.0,3046.0,0.680664,0.655823,-0.322754,-0.048645,16.0,94.0,108.0,2125.0,6700.0,-1191.0,-951.0,-870.0,-628.0,-121.0,889.0,-1118.0,0.375569,0.924191,-0.068604,5444.0,14738.0,-2302.0,368.0,2164.0,2495.0
2851.0,2763.0,2886.0,3122.0,3027.0,0.683411,0.653687,-0.323547,-0.030823,19.0,99.0,112.0,2352.0,7052.0,-1161.0,-940.0,-430.0,-636.0,-270.0,931.0,-729.0,0.401935,0.913418,-0.063989,5870.0,16220.0,-2062.0,439.0,2288.0,2572.0
2855.0,2770.0,2887.0,3119.0,3039.0,0.689026,0.647888,-0.324524,0.005798,13.0,104.0,119.0,2315.0,7859.0,-1161.0,-1410.0,575.0,-749.0,-1029.0,1345.0,-92.0,0.454724,0.88906,-0.050285,2938.0,18382.0,-2672.0,300.0,2393.0,2736.0
2859.0,2791.0,2895.0,3135.0,3039.0,0.694092,0.640991,-0.325562,0.036255,-4.0,72.0,107.0,1519.0,8486.0,-1318.0,-2564.0,1390.0,-1041.0,-2241.0,2135.0,-38.0,0.498417,0.866207,-0.033782,1742.0,18106.0,-2340.0,-91.0,1669.0,2465.0
2855.0,2798.0,2883.0,3152.0,3039.0,0.696533,0.636475,-0.327637,0.048035,-12.0,55.0,101.0,1561.0,8567.0,-1128.0,-2678.0,1561.0,-923.0,-2481.0,2074.0,-28.0,0.517565,0.855176,-0.02498,3816.0,17410.0,-940.0,-265.0,1279.0,2325.0
2864.0,2787.0,2883.0,3149.0,3039.0,0.701294,0.625977,-0.334167,0.068176,-21.0,35.0,96.0,2198.0,8145.0,-818.0,-2340.0,1325.0,-760.0,-2185.0,1731.0,-188.0,0.554053,0.832423,-0.007053,7300.0,14448.0,-948.0,-479.0,817.0,2204.0
2859.0,2797.0,2893.0,3139.0,3019.0,0.703369,0.61969,-0.339417,0.07782,-26.0,27.0,103.0,2882.0,7896.0,-588.0,-1819.0,1187.0,-600.0,-1778.0,1381.0,-72.0,0.573919,0.818915,0.001565,10092.0,14402.0,476.0,-585.0,625.0,2362.0
2862.0,2794.0,2891.0,3143.0,3027.0,0.708252,0.60321,-0.352661,0.100464,-35.0,37.0,127.0,4715.0,7368.0,-49.0,-370.0,948.0,-241.0,-717.0,566.0,507.0,0.620748,0.783591,0.023481,15532.0,12876.0,1364.0,-797.0,857.0,2917.0
2863.0,2775.0,2885.0,3171.0,3029.0,0.711426,0.592834,-0.359253,0.115173,-39.0,56.0,139.0,5700.0,7108.0,110.0,393.0,875.0,-208.0,-157.0,326.0,912.0,0.647721,0.760763,0.038876,17234.0,12878.0,1072.0,-878.0,1296.0,3185.0
2865.0,2785.0,2896.0,3155.0,3031.0,0.720764,0.567688,-0.368225,0.15033,-57.0,105.0,150.0,7385.0,6571.0,96.0,1638.0,774.0,-594.0,842.0,462.0,1646.0,0.701488,0.707628,0.084241,19066.0,11662.0,-376.0,-1285.0,2413.0,3442.0
2874.0,2789.0,2910.0,3139.0,3031.0,0.727051,0.552856,-0.369873,0.169983,-64.0,128.0,150.0,7842.0,6308.0,-37.0,1896.0,752.0,-979.0,1116.0,852.0,1773.0,0.725785,0.678165,0.115041,17842.0,10964.0,-876.0,-1463.0,2946.0,3440.0
2864.0,2791.0,2909.0,3127.0,3043.0,0.741211,0.520691,-0.367798,0.210083,-73.0,155.0,145.0,8150.0,5670.0,-219.0,1891.0,612.0,-1752.0,1359.0,1713.0,1494.0,0.764008,0.617347,0.187134,16800.0,9172.0,-448.0,-1670.0,3553.0,3342.0
2871.0,2781.0,2915.0,3118.0,3045.0,0.755249,0.48468,-0.362549,0.251404,-80.0,165.0,156.0,7995.0,5386.0,56.0,1512.0,881.0,-2133.0,927.0,2348.0,1110.0,0.79133,0.549816,0.267248,15030.0,10864.0,1268.0,-1829.0,3794.0,3589.0
2871.0,2787.0,2870.0,3165.0,3035.0,0.762024,0.465088,-0.359436,0.271606,-89.0,164.0,158.0,7739.0,5493.0,316.0,1181.0,1285.0,-2214.0,393.0,2635.0,921.0,0.800439,0.513566,0.30895,13750.0,11716.0,2334.0,-2020.0,3779.0,3637.0
2859.0,2815.0,2893.0,3183.0,3031.0,0.775574,0.42395,-0.352356,0.307495,-103.0,155.0,139.0,6914.0,5347.0,992.0,300.0,1735.0,-2220.0,-542.0,2777.0,136.0,0.807281,0.440914,0.392179,11062.0,9230.0,4236.0,-2356.0,3563.0,3203.0
2853.0,2799.0,2893.0,3135.0,3035.0,0.78241,0.403198,-0.34845,0.322144,-108.0,146.0,122.0,6416.0,4945.0,1417.0,-178.0,1615.0,-2121.0,-760.0,2529.0,-403.0,0.805036,0.406431,0.431955,9768.0,7092.0,5534.0,-2465.0,3355.0,2804.0
2863.0,2790.0,2885.0,3117.0,3019.0,0.795532,0.363708,-0.34021,0.345032,-98.0,122.0,87.0,4950.0,3123.0,2468.0,-1540.0,305.0,-1659.0,-578.0,1036.0,-1951.0,0.792278,0.343917,0.503892,3008.0,-998.0,8392.0,-2226.0,2796.0,2010.0
2855.0,2774.0,2909.0,3141.0,3056.0,0.804138,0.331299,-0.335815,0.361694,-70.0,59.0,68.0,2944.0,840.0,4247.0,-3443.0,-1534.0,-298.0,-442.0,-1801.0,-3294.0,0.779742,0.289895,0.55493,-80.0,-5276.0,13540.0,-1601.0,1360.0,1573.0
2887.0,2783.0,2898.0,3183.0,3043.0,0.806091,0.318787,-0.336304,0.368042,-54.0,28.0,60.0,2273.0,-362.0,5023.0,-4090.0,-2544.0,349.0,-109.0,-3153.0,-3655.0,0.776837,0.266394,0.570513,1054.0,-8194.0,14758.0,-1219.0,651.0,1383.0
2863.0,2789.0,2879.0,3159.0,3027.0,0.804993,0.303345,-0.34137,0.378723,-10.0,-23.0,43.0,1572.0,-2747.0,5891.0,-4812.0,-4629.0,1115.0,1114.0,-5219.0,-4164.0,0.779367,0.229811,0.582893,2876.0,-12286.0,13352.0,-214.0,-521.0,998.0
2855.0,2795.0,2890.0,3159.0,3055.0,0.801575,0.300964,-0.345947,0.383545,20.0,-40.0,38.0,1901.0,-3715.0,6066.0,-4533.0,-5493.0,1319.0,1980.0,-5710.0,-3988.0,0.785472,0.217118,0.57937,6164.0,-12652.0,12822.0,464.0,-898.0,884.0
2861.0,2799.0,2896.0,3114.0,3058.0,0.791077,0.307251,-0.353455,0.393494,67.0,-54.0,21.0,2511.0,-4159.0,5992.0,-4050.0,-5862.0,1393.0,2696.0,-5646.0,-3681.0,0.801022,0.207954,0.561306,5726.0,-7288.0,11980.0,1551.0,-1229.0,486.0
2863.0,2771.0,2893.0,3143.0,3031.0,0.781067,0.324707,-0.358337,0.39502,71.0,-87.0,-29.0,1743.0,-3059.0,5827.0,-4944.0,-4895.0,1466.0,1584.0,-5393.0,-4352.0,0.816302,0.224135,0.532266,-332.0,-1574.0,11192.0,1639.0,-1975.0,-649.0
2867.0,2783.0,2895.0,3147.0,3047.0,0.777527,0.336609,-0.362122,0.388489,55.0,-118.0,-67.0,952.0,-2301.0,5698.0,-5803.0,-4284.0,1511.0,647.0,-5326.0,-5050.0,0.824656,0.242085,0.511034,-3028.0,-276.0,10448.0,1266.0,-2700.0,-1533.0
2855.0,2787.0,2896.0,3135.0,3029.0,0.773376,0.367859,-0.37677,0.352905,26.0,-205.0,-176.0,-688.0,-2002.0,4362.0,-7589.0,-4484.0,713.0,-83.0,-4787.0,-7434.0,0.842409,0.303059,0.445377,-5000.0,-5888.0,2346.0,603.0,-4695.0,-4030.0
2871.0,2811.0,2869.0,3127.0,3055.0,0.764282,0.41748,-0.398926,0.286926,63.0,-279.0,-302.0,45.0,-3347.0,2015.0,-6912.0,-6699.0,-713.0,1860.0,-3371.0,-8849.0,0.849356,0.409221,0.333022,5616.0,-10778.0,-2264.0,1448.0,-6378.0,-6899.0
2859.0,2798.0,2893.0,3139.0,3055.0,0.070129,-1.21228,-0.577393,0.447083,-19521.0,-13878.0,-31501.0,-15341.0,19022.0,23267.0,-7124.0,24644.0,-29177.0,-5298.0,32413.0,-28674.0,-1.002994,-0.686317,-1.598205,10718.0,-6958.0,-1004.0,3631.0,-6167.0,-9797.0
2864.0,2779.0,2867.0,3157.0,3035.0,0.709351,0.585449,-0.376648,0.110168,266.0,-195.0,-506.0,3357.0,-1443.0,259.0,-2077.0,-7567.0,7.0,3079.0,-1610.0,-7034.0,0.663347,0.747588,0.030701,6166.0,9620.0,168.0,6104.0,-4457.0,-11576.0
2851.0,2799.0,2883.0,3151.0,3047.0,0.685913,0.635742,-0.347961,0.065125,293.0,-160.0,-528.0,2218.0,1383.0,-537.0,-2370.0,-5390.0,-123.0,1138.0,-37.0,-5777.0,0.560147,0.826806,-0.050527,-3220.0,21544.0,-7364.0,6733.0,-3646.0,-12093.0
2855.0,2799.0,2894.0,3131.0,3053.0,0.63208,0.721436,-0.281799,-0.021484,240.0,-104.0,-460.0,2299.0,7833.0,-2065.0,-365.0,262.0,-427.0,-240.0,531.0,208.0,0.32524,0.924119,-0.199893,9910.0,32767.0,-7780.0,5519.0,-2361.0,-10523.0
2859.0,2806.0,2907.0,3149.0,3025.0,0.595764,0.767212,-0.229553,-0.060913,130.0,29.0,-214.0,1011.0,11766.0,-4245.0,-463.0,4048.0,-1929.0,-834.0,1158.0,4275.0,0.180053,0.94212,-0.282663,-11498.0,32767.0,-19274.0,2984.0,677.0,-4882.0
2854.0,2783.0,2897.0,3149.0,3039.0,0.584167,0.780396,-0.212097,-0.068298,80.0,38.0,-116.0,-1978.0,12991.0,-6673.0,-3134.0,5284.0,-4149.0,-2679.0,3748.0,5806.0,0.141201,0.940735,-0.308086,-22348.0,32767.0,-28564.0,1844.0,877.0,-2637.0
2864.0,2800.0,2873.0,3135.0,3051.0,0.572937,0.791199,-0.198608,-0.079102,-25.0,-5.0,-5.0,-4595.0,14551.0,-10043.0,-5433.0,6866.0,-7332.0,-3885.0,6800.0,8310.0,0.10241,0.938035,-0.330927,-8880.0,32767.0,-25002.0,-562.0,-93.0,-107.0
2855.0,2789.0,2879.0,3141.0,3051.0,0.583862,0.782593,-0.199707,-0.081848,-96.0,8.0,29.0,-2542.0,14299.0,-9240.0,-3402.0,6544.0,-6743.0,-2068.0,5770.0,7891.0,0.105095,0.946544,-0.30474,2416.0,23810.0,-12440.0,-2182.0,191.0,668.0
2855.0,2799.0,2895.0,3135.0,3039.0,0.593018,0.775574,-0.200745,-0.080078,-95.0,20.0,32.0,-1308.0,13037.0,-7879.0,-2240.0,5238.0,-5554.0,-1151.0,4709.0,6307.0,0.113877,0.952008,-0.283731,4758.0,17776.0,-7004.0,-2162.0,461.0,738.0
2858.0,2805.0,2895.0,3139.0,3043.0,0.607727,0.765015,-0.200867,-0.070984,-46.0,42.0,25.0,897.0,10204.0,-4893.0,-213.0,2353.0,-2834.0,285.0,2213.0,2938.0,0.135537,0.958357,-0.251224,7568.0,13256.0,-1452.0,-1037.0,967.0,579.0
2855.0,2783.0,2897.0,3135.0,3031.0,0.615906,0.760071,-0.19873,-0.058533,-13.0,47.0,17.0,2189.0,8734.0,-2651.0,912.0,873.0,-730.0,876.0,183.0,1150.0,0.15582,0.959528,-0.234435,7020.0,14408.0,166.0,-284.0,1085.0,406.0
2854.0,2787.0,2903.0,3143.0,3051.0,0.61853,0.758728,-0.197266,-0.052429,-6.0,44.0,16.0,2457.0,8365.0,-1989.0,1109.0,506.0,-110.0,933.0,-382.0,693.0,0.164471,0.959277,-0.229253,6214.0,14792.0,-470.0,-128.0,1026.0,372.0
2864.0,2798.0,2883.0,3159.0,3035.0,0.62262,0.756409,-0.195984,-0.041138,-7.0,35.0,26.0,2686.0,8178.0,-1437.0,1196.0,329.0,375.0,904.0,-811.0,449.0,0.181813,0.958034,-0.221216,5666.0,16612.0,-2280.0,-146.0,819.0,609.0
2851.0,2775.0,2871.0,3139.0,3047.0,0.624817,0.754639,-0.19696,-0.035156,-13.0,32.0,39.0,2673.0,8365.0,-1482.0,1091.0,526.0,292.0,782.0,-718.0,650.0,0.193068,0.956871,-0.216641,5154.0,18108.0,-3462.0,-278.0,753.0,903.0
2865.0,2799.0,2906.0,3127.0,3059.0,0.631348,0.747864,-0.203796,-0.021301,-36.0,26.0,77.0,2302.0,9066.0,-1943.0,454.0,1258.0,-290.0,150.0,-29.0,1359.0,0.225472,0.953006,-0.20178,2744.0,20544.0,-5696.0,-811.0,606.0,1774.0
2860.0,2794.0,2877.0,3155.0,3039.0,0.636108,0.742188,-0.210388,-0.013916,-53.0,17.0,98.0,2031.0,9450.0,-2210.0,7.0,1666.0,-651.0,-296.0,438.0,1708.0,0.247003,0.950079,-0.190278,2592.0,21044.0,-5916.0,-1198.0,399.0,2257.0
2867.0,2815.0,2898.0,3139.0,3039.0,0.648743,0.725037,-0.231079,0.002625,-81.0,3.0,144.0,1900.0,9748.0,-2397.0,-587.0,2051.0,-1101.0,-892.0,1126.0,1922.0,0.303627,0.939511,-0.158202,3498.0,20190.0,-4878.0,-1841.0,78.0,3307.0
2855.0,2797.0,2883.0,3154.0,3030.0,0.111694,0.602051,-0.144775,-1.21228,-30930.0,14176.0,18538.0,26379.0,-24490.0,-7989.0,-27465.0,-28467.0,-16989.0,-12294.0,-5787.0,6716.0,-1.427367,0.485508,1.098674,3356.0,19880.0,-3386.0,-2574.0,-438.0,4483.0
2864.0,2790.0,2891.0,3143.0,3045.0,0.673157,0.682434,-0.282959,0.031799,-130.0,-34.0,218.0,1789.0,9832.0,-1947.0,-1687.0,2452.0,-1196.0,-2061.0,1862.0,1602.0,0.424353,0.900774,-0.091631,3690.0,19020.0,-2078.0,-2972.0,-773.0,5016.0
2861.0,2775.0,2901.0,3135.0,3039.0,0.690979,0.640381,-0.331177,0.05188,-156.0,-59.0,257.0,2501.0,9275.0,-874.0,-1792.0,2306.0,-549.0,-2317.0,1538.0,1044.0,0.524118,0.850617,-0.039622,8100.0,17036.0,2534.0,-3573.0,-1332.0,5902.0
2863.0,2799.0,2896.0,3131.0,3035.0,0.708618,0.587219,-0.383911,0.075195,-181.0,-54.0,285.0,3669.0,8592.0,225.0,-1511.0,2247.0,97.0,-2345.0,1105.0,786.0,0.632405,0.774492,0.01558,10830.0,14340.0,2802.0,-4124.0,-1226.0,6543.0
2864.0,2770.0,2903.0,3119.0,3039.0,0.716675,0.557068,-0.410156,0.088196,-188.0,-48.0,294.0,4162.0,7841.0,398.0,-1459.0,1892.0,46.0,-2071.0,1130.0,374.0,0.686159,0.726125,0.042849,11100.0,10608.0,1392.0,-4285.0,-1081.0,6757.0
2863.0,2773.0,2879.0,3143.0,3027.0,0.728088,0.493042,-0.461304,0.117859,-175.0,-37.0,306.0,4885.0,5444.0,304.0,-1569.0,453.0,-417.0,-909.0,1009.0,-997.0,0.787959,0.609219,0.088112,11086.0,2758.0,12.0,-4000.0,-826.0,7010.0
2864.0,2751.0,2917.0,3131.0,3029.0,0.730469,0.461182,-0.485413,0.134521,-157.0,-35.0,304.0,5025.0,4120.0,96.0,-1800.0,-329.0,-750.0,-235.0,878.0,-1756.0,0.833235,0.543161,0.103367,10854.0,468.0,-1194.0,-3579.0,-789.0,6976.0
2864.0,2757.0,2903.0,3123.0,3015.0,0.729309,0.401611,-0.528015,0.167297,-125.0,-27.0,265.0,5905.0,1911.0,43.0,-1505.0,-1440.0,-938.0,976.0,91.0,-2062.0,0.904549,0.409126,0.119789,15352.0,-2008.0,182.0,-2843.0,-609.0,6088.0
2863.0,2730.0,2891.0,3103.0,3055.0,0.72821,0.375427,-0.544128,0.180603,-115.0,-15.0,218.0,6499.0,1087.0,40.0,-1103.0,-1782.0,-991.0,1469.0,-266.0,-1772.0,0.928087,0.350238,0.125887,16336.0,-2622.0,14.0,-2620.0,-332.0,5008.0
2850.0,2727.0,2847.0,3123.0,3055.0,0.72937,0.337341,-0.562988,0.193054,-95.0,1.0,81.0,6617.0,-42.0,-96.0,-1177.0,-2292.0,-1230.0,2022.0,-611.0,-1919.0,0.951504,0.274719,0.138496,11404.0,-2456.0,-730.0,-2170.0,25.0,1857.0
2855.0,2731.0,2881.0,3119.0,3023.0,0.733276,0.32312,-0.570312,0.18042,-69.0,-26.0,-62.0,5805.0,-1445.0,-213.0,-2001.0,-3641.0,-1364.0,2718.0,-1508.0,-3074.0,0.952988,0.268081,0.140583,9954.0,-8494.0,-288.0,-1563.0,-584.0,-1419.0
2850.0,2763.0,2877.0,3135.0,3047.0,0.734192,0.325134,-0.571655,0.168457,-38.0,-39.0,-114.0,5657.0,-2434.0,-92.0,-2116.0,-4767.0,-1197.0,3212.0,-2423.0,-3527.0,0.948952,0.284823,0.134913,10576.0,-10870.0,558.0,-856.0,-886.0,-2597.0
2859.0,2739.0,2907.0,3127.0,3059.0,0.733154,0.348145,-0.567627,0.138062,25.0,-50.0,-211.0,5359.0,-2954.0,404.0,-2246.0,-5851.0,-523.0,3168.0,-3427.0,-4214.0,0.928447,0.353752,0.113171,9212.0,-4300.0,2244.0,587.0,-1139.0,-4832.0
2855.0,2745.0,2903.0,3143.0,3063.0,0.730652,0.392944,-0.55127,0.088501,32.0,-62.0,-326.0,4806.0,-617.0,1238.0,-2363.0,-4521.0,554.0,1245.0,-2708.0,-4176.0,0.875124,0.476635,0.083381,8708.0,7656.0,5400.0,733.0,-1402.0,-7455.0
2859.0,2727.0,2907.0,3127.0,3039.0,0.72937,0.420105,-0.53717,0.05426,25.0,-58.0,-384.0,5222.0,244.0,1629.0,-1570.0,-4298.0,1056.0,846.0,-2879.0,-3611.0,0.829182,0.55453,0.069885,14162.0,4088.0,5568.0,583.0,-1314.0,-8781.0
2855.0,2746.0,2879.0,3135.0,3025.0,0.725525,0.477478,-0.495361,-0.013977,60.0,9.0,-433.0,7119.0,223.0,2398.0,1339.0,-5566.0,1962.0,1764.0,-5018.0,-2884.0,0.705446,0.706692,0.053214,17904.0,-98.0,5734.0,1386.0,216.0,-9906.0
2857.0,2757.0,2903.0,3123.0,3031.0,0.71698,0.541016,-0.434143,-0.068542,119.0,84.0,-426.0,6462.0,514.0,1887.0,1969.0,-6328.0,1579.0,2458.0,-4813.0,-4146.0,0.548379,0.835309,0.03758,8688.0,3152.0,1742.0,2730.0,1935.0,-9752.0
2851.0,2754.0,2901.0,3151.0,3055.0,0.709106,0.574219,-0.399475,-0.088501,148.0,111.0,-393.0,5458.0,1055.0,1396.0,1649.0,-6195.0,1221.0,2345.0,-3883.0,-4690.0,0.464903,0.885072,0.021357,4390.0,5738.0,-732.0,3405.0,2554.0,-8980.0
2846.0,2771.0,2910.0,3139.0,3053.0,0.686829,0.633484,-0.339783,-0.106934,164.0,111.0,-218.0,1988.0,4243.0,-363.0,-725.0,-3480.0,-87.0,498.0,-119.0,-3518.0,0.331264,0.942858,-0.033586,-10446.0,22182.0,-6346.0,3759.0,2559.0,-4981.0
2855.0,2767.0,2899.0,3153.0,3051.0,-0.066956,0.424927,-0.076782,-1.21228,-22407.0,-13599.0,19723.0,22112.0,5490.0,210.0,30636.0,4431.0,-10338.0,-29998.0,-6804.0,20919.0,-1.040543,0.129261,1.287648,-22404.0,32767.0,-7246.0,1926.0,504.0,-1602.0
2843.0,2747.0,2883.0,3123.0,3035.0,0.660339,0.676208,-0.302612,-0.122864,19.0,-24.0,-23.0,-5223.0,11296.0,-2177.0,-7135.0,3370.0,-1376.0,-5666.0,5390.0,1728.0,0.233491,0.967414,-0.097689,-16744.0,32767.0,-5364.0,440.0,-539.0,-509.0
2861.0,2765.0,2887.0,3126.0,3035.0,0.66449,0.667908,-0.305725,-0.137329,-88.0,-45.0,39.0,-5275.0,13119.0,-2451.0,-7100.0,5159.0,-1802.0,-5607.0,6005.0,3572.0,0.222856,0.971606,-0.079163,-8366.0,26638.0,-6216.0,-2013.0,-1019.0,901.0
2851.0,2736.0,2887.0,3119.0,3047.0,0.675781,0.651855,-0.312683,-0.143555,-69.0,-12.0,47.0,-3515.0,10994.0,-2684.0,-5443.0,3041.0,-2312.0,-3394.0,5435.0,1775.0,0.235457,0.970798,-0.045398,-878.0,13204.0,-6036.0,-1564.0,-262.0,1087.0
2855.0,2763.0,2911.0,3127.0,3030.0,0.679321,0.647278,-0.315369,-0.141785,-41.0,4.0,46.0,-2501.0,9797.0,-2699.0,-4507.0,1860.0,-2397.0,-2363.0,4828.0,786.0,0.244925,0.968848,-0.036846,1222.0,13082.0,-4884.0,-929.0,112.0,1061.0
2859.0,2766.0,2907.0,3151.0,3037.0,0.683838,0.644104,-0.316406,-0.131836,0.0,43.0,34.0,-482.0,8681.0,-1864.0,-2635.0,781.0,-1618.0,-1218.0,2945.0,108.0,0.262909,0.964353,-0.029968,4430.0,15776.0,-1014.0,18.0,995.0,784.0
2855.0,2752.0,2897.0,3118.0,3037.0,0.686218,0.64386,-0.314575,-0.124756,1.0,56.0,33.0,178.0,8540.0,-1449.0,-2042.0,658.0,-1227.0,-1001.0,2256.0,112.0,0.271084,0.962147,-0.027054,3762.0,16426.0,-544.0,23.0,1305.0,769.0
2847.0,2751.0,2910.0,3135.0,3023.0,0.693359,0.641541,-0.309387,-0.109131,-15.0,65.0,46.0,690.0,8469.0,-982.0,-1677.0,627.0,-862.0,-979.0,1724.0,128.0,0.289009,0.957164,-0.014638,2228.0,16616.0,-1042.0,-338.0,1493.0,1059.0
2853.0,2750.0,2903.0,3135.0,3027.0,0.697754,0.638977,-0.3078,-0.100647,-21.0,62.0,59.0,781.0,8351.0,-907.0,-1684.0,538.0,-857.0,-988.0,1697.0,11.0,0.300916,0.953656,-0.006042,2034.0,15818.0,-1478.0,-462.0,1425.0,1363.0
2854.0,2766.0,2909.0,3135.0,3039.0,0.706421,0.63092,-0.31073,-0.079285,-17.0,53.0,104.0,1216.0,7840.0,-730.0,-1560.0,134.0,-817.0,-836.0,1500.0,-411.0,0.338968,0.940663,0.010703,4362.0,13908.0,-362.0,-380.0,1230.0,2398.0
2855.0,2767.0,2891.0,3151.0,3035.0,0.713867,0.619873,-0.321838,-0.049744,-11.0,48.0,147.0,1580.0,8133.0,-432.0,-1679.0,620.0,-630.0,-1197.0,1466.0,-114.0,0.39783,0.917033,0.024258,4594.0,17708.0,1122.0,-236.0,1116.0,3376.0
2853.0,2749.0,2893.0,3133.0,3039.0,0.717651,0.612976,-0.328796,-0.033142,-14.0,50.0,161.0,1762.0,8259.0,-244.0,-1771.0,873.0,-508.0,-1434.0,1448.0,6.0,0.431292,0.9016,0.032275,4722.0,17214.0,188.0,-300.0,1150.0,3705.0
2859.0,2763.0,2895.0,3131.0,3031.0,0.725342,0.595032,-0.345947,0.002502,-27.0,45.0,189.0,2216.0,8618.0,105.0,-1919.0,1560.0,-324.0,-1945.0,1518.0,358.0,0.504838,0.861471,0.052385,5540.0,18192.0,1310.0,-616.0,1034.0,4330.0
2859.0,2777.0,2895.0,3135.0,3038.0,0.729309,0.584106,-0.355591,0.020935,-34.0,42.0,197.0,2476.0,8720.0,268.0,-1973.0,1862.0,-262.0,-2173.0,1576.0,470.0,0.543128,0.8371,0.064705,6734.0,17750.0,1452.0,-763.0,984.0,4533.0
2859.0,2781.0,2896.0,3135.0,3027.0,0.736877,0.55896,-0.375366,0.059998,-41.0,52.0,208.0,3575.0,8272.0,394.0,-1506.0,1892.0,-369.0,-1852.0,1515.0,504.0,0.62027,0.778728,0.093252,11170.0,14384.0,944.0,-926.0,1193.0,4780.0
2857.0,2774.0,2885.0,3103.0,3029.0,0.740356,0.545044,-0.384827,0.081299,-41.0,61.0,214.0,4344.0,7856.0,344.0,-1049.0,1757.0,-553.0,-1406.0,1484.0,556.0,0.658441,0.744482,0.109573,13546.0,13126.0,348.0,-934.0,1416.0,4908.0
2864.0,2787.0,2895.0,3119.0,3007.0,0.746521,0.515442,-0.400391,0.129211,-30.0,97.0,223.0,6082.0,6937.0,476.0,93.0,1480.0,-736.0,-494.0,1266.0,944.0,0.731002,0.666106,0.147996,17172.0,11246.0,1678.0,-681.0,2238.0,5120.0
2863.0,2783.0,2879.0,3143.0,3039.0,0.749573,0.499756,-0.404785,0.156433,-25.0,123.0,228.0,6736.0,6552.0,536.0,483.0,1451.0,-878.0,-230.0,1341.0,1120.0,0.763189,0.622563,0.172724,17028.0,10944.0,1242.0,-555.0,2840.0,5237.0
