flex_1,flex_2,flex_3,flex_4,flex_5,Qw,Qx,Qy,Qz,GYRx,GYRy,GYRz,ACCx,ACCy,ACCz,ACCx_real,ACCy_real,ACCz_real,ACCx_world,ACCy_world,ACCz_world,GRAx,GRAy,GRAz,ACCx_raw,ACCy_raw,ACCz_raw,GYRx_raw,GYRy_raw,GYRz_raw
2855.0,2768.0,2846.0,3143.0,3051.0,1.0,0.0,0.0,0.0,0.0,0.0,0.0,0.0,0.0,0.0,0.0,0.0,0.0,0.0,0.0,0.0,0.0,0.0,0.0,0.0,0.0,0.0,0.0,0.0,0.0
2847.0,2770.0,2835.0,3139.0,3022.0,0.907898,-0.033081,-0.415955,-0.039246,-27.0,-22.0,10.0,7592.0,726.0,4061.0,1383.0,950.0,-1277.0,1955.0,766.0,189.0,0.757885,-0.02742,0.651706,15700.0,590.0,7720.0,-614.0,-486.0,244.0
2851.0,2755.0,2832.0,3139.0,3025.0,0.905334,-0.037598,-0.421265,-0.039185,-12.0,-10.0,6.0,7944.0,518.0,3901.0,1671.0,805.0,-1360.0,2188.0,597.0,377.0,0.765717,-0.035063,0.642288,17334.0,876.0,7470.0,-272.0,-227.0,155.0
2845.0,2755.0,2832.0,3135.0,3027.0,0.904663,-0.038452,-0.422607,-0.039124,-7.0,1.0,4.0,8201.0,529.0,3831.0,1912.0,828.0,-1410.0,2382.0,605.0,535.0,0.767643,-0.036505,0.63987,17996.0,1096.0,7222.0,-151.0,31.0,114.0
2841.0,2759.0,2837.0,3135.0,3024.0,0.905029,-0.038879,-0.421875,-0.038025,2.0,23.0,11.0,8773.0,471.0,3687.0,2493.0,784.0,-1564.0,2867.0,529.0,878.0,0.766575,-0.03829,0.641034,19050.0,618.0,6896.0,65.0,539.0,257.0
2850.0,2766.0,2843.0,3139.0,3030.0,0.905945,-0.038452,-0.420044,-0.03595,11.0,31.0,18.0,8877.0,322.0,3587.0,2619.0,645.0,-1689.0,3031.0,386.0,887.0,0.763838,-0.03947,0.644113,18048.0,-482.0,6470.0,273.0,720.0,429.0
2851.0,2771.0,2838.0,3162.0,3029.0,0.909546,-0.034363,-0.413269,-0.0271,43.0,50.0,28.0,8492.0,-172.0,3632.0,2318.0,156.0,-1742.0,2841.0,-40.0,597.0,0.753637,-0.04011,0.656036,14292.0,-1282.0,7760.0,1006.0,1161.0,643.0
2853.0,2759.0,2837.0,3121.0,3023.0,0.912598,-0.028992,-0.407288,-0.022095,61.0,62.0,16.0,7522.0,-340.0,3560.0,1421.0,-53.0,-1900.0,2354.0,-211.0,-206.0,0.744661,-0.034918,0.666599,8194.0,-1804.0,6324.0,1419.0,1441.0,385.0
2847.0,2763.0,2838.0,3119.0,3027.0,0.918457,-0.013672,-0.394958,-0.014709,72.0,37.0,-7.0,4656.0,-666.0,2580.0,-1290.0,-555.0,-3052.0,1305.0,-645.0,-3027.0,0.725907,-0.013495,0.687601,1808.0,-1202.0,1382.0,1655.0,865.0,-153.0
2847.0,2759.0,2832.0,3119.0,3024.0,0.917969,0.001465,-0.396423,-0.011292,58.0,-16.0,-12.0,4821.0,-176.0,3273.0,-1140.0,-271.0,-2343.0,918.0,-260.0,-2439.0,0.727775,0.011642,0.685641,13694.0,2026.0,10244.0,1333.0,-349.0,-271.0
2855.0,2768.0,2845.0,3163.0,3035.0,0.917358,0.008179,-0.397827,-0.010132,48.0,-4.0,-10.0,5632.0,276.0,3582.0,-345.0,87.0,-2015.0,1236.0,109.0,-1626.0,0.729734,0.023067,0.683316,16062.0,3588.0,8796.0,1118.0,-74.0,-220.0
2859.0,2771.0,2843.0,3159.0,3038.0,0.917603,0.016724,-0.396973,-0.009827,13.0,20.0,-7.0,6420.0,1196.0,3921.0,454.0,880.0,-1684.0,1542.0,903.0,-787.0,0.728198,0.038493,0.684224,13320.0,5062.0,7888.0,315.0,460.0,-158.0
2854.0,2768.0,2851.0,3125.0,3029.0,0.918213,0.018066,-0.395508,-0.010986,-5.0,17.0,-8.0,6427.0,1447.0,4023.0,480.0,1104.0,-1600.0,1498.0,1125.0,-703.0,0.725924,0.041868,0.686483,13128.0,3774.0,9338.0,-94.0,403.0,-163.0
2851.0,2769.0,2842.0,3119.0,3019.0,0.919373,0.016541,-0.392761,-0.014099,-17.0,13.0,-7.0,6268.0,1161.0,4154.0,355.0,821.0,-1505.0,1343.0,835.0,-749.0,0.721721,0.041489,0.69091,11518.0,504.0,8364.0,-371.0,311.0,-146.0
2862.0,2775.0,2839.0,3153.0,3027.0,0.919556,0.015015,-0.392334,-0.015137,-14.0,3.0,-3.0,5991.0,818.0,4130.0,83.0,494.0,-1536.0,1174.0,514.0,-983.0,0.721091,0.039491,0.69166,10106.0,-360.0,7982.0,-309.0,91.0,-51.0
2859.0,2785.0,2845.0,3151.0,3037.0,0.917725,0.011475,-0.396729,-0.014771,-12.0,-32.0,10.0,5525.0,470.0,4069.0,-437.0,201.0,-1541.0,827.0,231.0,-1366.0,0.727836,0.032781,0.684911,10762.0,432.0,8166.0,-271.0,-730.0,235.0
2853.0,2768.0,2845.0,3121.0,3025.0,0.915649,0.009277,-0.401672,-0.014221,-15.0,-43.0,12.0,5780.0,383.0,4127.0,-243.0,150.0,-1420.0,883.0,165.0,-1136.0,0.735318,0.028414,0.677189,13558.0,186.0,8622.0,-337.0,-969.0,275.0
2863.0,2767.0,2838.0,3123.0,3038.0,0.910889,0.003357,-0.412415,-0.012817,-20.0,-41.0,14.0,6421.0,17.0,4070.0,266.0,-119.0,-1334.0,1175.0,-131.0,-682.0,0.751241,0.016688,0.659785,14126.0,-1398.0,7546.0,-457.0,-925.0,342.0
2863.0,2773.0,2853.0,3157.0,3035.0,0.908508,-6.1e-05,-0.417603,-0.012024,-20.0,-40.0,13.0,6554.0,-263.0,3941.0,337.0,-344.0,-1393.0,1268.0,-365.0,-654.0,0.758792,0.009932,0.65114,13754.0,-2258.0,7148.0,-457.0,-915.0,316.0
2863.0,2767.0,2845.0,3159.0,3043.0,0.903687,-0.006287,-0.427979,-0.010925,-16.0,-42.0,7.0,6793.0,-818.0,3853.0,455.0,-801.0,-1337.0,1302.0,-834.0,-493.0,0.773654,-0.002011,0.633564,14656.0,-3142.0,7878.0,-355.0,-940.0,181.0
2855.0,2765.0,2839.0,3133.0,3035.0,0.901367,-0.008606,-0.432861,-0.010742,-11.0,-38.0,3.0,6977.0,-1070.0,3902.0,582.0,-1019.0,-1219.0,1287.0,-1055.0,-301.0,0.780519,-0.006214,0.625135,14988.0,-3652.0,7968.0,-250.0,-854.0,78.0
2857.0,2771.0,2835.0,3127.0,3055.0,0.897095,-0.011597,-0.441589,-0.010498,-7.0,-34.0,0.0,6979.0,-1231.0,3688.0,486.0,-1136.0,-1307.0,1298.0,-1178.0,-398.0,0.792538,-0.011535,0.609753,13350.0,-2156.0,6354.0,-143.0,-774.0,0.0
2857.0,2767.0,2839.0,3133.0,3024.0,0.892151,-0.014587,-0.451294,-0.011597,-16.0,-41.0,-2.0,6855.0,-872.0,3435.0,255.0,-744.0,-1416.0,1265.0,-797.0,-621.0,0.805583,-0.015561,0.592189,13588.0,-458.0,6232.0,-350.0,-937.0,-41.0
2855.0,2767.0,2835.0,3147.0,3027.0,0.889404,-0.016968,-0.456604,-0.012817,-25.0,-45.0,-1.0,6764.0,-620.0,3299.0,106.0,-468.0,-1472.0,1238.0,-529.0,-762.0,0.812646,-0.018477,0.582429,12772.0,234.0,5784.0,-555.0,-1021.0,-21.0
2850.0,2761.0,2834.0,3155.0,3035.0,0.882446,-0.025696,-0.46936,-0.016846,-51.0,-61.0,4.0,6633.0,-223.0,2891.0,-160.0,18.0,-1680.0,1301.0,-83.0,-1070.0,0.829236,-0.029537,0.558036,14422.0,468.0,4908.0,-1157.0,-1387.0,95.0
2851.0,2753.0,2833.0,3139.0,3031.0,0.878235,-0.032532,-0.476746,-0.019653,-64.0,-62.0,5.0,7257.0,-163.0,2983.0,386.0,151.0,-1468.0,1447.0,37.0,-479.0,0.838668,-0.038402,0.543338,18904.0,-116.0,7026.0,-1463.0,-1399.0,137.0
2849.0,2766.0,2833.0,3135.0,3031.0,0.871826,-0.046814,-0.486877,-0.026489,-58.0,-26.0,-4.0,8195.0,-688.0,2982.0,1220.0,-230.0,-1290.0,1710.0,-367.0,378.0,0.851425,-0.055833,0.521541,17480.0,-3842.0,4674.0,-1315.0,-590.0,-91.0
2855.0,2763.0,2815.0,3135.0,3039.0,0.868408,-0.056335,-0.491577,-0.032898,-36.0,-10.0,-13.0,7972.0,-1267.0,2449.0,947.0,-730.0,-1732.0,1877.0,-950.0,-24.0,0.857486,-0.065501,0.510393,14448.0,-3546.0,3422.0,-812.0,-220.0,-292.0
2851.0,2755.0,2831.0,3135.0,3035.0,0.867065,-0.059204,-0.493408,-0.035767,-29.0,-10.0,-14.0,7696.0,-1289.0,2237.0,651.0,-737.0,-1909.0,1868.0,-995.0,-356.0,0.859869,-0.067373,0.506125,13756.0,-2428.0,3272.0,-650.0,-218.0,-317.0
2853.0,2743.0,2823.0,3143.0,3031.0,0.863953,-0.06427,-0.497742,-0.040833,-30.0,-17.0,-6.0,7368.0,-754.0,2060.0,279.0,-177.0,-2004.0,1829.0,-480.0,-740.0,0.865299,-0.070404,0.496204,14432.0,842.0,3986.0,-673.0,-372.0,-124.0
2846.0,2768.0,2834.0,3135.0,3031.0,0.860107,-0.072327,-0.502869,-0.045776,-48.0,-20.0,3.0,7593.0,-191.0,2124.0,452.0,451.0,-1839.0,1868.0,128.0,-531.0,0.871664,-0.078378,0.483772,16238.0,326.0,4208.0,-1096.0,-440.0,78.0
2854.0,2765.0,2831.0,3135.0,3027.0,0.858032,-0.077881,-0.505249,-0.048584,-52.0,-16.0,3.0,7900.0,-298.0,2120.0,735.0,394.0,-1789.0,1957.0,56.0,-244.0,0.874607,-0.084555,0.477238,17916.0,-1578.0,4252.0,-1177.0,-365.0,73.0
2850.0,2759.0,2829.0,3135.0,3027.0,0.856079,-0.086792,-0.506775,-0.052856,-30.0,13.0,0.0,8515.0,-847.0,1886.0,1331.0,-68.0,-1974.0,2322.0,-469.0,243.0,0.876854,-0.095029,0.471312,17956.0,-2988.0,2714.0,-665.0,316.0,2.0
2855.0,2757.0,2826.0,3135.0,3031.0,0.856628,-0.089172,-0.505249,-0.054382,-19.0,27.0,-2.0,8545.0,-959.0,1714.0,1374.0,-157.0,-2165.0,2488.0,-607.0,192.0,0.87532,-0.097822,0.473541,17184.0,-2386.0,2496.0,-417.0,639.0,-37.0
2858.0,2768.0,2832.0,3143.0,3025.0,0.859741,-0.0896,-0.499695,-0.055481,9.0,42.0,2.0,8772.0,-1102.0,1694.0,1651.0,-294.0,-2275.0,2693.0,-773.0,361.0,0.869159,-0.098618,0.48451,18726.0,-2890.0,3718.0,223.0,973.0,55.0
2850.0,2763.0,2834.0,3139.0,3035.0,0.862244,-0.087708,-0.495972,-0.053406,28.0,49.0,12.0,9027.0,-1132.0,1832.0,1943.0,-326.0,-2203.0,2781.0,-778.0,626.0,0.864665,-0.098275,0.492636,19646.0,-2222.0,4792.0,648.0,1126.0,285.0
2859.0,2759.0,2831.0,3135.0,3023.0,0.870605,-0.079407,-0.483459,-0.044983,55.0,82.0,19.0,8876.0,-889.0,2446.0,1921.0,-112.0,-1813.0,2511.0,-442.0,698.0,0.848949,-0.094769,0.519939,15086.0,-1054.0,6024.0,1267.0,1889.0,448.0
2855.0,2759.0,2839.0,3163.0,3031.0,0.876709,-0.07312,-0.473633,-0.041199,62.0,103.0,7.0,8107.0,-915.0,2491.0,1254.0,-184.0,-1937.0,2258.0,-509.0,18.0,0.836501,-0.089184,0.540641,11074.0,-2256.0,4910.0,1421.0,2376.0,179.0
2863.0,2764.0,2845.0,3155.0,3039.0,0.88855,-0.059387,-0.45343,-0.037109,58.0,88.0,-15.0,5826.0,-1139.0,1193.0,-811.0,-550.0,-3572.0,2321.0,-1031.0,-2695.0,0.810198,-0.071884,0.581772,4538.0,-2684.0,-1542.0,1329.0,2023.0,-341.0
2858.0,2768.0,2835.0,3167.0,3039.0,0.892578,-0.049622,-0.446533,-0.038025,20.0,5.0,-20.0,4523.0,-487.0,1096.0,-2038.0,-39.0,-3788.0,1781.0,-454.0,-3888.0,0.800905,-0.054624,0.596287,11302.0,1048.0,8366.0,476.0,133.0,-446.0
2855.0,2773.0,2839.0,3133.0,3029.0,0.892639,-0.04718,-0.446533,-0.039124,8.0,2.0,-11.0,5278.0,-17.0,2108.0,-1282.0,386.0,-2780.0,1482.0,87.0,-2704.0,0.800878,-0.04929,0.596717,15256.0,2744.0,9822.0,189.0,66.0,-243.0
2863.0,2775.0,2839.0,3119.0,3031.0,0.893555,-0.045898,-0.44458,-0.041992,-9.0,20.0,-8.0,6440.0,165.0,2917.0,-100.0,531.0,-2001.0,1583.0,291.0,-1305.0,0.798368,-0.044688,0.600445,15516.0,-756.0,7248.0,-198.0,472.0,-180.0
2867.0,2767.0,2839.0,3159.0,3015.0,0.89447,-0.046387,-0.442566,-0.043213,-7.0,26.0,-7.0,6672.0,-103.0,3026.0,153.0,263.0,-1921.0,1636.0,22.0,-1050.0,0.795733,-0.044734,0.603928,14314.0,-1876.0,6558.0,-153.0,601.0,-146.0
2859.0,2778.0,2855.0,3151.0,3029.0,0.896362,-0.046143,-0.438599,-0.044312,3.0,17.0,-5.0,6336.0,-439.0,3095.0,-138.0,-79.0,-1909.0,1399.0,-305.0,-1271.0,0.790376,-0.043851,0.610931,10798.0,-1684.0,6092.0,81.0,408.0,-97.0
2859.0,2768.0,2839.0,3131.0,3047.0,0.896545,-0.045532,-0.438293,-0.044189,7.0,1.0,-3.0,6063.0,-544.0,3138.0,-408.0,-192.0,-1871.0,1190.0,-399.0,-1458.0,0.789924,-0.042908,0.611572,10680.0,-1650.0,6656.0,164.0,45.0,-48.0
2859.0,2768.0,2847.0,3127.0,3031.0,0.894348,-0.043823,-0.443115,-0.042419,14.0,-32.0,1.0,5823.0,-756.0,3224.0,-700.0,-421.0,-1718.0,884.0,-591.0,-1576.0,0.796317,-0.040793,0.603386,11814.0,-2326.0,6662.0,333.0,-728.0,25.0
2859.0,2777.0,2835.0,3133.0,3027.0,0.88916,-0.040955,-0.454041,-0.038879,24.0,-46.0,1.0,6714.0,-985.0,3413.0,73.0,-677.0,-1373.0,1074.0,-823.0,-717.0,0.810614,-0.037525,0.584287,17670.0,-2788.0,8042.0,559.0,-1051.0,34.0
2864.0,2766.0,2843.0,3159.0,3031.0,0.886841,-0.038147,-0.458923,-0.036865,33.0,-33.0,-2.0,7483.0,-1093.0,3604.0,791.0,-815.0,-1112.0,1275.0,-947.0,33.0,0.816796,-0.033824,0.57578,19498.0,-2696.0,8302.0,770.0,-740.0,-38.0
2859.0,2779.0,2839.0,3152.0,3027.0,0.885193,-0.029053,-0.463135,-0.032959,44.0,3.0,-9.0,8239.0,-773.0,3743.0,1506.0,-601.0,-920.0,1557.0,-721.0,726.0,0.821842,-0.020906,0.569315,16858.0,320.0,7496.0,1021.0,80.0,-185.0
2859.0,2763.0,2839.0,3141.0,3031.0,0.885437,-0.023987,-0.463013,-0.032104,35.0,9.0,-12.0,7945.0,-295.0,3671.0,1215.0,-190.0,-999.0,1494.0,-303.0,431.0,0.821477,-0.012748,0.570073,13492.0,2392.0,6714.0,820.0,215.0,-269.0
2862.0,2768.0,2839.0,3119.0,3035.0,0.884583,-0.018188,-0.464722,-0.034363,0.0,-16.0,-15.0,6953.0,419.0,3420.0,207.0,420.0,-1227.0,1156.0,330.0,-525.0,0.823419,-0.00024,0.56737,11560.0,2314.0,6728.0,13.0,-362.0,-343.0
2850.0,2767.0,2838.0,3159.0,3023.0,0.882812,-0.018494,-0.467896,-0.036377,-16.0,-32.0,-10.0,6599.0,546.0,3469.0,-179.0,534.0,-1130.0,875.0,465.0,-781.0,0.827474,0.001388,0.561413,11094.0,1660.0,7054.0,-352.0,-732.0,-219.0
2851.0,2743.0,2832.0,3152.0,3015.0,0.876343,-0.025391,-0.479309,-0.0401,-42.0,-64.0,5.0,6460.0,539.0,3468.0,-438.0,588.0,-949.0,615.0,526.0,-884.0,0.842114,-0.006061,0.539203,14736.0,450.0,7516.0,-960.0,-1457.0,128.0
2849.0,2767.0,2829.0,3125.0,3023.0,0.872192,-0.031189,-0.486389,-0.04187,-49.0,-65.0,8.0,7120.0,390.0,3746.0,148.0,502.0,-554.0,597.0,440.0,-171.0,0.851062,-0.013675,0.524925,18672.0,-140.0,9470.0,-1100.0,-1475.0,184.0
2851.0,2759.0,2835.0,3143.0,3029.0,0.866394,-0.040344,-0.495728,-0.044922,-28.0,-27.0,1.0,8258.0,-233.0,3929.0,1191.0,-25.0,-210.0,777.0,-93.0,921.0,0.862615,-0.02537,0.505283,18480.0,-2460.0,7258.0,-627.0,-608.0,24.0
2853.0,2747.0,2827.0,3139.0,3046.0,0.864929,-0.042908,-0.497864,-0.045837,-18.0,-13.0,-1.0,8392.0,-437.0,3805.0,1304.0,-202.0,-295.0,880.0,-283.0,986.0,0.865167,-0.028583,0.500494,17178.0,-1840.0,6864.0,-406.0,-296.0,-18.0
2847.0,2763.0,2841.0,3127.0,3025.0,0.863586,-0.045715,-0.499756,-0.047668,-12.0,-6.0,-4.0,7743.0,-448.0,3417.0,636.0,-191.0,-647.0,846.0,-294.0,236.0,0.867523,-0.031313,0.496208,12816.0,-464.0,5562.0,-266.0,-121.0,-85.0
2851.0,2767.0,2830.0,3142.0,3031.0,0.862732,-0.047058,-0.501099,-0.048828,-16.0,-13.0,-3.0,7379.0,-284.0,3336.0,258.0,-19.0,-705.0,731.0,-120.0,-122.0,0.869223,-0.032262,0.493376,12776.0,596.0,6496.0,-348.0,-286.0,-59.0
2847.0,2751.0,2835.0,3135.0,3015.0,0.859558,-0.051453,-0.505859,-0.05072,-20.0,-27.0,4.0,7119.0,-222.0,3146.0,-47.0,82.0,-809.0,688.0,-30.0,-434.0,0.87485,-0.037138,0.482872,14574.0,-386.0,5948.0,-453.0,-602.0,96.0
2847.0,2754.0,2832.0,3135.0,3047.0,0.857605,-0.053467,-0.508972,-0.050964,-13.0,-27.0,5.0,7438.0,-200.0,3238.0,241.0,126.0,-662.0,707.0,21.0,-108.0,0.878444,-0.039828,0.476172,17140.0,-332.0,7268.0,-297.0,-613.0,116.0
2847.0,2775.0,2831.0,3137.0,3023.0,0.855103,-0.055603,-0.513062,-0.049866,0.0,-8.0,7.0,8092.0,-368.0,3234.0,858.0,-8.0,-594.0,918.0,-119.0,480.0,0.882986,-0.043924,0.467363,17674.0,-900.0,6164.0,2.0,-171.0,163.0
2846.0,2749.0,2827.0,3151.0,3035.0,0.854858,-0.055664,-0.513489,-0.049133,3.0,4.0,4.0,8161.0,-371.0,3140.0,924.0,-4.0,-680.0,1024.0,-127.0,499.0,0.88339,-0.044711,0.466428,16328.0,-748.0,5578.0,86.0,108.0,110.0
2850.0,2777.0,2842.0,3131.0,3051.0,0.856445,-0.054138,-0.511047,-0.049011,5.0,21.0,-7.0,7598.0,-294.0,2780.0,383.0,55.0,-1084.0,1131.0,-111.0,-176.0,0.880675,-0.042639,0.4718,13360.0,-232.0,4700.0,117.0,497.0,-151.0
2835.0,2757.0,2830.0,3133.0,3011.0,0.857605,-0.05304,-0.509094,-0.050049,2.0,24.0,-11.0,7388.0,-172.0,2758.0,191.0,155.0,-1141.0,1102.0,-14.0,-381.0,0.878513,-0.040015,0.476001,13686.0,444.0,5480.0,53.0,553.0,-231.0
2837.0,2763.0,2815.0,3141.0,3015.0,0.859863,-0.052368,-0.505066,-0.052551,-10.0,20.0,-2.0,7399.0,196.0,2913.0,238.0,498.0,-1054.0,1096.0,332.0,-320.0,0.874079,-0.036975,0.484293,15706.0,1632.0,6344.0,-213.0,476.0,-36.0
2851.0,2763.0,2827.0,3147.0,3034.0,0.860718,-0.053284,-0.503479,-0.053284,-13.0,17.0,5.0,7736.0,416.0,3058.0,589.0,727.0,-934.0,1196.0,560.0,30.0,0.872385,-0.03807,0.487344,17854.0,2060.0,7142.0,-278.0,412.0,132.0
2838.0,2758.0,2829.0,3139.0,3025.0,0.86322,-0.056885,-0.498779,-0.053162,-19.0,34.0,18.0,8549.0,744.0,3277.0,1445.0,1114.0,-785.0,1554.0,931.0,813.0,0.867161,-0.045176,0.495959,19378.0,2130.0,6756.0,-417.0,798.0,435.0
2862.0,2775.0,2847.0,3147.0,3025.0,0.865356,-0.059265,-0.494812,-0.052429,-17.0,45.0,23.0,8976.0,685.0,3358.0,1909.0,1100.0,-764.0,1777.0,906.0,1206.0,0.862592,-0.050686,0.503239,20564.0,708.0,7354.0,-380.0,1044.0,542.0
2861.0,2759.0,2847.0,3147.0,3025.0,0.871399,-0.06311,-0.484253,-0.046692,9.0,60.0,38.0,9328.0,49.0,3423.0,2366.0,579.0,-861.0,2050.0,390.0,1522.0,0.849848,-0.064767,0.523032,18250.0,-2094.0,6554.0,221.0,1382.0,873.0
2842.0,2782.0,2835.0,3139.0,3031.0,0.875366,-0.062683,-0.4776,-0.041382,30.0,70.0,39.0,8973.0,-321.0,3457.0,2080.0,254.0,-933.0,1932.0,85.0,1232.0,0.841338,-0.070213,0.535947,15202.0,-2900.0,7316.0,691.0,1614.0,908.0
2847.0,2775.0,2823.0,3134.0,3024.0,0.885498,-0.054688,-0.460449,-0.030396,63.0,84.0,14.0,6816.0,-895.0,3280.0,108.0,-330.0,-1389.0,1155.0,-501.0,-680.0,0.818778,-0.06886,0.570026,4942.0,-3256.0,5202.0,1457.0,1938.0,340.0
2850.0,2761.0,2813.0,3135.0,3026.0,0.890259,-0.048218,-0.452148,-0.026245,65.0,69.0,3.0,5361.0,-983.0,2721.0,-1254.0,-474.0,-2083.0,889.0,-695.0,-2204.0,0.807589,-0.062119,0.586486,2120.0,-1940.0,1506.0,1489.0,1601.0,83.0
2859.0,2751.0,2839.0,3151.0,3055.0,0.892761,-0.03772,-0.448425,-0.022644,27.0,-10.0,-9.0,3815.0,-235.0,2316.0,-2758.0,150.0,-2558.0,408.0,-56.0,-3742.0,0.802382,-0.047041,0.595027,5750.0,3840.0,5712.0,623.0,-226.0,-201.0
2847.0,2751.0,2827.0,3183.0,3043.0,0.889099,-0.036499,-0.455383,-0.027222,-24.0,-25.0,-11.0,5991.0,594.0,3880.0,-658.0,922.0,-892.0,411.0,848.0,-1090.0,0.811749,-0.04011,0.582532,20448.0,2500.0,14032.0,-539.0,-556.0,-230.0
2855.0,2765.0,2845.0,3123.0,3023.0,0.888733,-0.038696,-0.45575,-0.029907,-31.0,4.0,-7.0,6765.0,583.0,4243.0,109.0,923.0,-520.0,565.0,866.0,-252.0,0.812394,-0.041521,0.581536,16956.0,410.0,9608.0,-702.0,98.0,-150.0
2851.0,2779.0,2815.0,3125.0,3015.0,0.889771,-0.043823,-0.452881,-0.034912,-22.0,21.0,-11.0,7165.0,-187.0,4257.0,537.0,192.0,-542.0,770.0,119.0,107.0,0.80898,-0.046363,0.585889,14560.0,-2784.0,8518.0,-503.0,488.0,-242.0
2847.0,2775.0,2864.0,3163.0,3026.0,0.890808,-0.044922,-0.450684,-0.036865,-11.0,22.0,-13.0,6974.0,-486.0,4192.0,369.0,-102.0,-639.0,718.0,-182.0,-74.0,0.806257,-0.046804,0.589764,12288.0,-2524.0,7812.0,-244.0,526.0,-283.0
2851.0,2785.0,2843.0,3158.0,3031.0,0.891479,-0.044434,-0.449158,-0.039124,5.0,-6.0,-11.0,5976.0,-811.0,3878.0,-612.0,-449.0,-976.0,365.0,-539.0,-1050.0,0.804307,-0.044078,0.592549,9042.0,-2644.0,6830.0,125.0,-135.0,-251.0
2860.0,2757.0,2843.0,3123.0,3027.0,0.89032,-0.043152,-0.451538,-0.039246,14.0,-27.0,-11.0,5652.0,-973.0,3830.0,-962.0,-633.0,-990.0,157.0,-710.0,-1333.0,0.807414,-0.041396,0.588461,9656.0,-2946.0,7466.0,327.0,-616.0,-241.0
2859.0,2767.0,2813.0,3135.0,3039.0,0.885071,-0.037354,-0.462463,-0.037292,38.0,-61.0,-12.0,5597.0,-1326.0,3619.0,-1132.0,-1066.0,-1046.0,101.0,-1129.0,-1491.0,0.821412,-0.031628,0.569473,12688.0,-3568.0,6558.0,886.0,-1378.0,-256.0
2866.0,2767.0,2837.0,3111.0,3012.0,0.878174,-0.025757,-0.476501,-0.033203,52.0,-48.0,-13.0,7047.0,-514.0,3886.0,177.0,-402.0,-575.0,543.0,-450.0,-159.0,0.838613,-0.013595,0.544575,19094.0,4130.0,9592.0,1210.0,-1077.0,-292.0
2845.0,2779.0,2834.0,3153.0,3019.0,0.876099,-0.020508,-0.480469,-0.033203,25.0,-26.0,-14.0,7578.0,515.0,4066.0,670.0,547.0,-336.0,684.0,496.0,382.0,0.843238,-0.004028,0.53738,17634.0,7318.0,9274.0,588.0,-583.0,-300.0
2859.0,2783.0,2833.0,3166.0,3039.0,0.874329,-0.018433,-0.483398,-0.039307,-36.0,-13.0,-15.0,7058.0,1938.0,4086.0,121.0,1890.0,-271.0,456.0,1857.0,-30.0,0.846747,0.005769,0.531982,11084.0,6212.0,7770.0,-821.0,-290.0,-329.0
2867.0,2750.0,2838.0,3137.0,3011.0,0.872925,-0.022644,-0.485291,-0.044678,-63.0,-24.0,-14.0,6576.0,1906.0,3979.0,-381.0,1874.0,-346.0,279.0,1857.0,-499.0,0.849268,0.00383,0.527974,10292.0,2860.0,7190.0,-1427.0,-542.0,-301.0
2859.0,2755.0,2835.0,3127.0,3027.0,0.867493,-0.038635,-0.492859,-0.055054,-81.0,-49.0,0.0,6178.0,721.0,3497.0,-861.0,825.0,-690.0,259.0,783.0,-1103.0,0.859357,-0.012764,0.511172,13020.0,-3034.0,5472.0,-1850.0,-1109.0,1.0
2863.0,2755.0,2822.0,3133.0,3031.0,0.863831,-0.048279,-0.498108,-0.058228,-75.0,-52.0,10.0,6658.0,-14.0,3428.0,-437.0,194.0,-661.0,376.0,121.0,-713.0,0.866184,-0.025402,0.499151,16930.0,-4280.0,7058.0,-1713.0,-1172.0,232.0
2843.0,2738.0,2846.0,3141.0,3045.0,0.858521,-0.06427,-0.505188,-0.059875,-43.0,-22.0,21.0,8058.0,-940.0,3539.0,888.0,-531.0,-403.0,685.0,-625.0,609.0,0.875125,-0.049858,0.481297,19712.0,-4288.0,6576.0,-975.0,-499.0,500.0
2855.0,2743.0,2826.0,3135.0,3007.0,0.8573,-0.071838,-0.50647,-0.057556,-8.0,6.0,15.0,8333.0,-1149.0,3361.0,1151.0,-617.0,-543.0,914.0,-734.0,790.0,0.876662,-0.064873,0.476603,15826.0,-2102.0,5896.0,-174.0,157.0,354.0
2862.0,2750.0,2821.0,3147.0,3027.0,0.85791,-0.072693,-0.505493,-0.05658,0.0,14.0,8.0,8098.0,-1004.0,3242.0,925.0,-450.0,-677.0,951.0,-587.0,516.0,0.875561,-0.067527,0.478404,14736.0,-872.0,5968.0,5.0,328.0,184.0
2860.0,2768.0,2820.0,3127.0,3039.0,0.859619,-0.072754,-0.502563,-0.056641,-4.0,17.0,0.0,7614.0,-618.0,3133.0,468.0,-59.0,-834.0,932.0,-221.0,8.0,0.872268,-0.06815,0.48429,13328.0,-542.0,5590.0,-76.0,407.0,10.0
2847.0,2750.0,2810.0,3143.0,3011.0,0.860291,-0.07312,-0.501221,-0.05719,-7.0,13.0,-1.0,7302.0,-527.0,3017.0,168.0,33.0,-970.0,916.0,-149.0,-328.0,0.870754,-0.06848,0.486802,12866.0,-586.0,5362.0,-145.0,320.0,-6.0
2835.0,2751.0,2823.0,3155.0,3031.0,0.860596,-0.074463,-0.500488,-0.057983,-4.0,3.0,1.0,7340.0,-510.0,3102.0,212.0,64.0,-895.0,878.0,-109.0,-256.0,0.870071,-0.070125,0.487954,15366.0,-1088.0,6768.0,-76.0,84.0,40.0
2833.0,2739.0,2835.0,3143.0,3037.0,0.860596,-0.074585,-0.500549,-0.057434,3.0,1.0,5.0,7481.0,-501.0,3225.0,353.0,79.0,-771.0,845.0,-74.0,-74.0,0.870109,-0.070878,0.487811,15842.0,-868.0,7280.0,76.0,44.0,123.0
2839.0,2758.0,2823.0,3135.0,3034.0,0.860596,-0.072754,-0.501221,-0.053528,20.0,-4.0,14.0,8002.0,-384.0,3724.0,870.0,202.0,-265.0,687.0,134.0,613.0,0.870485,-0.071565,0.486975,18212.0,-524.0,9488.0,481.0,-70.0,338.0
2861.0,2783.0,2838.0,3119.0,2997.0,0.860901,-0.070679,-0.501343,-0.05011,30.0,2.0,17.0,8375.0,-430.0,4186.0,1245.0,155.0,193.0,472.0,166.0,1166.0,0.870296,-0.07145,0.487321,18944.0,-1424.0,11330.0,707.0,49.0,407.0
2839.0,2777.0,2827.0,3152.0,3019.0,0.865112,-0.062683,-0.495911,-0.041992,52.0,37.0,7.0,7732.0,-667.0,4284.0,659.0,-119.0,185.0,158.0,-96.0,669.0,0.863301,-0.066807,0.500326,10452.0,-2372.0,6382.0,1213.0,856.0,183.0
2851.0,2793.0,2823.0,3135.0,3047.0,0.86792,-0.056885,-0.491882,-0.03833,59.0,38.0,1.0,6613.0,-900.0,3842.0,-417.0,-400.0,-332.0,19.0,-437.0,-502.0,0.85819,-0.061035,0.50957,6410.0,-3116.0,4594.0,1355.0,871.0,25.0
2847.0,2766.0,2859.0,3154.0,3015.0,0.869995,-0.045776,-0.489929,-0.031067,51.0,-9.0,2.0,5322.0,-720.0,3190.0,-1684.0,-316.0,-1034.0,-25.0,-412.0,-1958.0,0.855316,-0.049209,0.515731,9056.0,80.0,6266.0,1169.0,-187.0,61.0
2847.0,2767.0,2852.0,3170.0,3039.0,0.869751,-0.041687,-0.490845,-0.028931,27.0,-7.0,-1.0,5050.0,-56.0,3010.0,-1964.0,305.0,-1205.0,39.0,200.0,-2315.0,0.856237,-0.044114,0.514637,7306.0,5036.0,1056.0,630.0,-157.0,-19.0
2839.0,2781.0,2855.0,3175.0,3051.0,0.86731,-0.040283,-0.495178,-0.031372,-16.0,3.0,0.0,7185.0,610.0,3948.0,127.0,927.0,-200.0,323.0,900.0,-27.0,0.861473,-0.038806,0.506386,20144.0,2854.0,10360.0,-345.0,75.0,4.0
2855.0,2771.0,2861.0,3121.0,3019.0,0.868408,-0.042053,-0.492981,-0.032715,-24.0,27.0,5.0,7494.0,583.0,3775.0,457.0,917.0,-406.0,670.0,862.0,147.0,0.858969,-0.040783,0.510404,16190.0,604.0,6030.0,-538.0,628.0,117.0
2854.0,2781.0,2823.0,3111.0,3034.0,0.87146,-0.048279,-0.486755,-0.035645,-26.0,35.0,0.0,7342.0,-89.0,3291.0,363.0,316.0,-980.0,1052.0,191.0,-217.0,0.851817,-0.049446,0.521451,13320.0,-2812.0,5086.0,-593.0,816.0,11.0
2869.0,2799.0,2833.0,3159.0,3030.0,0.872986,-0.050659,-0.483704,-0.036865,-18.0,31.0,-2.0,6908.0,-498.0,2999.0,-41.0,-65.0,-1317.0,1078.0,-227.0,-725.0,0.848268,-0.052786,0.526928,10722.0,-3288.0,4112.0,-393.0,712.0,-23.0
2846.0,2768.0,2853.0,3143.0,3026.0,0.87323,-0.053955,-0.482788,-0.037354,-8.0,-11.0,1.0,5836.0,-876.0,2599.0,-1104.0,-399.0,-1725.0,814.0,-605.0,-1822.0,0.847201,-0.058163,0.52793,9472.0,-2302.0,4708.0,-166.0,-242.0,37.0
2849.0,2751.0,2855.0,3123.0,3031.0,0.871582,-0.055176,-0.485718,-0.037231,-6.0,-31.0,1.0,5640.0,-915.0,2546.0,-1329.0,-423.0,-1730.0,709.0,-633.0,-2008.0,0.850794,-0.060012,0.522075,10452.0,-2080.0,4842.0,-137.0,-700.0,28.0
2863.0,2782.0,2863.0,3135.0,3019.0,0.865295,-0.056946,-0.496643,-0.036316,0.0,-58.0,0.0,6037.0,-1160.0,2525.0,-1037.0,-648.0,-1572.0,744.0,-847.0,-1641.0,0.863622,-0.062478,0.500158,15118.0,-3780.0,5310.0,4.0,-1306.0,20.0
2867.0,2763.0,2823.0,3139.0,3029.0,0.858887,-0.055969,-0.507996,-0.03363,24.0,-33.0,-4.0,7594.0,-1764.0,2743.0,414.0,-1256.0,-1169.0,1071.0,-1398.0,-117.0,0.876386,-0.061974,0.477625,19764.0,-5368.0,6442.0,556.0,-735.0,-74.0
2863.0,2799.0,2837.0,3135.0,3051.0,0.857849,-0.052612,-0.510254,-0.031189,41.0,-8.0,-5.0,7997.0,-1836.0,2839.0,798.0,-1357.0,-1041.0,1143.0,-1473.0,287.0,0.878724,-0.058438,0.473751,17528.0,-3506.0,6176.0,962.0,-177.0,-112.0
2855.0,2765.0,2847.0,3155.0,3013.0,0.858093,-0.042419,-0.510986,-0.027466,35.0,-1.0,-12.0,7270.0,-773.0,2860.0,66.0,-406.0,-1024.0,890.0,-507.0,-409.0,0.879278,-0.04473,0.474172,11458.0,3130.0,5828.0,803.0,-6.0,-265.0
2869.0,2763.0,2829.0,3147.0,2998.0,0.857544,-0.039001,-0.512207,-0.028381,10.0,-13.0,-15.0,6834.0,29.0,2948.0,-380.0,338.0,-921.0,656.0,251.0,-782.0,0.880694,-0.037817,0.47231,11258.0,4736.0,6648.0,235.0,-295.0,-331.0
2855.0,2769.0,2851.0,3159.0,3019.0,0.854004,-0.040344,-0.517517,-0.034729,-44.0,-35.0,-8.0,6380.0,1070.0,3223.0,-884.0,1340.0,-554.0,215.0,1289.0,-1083.0,0.886725,-0.032963,0.461077,11890.0,4056.0,7012.0,-1006.0,-793.0,-172.0
2845.0,2771.0,2855.0,3131.0,3023.0,0.851257,-0.045898,-0.52124,-0.039246,-67.0,-40.0,-3.0,6347.0,1114.0,3195.0,-952.0,1418.0,-510.0,181.0,1364.0,-1131.0,0.891022,-0.03723,0.452381,12804.0,1968.0,5902.0,-1521.0,-898.0,-50.0
2864.0,2773.0,2815.0,3141.0,3025.0,0.844788,-0.062622,-0.529114,-0.049927,-86.0,-37.0,-4.0,7115.0,512.0,3209.0,-259.0,945.0,-332.0,324.0,884.0,-426.0,0.900231,-0.052971,0.432276,17754.0,-1742.0,7538.0,-1963.0,-847.0,-82.0
2847.0,2758.0,2806.0,3119.0,3034.0,0.841125,-0.076782,-0.532104,-0.059387,-52.0,-5.0,-8.0,8189.0,-714.0,3456.0,781.0,-173.0,0.0,301.0,-183.0,717.0,0.904253,-0.065967,0.421988,18108.0,-5040.0,6242.0,-1190.0,-98.0,-179.0
2850.0,2758.0,2839.0,3135.0,3039.0,0.840576,-0.080627,-0.532043,-0.06189,-29.0,3.0,-7.0,8219.0,-1170.0,3236.0,809.0,-599.0,-211.0,417.0,-643.0,684.0,0.904426,-0.069691,0.420828,16206.0,-4678.0,5254.0,-651.0,78.0,-154.0
2847.0,2747.0,2838.0,3149.0,3023.0,0.84082,-0.082153,-0.53125,-0.063721,-1.0,5.0,-7.0,7732.0,-1076.0,2976.0,327.0,-498.0,-481.0,467.0,-592.0,127.0,0.903841,-0.070449,0.422063,13690.0,-634.0,5520.0,-19.0,131.0,-141.0
2849.0,2775.0,2861.0,3123.0,3023.0,0.84082,-0.081787,-0.531189,-0.064453,-3.0,1.0,-5.0,7483.0,-725.0,2991.0,78.0,-159.0,-468.0,415.0,-253.0,-116.0,0.903812,-0.069063,0.422282,13688.0,620.0,6224.0,-51.0,29.0,-110.0
2851.0,2726.0,2829.0,3143.0,3038.0,0.84021,-0.082764,-0.531738,-0.066772,-17.0,-3.0,-1.0,7446.0,-105.0,3062.0,35.0,452.0,-385.0,445.0,360.0,-161.0,0.904596,-0.068067,0.420816,15666.0,912.0,6290.0,-369.0,-61.0,-15.0
2834.0,2752.0,2827.0,3127.0,3011.0,0.839844,-0.084534,-0.531799,-0.068298,-22.0,1.0,0.0,7646.0,-52.0,3046.0,233.0,516.0,-395.0,552.0,413.0,9.0,0.904804,-0.069348,0.420046,16630.0,-16.0,5870.0,-498.0,32.0,17.0
2837.0,2756.0,2811.0,3127.0,3011.0,0.840088,-0.089111,-0.530273,-0.071533,-22.0,15.0,-1.0,8219.0,-369.0,3044.0,815.0,236.0,-410.0,759.0,116.0,546.0,0.903701,-0.073858,0.421734,17936.0,-2346.0,5904.0,-487.0,346.0,-8.0
2833.0,2759.0,2823.0,3127.0,3029.0,0.841064,-0.090637,-0.528259,-0.072632,-12.0,25.0,-1.0,8326.0,-697.0,2913.0,938.0,-76.0,-571.0,887.0,-229.0,608.0,0.901766,-0.075727,0.425392,16996.0,-3368.0,4920.0,-263.0,577.0,-20.0
2835.0,2757.0,2837.0,3135.0,3051.0,0.844788,-0.090759,-0.522278,-0.072937,5.0,37.0,0.0,8126.0,-912.0,2715.0,788.0,-279.0,-872.0,1046.0,-493.0,345.0,0.895667,-0.077158,0.437975,15334.0,-1580.0,5224.0,132.0,859.0,9.0
2861.0,2775.0,2815.0,3135.0,3019.0,0.847107,-0.089783,-0.518738,-0.072754,7.0,39.0,1.0,7941.0,-740.0,2719.0,634.0,-112.0,-932.0,1068.0,-340.0,158.0,0.891917,-0.076631,0.445733,14716.0,-230.0,5566.0,173.0,897.0,37.0
2835.0,2755.0,2835.0,3142.0,2993.0,0.85144,-0.088562,-0.511719,-0.07312,-4.0,33.0,4.0,7584.0,-224.0,2851.0,339.0,398.0,-922.0,1034.0,167.0,-155.0,0.884347,-0.075977,0.460598,14348.0,776.0,6388.0,-76.0,767.0,92.0
2843.0,2741.0,2801.0,3139.0,3011.0,0.853027,-0.089172,-0.508911,-0.073425,-9.0,25.0,7.0,7457.0,-156.0,2941.0,237.0,478.0,-877.0,964.0,258.0,-236.0,0.881325,-0.077399,0.466105,14172.0,-132.0,6326.0,-190.0,593.0,167.0
2832.0,2741.0,2795.0,3111.0,3043.0,0.85437,-0.090515,-0.506592,-0.072021,4.0,3.0,10.0,7368.0,-394.0,3115.0,169.0,275.0,-737.0,767.0,94.0,-220.0,0.878672,-0.081696,0.470307,15154.0,-1998.0,7116.0,103.0,76.0,238.0
2839.0,2743.0,2815.0,3143.0,3015.0,0.854492,-0.089905,-0.506775,-0.069824,18.0,-2.0,11.0,7515.0,-731.0,3304.0,317.0,-52.0,-547.0,606.0,-182.0,25.0,0.878625,-0.082876,0.470129,16022.0,-3806.0,7818.0,431.0,-26.0,266.0
2851.0,2754.0,2847.0,3125.0,3051.0,0.856506,-0.08313,-0.505615,-0.062195,58.0,17.0,4.0,7500.0,-1453.0,3605.0,319.0,-801.0,-285.0,244.0,-849.0,207.0,0.876466,-0.079509,0.474914,13772.0,-4854.0,7708.0,1330.0,411.0,102.0
2855.0,2751.0,2853.0,3157.0,3023.0,0.859131,-0.075867,-0.502869,-0.057556,78.0,34.0,-2.0,7137.0,-1651.0,3502.0,-12.0,-1057.0,-452.0,195.0,-1122.0,-152.0,0.872793,-0.072472,0.482786,11598.0,-4164.0,6328.0,1796.0,786.0,-34.0
2839.0,2731.0,2841.0,3157.0,3061.0,0.864685,-0.058655,-0.496521,-0.048279,77.0,25.0,-3.0,5809.0,-1204.0,3085.0,-1271.0,-765.0,-1011.0,115.0,-875.0,-1563.0,0.864332,-0.053493,0.500038,7978.0,312.0,4932.0,1766.0,587.0,-53.0
2846.0,2779.0,2866.0,3111.0,3011.0,0.865906,-0.051331,-0.495483,-0.044739,59.0,8.0,-2.0,5312.0,-472.0,3207.0,-1755.0,-106.0,-918.0,-116.0,-180.0,-1971.0,0.862677,-0.04456,0.503656,7222.0,4602.0,7578.0,1369.0,200.0,-23.0
2851.0,2795.0,2859.0,3159.0,3043.0,0.864807,-0.043579,-0.498169,-0.044678,4.0,-19.0,-6.0,6014.0,885.0,3697.0,-1076.0,1137.0,-397.0,-59.0,1116.0,-1164.0,0.865534,-0.030861,0.499816,17770.0,4302.0,12288.0,93.0,-424.0,-137.0
2855.0,2800.0,2815.0,3153.0,3015.0,0.864685,-0.043335,-0.49823,-0.046143,-13.0,2.0,-3.0,6657.0,1184.0,4077.0,-434.0,1421.0,-16.0,-28.0,1423.0,-424.0,0.865623,-0.028963,0.499698,16236.0,3884.0,9306.0,-296.0,59.0,-58.0
2877.0,2802.0,2839.0,3135.0,3013.0,0.86554,-0.046692,-0.496155,-0.049866,-23.0,13.0,-3.0,7127.0,606.0,3731.0,52.0,862.0,-391.0,474.0,800.0,-178.0,0.86354,-0.031345,0.503296,15458.0,-1576.0,6550.0,-519.0,315.0,-50.0
2847.0,2795.0,2853.0,3131.0,3029.0,0.866211,-0.048462,-0.494629,-0.051208,-14.0,18.0,-5.0,7266.0,118.0,3572.0,205.0,390.0,-572.0,644.0,300.0,-125.0,0.861869,-0.033298,0.505937,15256.0,-2598.0,6182.0,-319.0,428.0,-106.0
2831.0,2751.0,2855.0,3143.0,3011.0,0.868042,-0.048706,-0.491272,-0.05249,3.0,17.0,-6.0,7014.0,-423.0,3258.0,-14.0,-152.0,-940.0,768.0,-277.0,-488.0,0.858003,-0.032984,0.512532,12324.0,-1646.0,5616.0,85.0,408.0,-135.0
2854.0,2791.0,2833.0,3126.0,2992.0,0.86853,-0.047913,-0.49054,-0.052612,6.0,6.0,-5.0,6691.0,-461.0,3165.0,-330.0,-202.0,-1047.0,689.0,-326.0,-814.0,0.857139,-0.03161,0.514188,11460.0,-990.0,5894.0,157.0,158.0,-108.0
2839.0,2783.0,2846.0,3150.0,3035.0,0.867065,-0.046814,-0.493286,-0.052002,6.0,-24.0,-1.0,6121.0,-519.0,3127.0,-926.0,-274.0,-1042.0,378.0,-368.0,-1318.0,0.860292,-0.029878,0.508984,10924.0,-1362.0,6582.0,146.0,-533.0,-8.0
2864.0,2783.0,2855.0,3119.0,3035.0,0.862244,-0.046021,-0.501953,-0.049194,17.0,-48.0,4.0,6138.0,-959.0,3081.0,-990.0,-713.0,-947.0,235.0,-790.0,-1305.0,0.87014,-0.029975,0.491809,13620.0,-3446.0,5862.0,393.0,-1092.0,104.0
2859.0,2783.0,2865.0,3155.0,3015.0,0.859192,-0.044739,-0.507507,-0.046326,27.0,-49.0,7.0,6632.0,-1156.0,3162.0,-546.0,-911.0,-776.0,297.0,-980.0,-824.0,0.876237,-0.029857,0.480792,16648.0,-3338.0,7026.0,623.0,-1105.0,164.0
2863.0,2800.0,2843.0,3139.0,3011.0,0.855164,-0.039124,-0.51532,-0.039978,33.0,-23.0,3.0,7448.0,-688.0,3373.0,202.0,-477.0,-442.0,430.0,-527.0,-14.0,0.884494,-0.025711,0.465818,15964.0,1612.0,7136.0,778.0,-511.0,76.0
2841.0,2771.0,2821.0,3091.0,3051.0,0.854065,-0.036377,-0.517456,-0.039062,15.0,-16.0,-4.0,7430.0,-43.0,3396.0,165.0,134.0,-387.0,431.0,88.0,-35.0,0.886724,-0.02171,0.461869,14458.0,4010.0,6926.0,361.0,-357.0,-71.0
2826.0,2743.0,2835.0,3099.0,3031.0,0.851807,-0.036377,-0.520752,-0.044067,-35.0,-18.0,-13.0,7033.0,1021.0,3518.0,-260.0,1152.0,-209.0,196.0,1131.0,-345.0,0.890366,-0.016076,0.455011,12496.0,4242.0,7106.0,-782.0,-406.0,-286.0
2839.0,2787.0,2839.0,3121.0,3039.0,0.850159,-0.040283,-0.522705,-0.049194,-59.0,-24.0,-13.0,6849.0,1129.0,3501.0,-464.0,1268.0,-188.0,117.0,1254.0,-520.0,0.892728,-0.017066,0.450347,12796.0,2366.0,6864.0,-1340.0,-528.0,-294.0
2861.0,2751.0,2838.0,3141.0,3039.0,0.845459,-0.055054,-0.52771,-0.060547,-83.0,-31.0,-5.0,7034.0,448.0,3321.0,-330.0,687.0,-258.0,194.0,651.0,-429.0,0.898981,-0.029189,0.436958,15806.0,-2298.0,6202.0,-1891.0,-704.0,-101.0
2835.0,2750.0,2819.0,3127.0,3026.0,-0.065125,-0.004578,-0.001709,0.0,7355.0,-208.0,3328.0,-19862.0,-18944.0,-3799.0,-19860.0,-18948.0,-3833.0,-85.0,-78.0,-23.0,-0.000223,0.000596,0.004217,16850.0,-5186.0,5204.0,-1244.0,-480.0,35.0
2839.0,2771.0,2814.0,3121.0,3031.0,0.839111,-0.075623,-0.53418,-0.069641,-28.0,-17.0,0.0,7806.0,-1237.0,3054.0,375.0,-806.0,-369.0,324.0,-876.0,228.0,0.907005,-0.05251,0.417891,16418.0,-4610.0,5420.0,-639.0,-383.0,8.0
2842.0,2743.0,2815.0,3135.0,3006.0,0.836853,-0.076233,-0.537659,-0.06897,16.0,-15.0,-5.0,7521.0,-1264.0,2805.0,63.0,-826.0,-555.0,356.0,-922.0,-126.0,0.910398,-0.053427,0.410191,13488.0,-1032.0,4916.0,385.0,-332.0,-110.0
2847.0,2765.0,2831.0,3135.0,2999.0,0.835693,-0.073853,-0.539978,-0.067993,21.0,-21.0,-5.0,7330.0,-776.0,2821.0,-145.0,-366.0,-504.0,319.0,-452.0,-318.0,0.912555,-0.050007,0.405976,13728.0,1748.0,6062.0,486.0,-467.0,-102.0
2843.0,2739.0,2805.0,3127.0,3027.0,0.832947,-0.070679,-0.544739,-0.0672,0.0,-21.0,2.0,7436.0,381.0,3179.0,-75.0,745.0,-69.0,172.0,720.0,-129.0,0.916976,-0.044531,0.39658,15498.0,3778.0,7204.0,13.0,-480.0,59.0
2845.0,2771.0,2815.0,3149.0,3039.0,0.831726,-0.071228,-0.546448,-0.067871,-14.0,-17.0,4.0,7574.0,701.0,3215.0,48.0,1063.0,-1.0,222.0,1040.0,-3.0,0.918658,-0.044308,0.392696,16062.0,2974.0,6470.0,-311.0,-381.0,113.0
2853.0,2754.0,2859.0,3143.0,3006.0,0.829407,-0.076172,-0.548889,-0.07074,-29.0,-10.0,3.0,7810.0,594.0,3054.0,262.0,992.0,-106.0,396.0,940.0,152.0,0.921282,-0.048698,0.385838,15992.0,-266.0,5128.0,-647.0,-229.0,80.0
2851.0,2793.0,2831.0,3121.0,3011.0,0.82843,-0.078857,-0.549805,-0.072205,-24.0,-8.0,0.0,7821.0,243.0,2833.0,265.0,662.0,-304.0,512.0,574.0,94.0,0.922337,-0.051259,0.383006,15718.0,-1778.0,4342.0,-529.0,-174.0,0.0
2843.0,2775.0,2847.0,3135.0,3019.0,0.826843,-0.081055,-0.551636,-0.073608,-1.0,-5.0,-4.0,8047.0,-324.0,2592.0,476.0,108.0,-506.0,659.0,-18.0,242.0,0.924165,-0.052829,0.378216,16866.0,-1436.0,4876.0,-14.0,-95.0,-82.0
2855.0,2783.0,2832.0,3141.0,3003.0,0.826599,-0.080261,-0.552185,-0.073547,7.0,-1.0,-4.0,8104.0,-273.0,2562.0,529.0,148.0,-529.0,708.0,13.0,281.0,0.924677,-0.051464,0.377325,16424.0,122.0,4904.0,179.0,-8.0,-89.0
2847.0,2768.0,2815.0,3111.0,3039.0,0.826721,-0.077271,-0.552368,-0.073547,8.0,5.0,-4.0,8235.0,49.0,2666.0,660.0,430.0,-428.0,725.0,306.0,428.0,0.924675,-0.046512,0.377796,16896.0,952.0,5650.0,204.0,120.0,-90.0
2850.0,2751.0,2815.0,3127.0,3027.0,0.827087,-0.0755,-0.552124,-0.073425,12.0,6.0,-4.0,8343.0,77.0,2703.0,770.0,435.0,-401.0,743.0,313.0,540.0,0.924397,-0.043811,0.378924,17508.0,34.0,5670.0,295.0,154.0,-90.0
2855.0,2807.0,2835.0,3135.0,3051.0,0.828247,-0.069397,-0.551514,-0.070984,36.0,9.0,-5.0,8809.0,-299.0,2966.0,1244.0,1.0,-163.0,622.0,-81.0,1086.0,0.923431,-0.036659,0.382049,18922.0,-2750.0,6872.0,835.0,222.0,-103.0
2854.0,2771.0,2832.0,3143.0,3027.0,0.829651,-0.064209,-0.550476,-0.067383,59.0,18.0,-2.0,8848.0,-703.0,3078.0,1294.0,-437.0,-81.0,491.0,-497.0,1176.0,0.922059,-0.032357,0.385714,17508.0,-3712.0,6832.0,1360.0,424.0,-29.0
2850.0,2766.0,2821.0,3151.0,3014.0,0.835876,-0.046082,-0.544128,-0.055603,105.0,52.0,-6.0,8225.0,-1205.0,3174.0,731.0,-1069.0,-132.0,260.0,-1107.0,633.0,0.914773,-0.016527,0.403582,13550.0,-3576.0,6784.0,2423.0,1206.0,-118.0
2859.0,2751.0,2832.0,3151.0,3051.0,0.840881,-0.034668,-0.537903,-0.048706,110.0,69.0,-5.0,7401.0,-1158.0,2851.0,-37.0,-1109.0,-580.0,375.0,-1163.0,-270.0,0.908002,-0.005905,0.418912,9224.0,-1398.0,2488.0,2532.0,1589.0,-97.0
2863.0,2768.0,2830.0,3135.0,3035.0,0.846008,-0.014343,-0.531494,-0.039612,69.0,14.0,-15.0,5567.0,20.0,1734.0,-1809.0,-126.0,-1826.0,848.0,-153.0,-2424.0,0.900433,0.017838,0.434607,7752.0,4824.0,3968.0,1598.0,340.0,-339.0
2864.0,2775.0,2823.0,3157.0,3015.0,0.845276,-0.002136,-0.532776,-0.040527,18.0,-7.0,-23.0,6238.0,1175.0,2670.0,-1141.0,850.0,-871.0,355.0,882.0,-1370.0,0.900858,0.039573,0.432279,15950.0,4750.0,8310.0,431.0,-155.0,-522.0
2853.0,2751.0,2815.0,3135.0,3019.0,0.845093,0.00061,-0.532898,-0.04248,4.0,0.0,-18.0,6728.0,1304.0,2995.0,-650.0,924.0,-543.0,276.0,943.0,-777.0,0.900645,0.046307,0.432006,16126.0,3000.0,7370.0,92.0,8.0,-408.0
2863.0,2775.0,2846.0,3139.0,3039.0,0.845398,0.001038,-0.532227,-0.045288,-8.0,5.0,-4.0,7112.0,936.0,3073.0,-259.0,526.0,-478.0,358.0,521.0,-413.0,0.899792,0.049961,0.433483,14314.0,424.0,5824.0,-173.0,119.0,-85.0
2859.0,2766.0,2858.0,3119.0,3045.0,0.845398,0.000305,-0.532166,-0.045654,-6.0,0.0,0.0,7022.0,710.0,3005.0,-348.0,307.0,-546.0,365.0,306.0,-534.0,0.899755,0.049107,0.433582,13530.0,166.0,5612.0,-135.0,17.0,17.0
2859.0,2775.0,2827.0,3151.0,3005.0,0.844849,-0.00061,-0.53302,-0.045715,0.0,-2.0,-1.0,7213.0,398.0,2993.0,-165.0,7.0,-543.0,419.0,-7.0,-382.0,0.900698,0.047703,0.431748,15096.0,-8.0,5936.0,9.0,-31.0,-21.0
2847.0,2751.0,2822.0,3143.0,3019.0,0.844727,-0.000305,-0.533203,-0.045593,3.0,0.0,-3.0,7250.0,294.0,2987.0,-129.0,-100.0,-546.0,428.0,-116.0,-356.0,0.90085,0.048105,0.431336,14532.0,28.0,5934.0,86.0,22.0,-48.0
2864.0,2789.0,2833.0,3147.0,3035.0,0.844299,0.000854,-0.533997,-0.044983,6.0,-8.0,-2.0,6807.0,170.0,2900.0,-579.0,-235.0,-620.0,295.0,-218.0,-800.0,0.901629,0.049484,0.429712,11826.0,72.0,5404.0,155.0,-170.0,-28.0
2851.0,2751.0,2839.0,3143.0,3029.0,0.843262,0.001221,-0.535645,-0.044434,6.0,-19.0,1.0,6610.0,106.0,2840.0,-789.0,-300.0,-651.0,232.0,-268.0,-1004.0,0.903269,0.04966,0.426148,12360.0,-184.0,5290.0,138.0,-426.0,34.0
2861.0,2769.0,2831.0,3152.0,3035.0,0.8396,0.0,-0.541504,-0.041992,-1.0,-34.0,15.0,6549.0,54.0,2881.0,-899.0,-318.0,-506.0,69.0,-276.0,-1041.0,0.909293,0.045478,0.413464,12954.0,-110.0,5844.0,-3.0,-759.0,354.0
2855.0,2759.0,2829.0,3131.0,3035.0,0.837158,-0.002075,-0.545471,-0.039978,-6.0,-41.0,22.0,6530.0,31.0,2838.0,-953.0,-297.0,-478.0,33.0,-256.0,-1075.0,0.913457,0.040139,0.404889,13110.0,-72.0,5426.0,-115.0,-921.0,510.0
2851.0,2761.0,2831.0,3143.0,3023.0,0.831177,-0.007996,-0.554749,-0.036682,-13.0,-45.0,19.0,7075.0,8.0,2918.0,-484.0,-216.0,-230.0,12.0,-202.0,-540.0,0.922775,0.027407,0.38439,16788.0,-352.0,6166.0,-295.0,-1030.0,457.0
2843.0,2768.0,2819.0,3127.0,3039.0,0.828552,-0.010254,-0.558655,-0.035767,-9.0,-35.0,12.0,7525.0,-7.0,3068.0,-64.0,-195.0,-8.0,-30.0,-191.0,-66.0,0.926483,0.022971,0.375578,17578.0,96.0,7132.0,-191.0,-799.0,277.0
2862.0,2771.0,2839.0,3127.0,3031.0,0.82605,-0.010376,-0.562317,-0.035767,2.0,-13.0,-6.0,7598.0,246.0,3033.0,-18.0,56.0,23.0,-23.0,58.0,-6.0,0.929746,0.023082,0.36733,14216.0,1624.0,5266.0,58.0,-279.0,-132.0
2849.0,2767.0,2839.0,3155.0,3015.0,0.825012,-0.009827,-0.563782,-0.036865,-5.0,-16.0,-8.0,7349.0,464.0,2932.0,-277.0,256.0,-50.0,-35.0,266.0,-269.0,0.930978,0.025354,0.364058,13150.0,2228.0,5406.0,-98.0,-349.0,-181.0
2862.0,2765.0,2819.0,3133.0,3051.0,0.821777,-0.012329,-0.568237,-0.040649,-27.0,-30.0,0.0,6959.0,757.0,2820.0,-699.0,544.0,-79.0,-127.0,573.0,-667.0,0.934931,0.025933,0.353925,13406.0,1856.0,5428.0,-600.0,-665.0,3.0
2851.0,2751.0,2833.0,3141.0,3011.0,0.819458,-0.01593,-0.57135,-0.042358,-35.0,-35.0,8.0,7047.0,734.0,2766.0,-635.0,551.0,-73.0,-101.0,575.0,-608.0,0.937744,0.022295,0.346611,15054.0,1114.0,5136.0,-796.0,-791.0,202.0
2859.0,2779.0,2831.0,3135.0,3039.0,0.814819,-0.025208,-0.577515,-0.044006,-29.0,-26.0,16.0,8025.0,278.0,3023.0,297.0,198.0,305.0,-168.0,212.0,383.0,0.943359,0.009749,0.331708,18956.0,-1254.0,7060.0,-654.0,-579.0,371.0
2852.0,2768.0,2815.0,3131.0,3035.0,0.813965,-0.028198,-0.578552,-0.043518,-13.0,-10.0,12.0,8210.0,0.0,2967.0,474.0,-36.0,272.0,-104.0,-27.0,536.0,0.944297,0.00445,0.328915,16888.0,-1582.0,5128.0,-296.0,-207.0,292.0
2845.0,2723.0,2839.0,3135.0,3030.0,0.81366,-0.029236,-0.579041,-0.042542,4.0,1.0,-2.0,7998.0,-89.0,2668.0,258.0,-102.0,-16.0,88.0,-112.0,238.0,0.944771,0.00169,0.327709,15298.0,98.0,4854.0,101.0,42.0,-39.0
2855.0,2771.0,2822.0,3139.0,3022.0,0.813904,-0.028198,-0.578735,-0.042664,6.0,5.0,-7.0,7897.0,-9.0,2558.0,159.0,-37.0,-133.0,173.0,-55.0,106.0,0.944476,0.003481,0.32853,15272.0,576.0,4480.0,150.0,128.0,-145.0
2842.0,2758.0,2819.0,3147.0,3063.0,0.814697,-0.026733,-0.577637,-0.043579,-3.0,6.0,-3.0,7578.0,319.0,2404.0,-151.0,263.0,-309.0,267.0,238.0,-243.0,0.943528,0.006787,0.331252,13554.0,2010.0,4282.0,-49.0,158.0,-56.0
2835.0,2743.0,2829.0,3143.0,3007.0,0.814819,-0.027039,-0.577393,-0.044495,-10.0,0.0,0.0,7348.0,515.0,2347.0,-379.0,455.0,-371.0,270.0,432.0,-477.0,0.943347,0.007319,0.331797,13564.0,2000.0,4398.0,-229.0,22.0,10.0
2836.0,2735.0,2813.0,3147.0,3007.0,0.81366,-0.03064,-0.578674,-0.046387,-18.0,-7.0,5.0,7912.0,406.0,2498.0,174.0,374.0,-192.0,278.0,344.0,102.0,0.94453,0.003825,0.328391,19330.0,-318.0,5864.0,-392.0,-156.0,123.0
2839.0,2742.0,2815.0,3147.0,3042.0,0.813721,-0.032227,-0.578491,-0.046326,-8.0,7.0,6.0,8511.0,167.0,2552.0,774.0,157.0,-139.0,400.0,111.0,685.0,0.944446,0.001151,0.328597,20514.0,-1068.0,5232.0,-165.0,164.0,160.0
2858.0,2767.0,2837.0,3123.0,3055.0,0.817566,-0.032837,-0.573181,-0.044678,5.0,42.0,5.0,8909.0,25.0,2437.0,1207.0,45.0,-354.0,744.0,-35.0,1014.0,0.940161,-0.002476,0.340795,17238.0,136.0,3932.0,123.0,981.0,133.0
2847.0,2739.0,2811.0,3139.0,3047.0,0.820679,-0.032043,-0.568787,-0.04425,6.0,49.0,1.0,8872.0,55.0,2336.0,1200.0,73.0,-538.0,927.0,-26.0,934.0,0.936418,-0.002257,0.350927,17964.0,180.0,4528.0,154.0,1141.0,25.0
2855.0,2745.0,2807.0,3147.0,3021.0,0.828857,-0.028687,-0.55719,-0.04126,27.0,69.0,10.0,9054.0,-128.0,2764.0,1467.0,-115.0,-327.0,840.0,-198.0,1235.0,0.926029,-0.001575,0.377423,17694.0,-562.0,7046.0,641.0,1582.0,236.0
2855.0,2759.0,2843.0,3147.0,3025.0,0.834229,-0.025879,-0.5495,-0.037354,37.0,78.0,18.0,8552.0,-34.0,2981.0,1025.0,-16.0,-252.0,632.0,-71.0,842.0,0.91875,-0.002126,0.394713,13172.0,568.0,7156.0,860.0,1804.0,433.0
2863.0,2755.0,2832.0,3149.0,3015.0,0.843689,-0.021606,-0.535583,-0.029541,26.0,54.0,16.0,6731.0,-139.0,2212.0,-682.0,-99.0,-1272.0,851.0,-167.0,-1157.0,0.905008,-0.004815,0.425367,8432.0,-822.0,1708.0,597.0,1259.0,378.0
2853.0,2771.0,2819.0,3175.0,3026.0,0.846008,-0.02002,-0.532043,-0.027222,19.0,35.0,5.0,6348.0,-243.0,1834.0,-1035.0,-202.0,-1713.0,1079.0,-283.0,-1673.0,0.901316,-0.004907,0.433,11452.0,-990.0,2248.0,443.0,814.0,130.0
2851.0,2763.0,2843.0,3131.0,3022.0,0.848694,-0.018372,-0.52771,-0.030273,-12.0,23.0,-19.0,6670.0,187.0,1981.0,-676.0,180.0,-1642.0,1183.0,97.0,-1332.0,0.896841,0.000767,0.442382,17318.0,902.0,9408.0,-267.0,537.0,-433.0
2850.0,2773.0,2822.0,3138.0,3031.0,0.850952,-0.018738,-0.523804,-0.033081,-19.0,40.0,-13.0,7068.0,417.0,2562.0,-245.0,394.0,-1128.0,924.0,326.0,-725.0,0.892704,0.002766,0.450492,15636.0,2100.0,7796.0,-420.0,920.0,-286.0
2855.0,2767.0,2858.0,3117.0,3038.0,0.856506,-0.021729,-0.514221,-0.038696,-26.0,45.0,-10.0,6928.0,294.0,2942.0,-301.0,272.0,-909.0,682.0,214.0,-692.0,0.882549,0.002576,0.470205,13144.0,-630.0,7122.0,-580.0,1053.0,-215.0
2864.0,2747.0,2846.0,3149.0,3015.0,0.859192,-0.023438,-0.509521,-0.040771,-20.0,43.0,-7.0,6628.0,55.0,3095.0,-560.0,44.0,-834.0,465.0,1.0,-891.0,0.877465,0.001273,0.479712,10902.0,-1270.0,6902.0,-436.0,989.0,-148.0
2841.0,2778.0,2855.0,3150.0,3043.0,0.862122,-0.025574,-0.504272,-0.042297,-6.0,3.0,0.0,5492.0,-195.0,3222.0,-1648.0,-183.0,-792.0,-135.0,-173.0,-1824.0,0.871652,-0.001437,0.490098,8342.0,-746.0,7284.0,-131.0,77.0,4.0
2861.0,2777.0,2832.0,3127.0,3051.0,0.861572,-0.02594,-0.505188,-0.042236,0.0,-19.0,0.0,5260.0,-235.0,3390.0,-1889.0,-218.0,-609.0,-410.0,-182.0,-1945.0,0.872703,-0.002024,0.488203,9512.0,-744.0,7710.0,2.0,-426.0,6.0
2847.0,2785.0,2851.0,3127.0,3031.0,0.857422,-0.024719,-0.512329,-0.04126,12.0,-43.0,-4.0,5722.0,-354.0,3655.0,-1491.0,-353.0,-226.0,-538.0,-302.0,-1420.0,0.880604,-0.000112,0.473782,14030.0,-1128.0,7498.0,290.0,-984.0,-72.0
2849.0,2767.0,2847.0,3163.0,3006.0,0.854797,-0.023071,-0.516907,-0.040283,20.0,-41.0,-5.0,6432.0,-455.0,3835.0,-822.0,-473.0,29.0,-449.0,-431.0,-715.0,0.88556,0.002203,0.464576,17524.0,-1512.0,8956.0,461.0,-933.0,-100.0
2847.0,2767.0,2827.0,3151.0,3015.0,0.85199,-0.016968,-0.521973,-0.036621,36.0,-13.0,-4.0,7383.0,-570.0,3906.0,86.0,-646.0,182.0,-174.0,-635.0,153.0,0.890673,0.009318,0.454484,16180.0,-1194.0,7586.0,845.0,-279.0,-78.0
2864.0,2778.0,2861.0,3141.0,3015.0,0.851624,-0.012695,-0.522888,-0.03418,42.0,-5.0,-4.0,7407.0,-479.0,3876.0,104.0,-594.0,166.0,-143.0,-587.0,159.0,0.891476,0.014121,0.452858,14532.0,-186.0,7552.0,976.0,-111.0,-89.0
2851.0,2768.0,2849.0,3125.0,3046.0,0.851013,-0.002686,-0.524231,-0.030396,39.0,-8.0,-10.0,6969.0,181.0,3650.0,-341.0,-42.0,-39.0,-120.0,-26.0,-323.0,0.892418,0.027298,0.450322,12430.0,3064.0,6620.0,905.0,-180.0,-218.0
2847.0,2757.0,2823.0,3159.0,3023.0,0.85022,0.001465,-0.525574,-0.030212,21.0,-15.0,-13.0,6661.0,682.0,3534.0,-659.0,401.0,-132.0,-155.0,431.0,-634.0,0.893618,0.034249,0.447556,11390.0,4414.0,6260.0,493.0,-329.0,-283.0
2847.0,2729.0,2815.0,3135.0,3015.0,0.845886,0.001587,-0.532104,-0.035889,-37.0,-45.0,-12.0,6267.0,1471.0,3049.0,-1106.0,1136.0,-503.0,43.0,1184.0,-1167.0,0.900086,0.040878,0.433674,12576.0,4324.0,5088.0,-836.0,-1018.0,-264.0
2851.0,2786.0,2826.0,3139.0,3025.0,0.842285,-0.003174,-0.537415,-0.040894,-62.0,-54.0,-10.0,6611.0,1383.0,3146.0,-807.0,1066.0,-313.0,22.0,1099.0,-821.0,0.905572,0.038607,0.422292,15840.0,1782.0,7586.0,-1400.0,-1228.0,-218.0
2847.0,2757.0,2832.0,3163.0,3007.0,0.837219,-0.015625,-0.544189,-0.051575,-58.0,-24.0,-14.0,7530.0,301.0,3438.0,52.0,55.0,102.0,-66.0,59.0,90.0,0.912823,0.02997,0.40721,16840.0,-3736.0,6524.0,-1315.0,-527.0,-305.0
2835.0,2783.0,2823.0,3147.0,3007.0,0.834656,-0.02301,-0.547241,-0.057617,-25.0,-16.0,-11.0,7384.0,-430.0,3009.0,-121.0,-631.0,-267.0,118.0,-644.0,-233.0,0.916168,0.02465,0.399968,13886.0,-1326.0,5062.0,-562.0,-348.0,-243.0
2847.0,2750.0,2826.0,3120.0,3047.0,0.833252,-0.024963,-0.549072,-0.059692,-21.0,-19.0,-9.0,7290.0,-314.0,2973.0,-230.0,-510.0,-269.0,90.0,-517.0,-329.0,0.918011,0.023949,0.395768,14076.0,346.0,6036.0,-472.0,-429.0,-189.0
2849.0,2747.0,2831.0,3151.0,3007.0,0.830688,-0.029541,-0.552246,-0.063782,-30.0,-19.0,0.0,6939.0,191.0,2987.0,-607.0,15.0,-193.0,-53.0,36.0,-633.0,0.921257,0.021368,0.388263,12226.0,1880.0,5302.0,-667.0,-419.0,9.0
2843.0,2763.0,2839.0,3143.0,3027.0,0.829041,-0.033142,-0.554321,-0.065857,-37.0,-25.0,5.0,6855.0,412.0,2871.0,-710.0,264.0,-268.0,16.0,278.0,-753.0,0.923475,0.01806,0.383275,13910.0,1950.0,5218.0,-840.0,-565.0,115.0
2847.0,2747.0,2838.0,3125.0,3023.0,0.824768,-0.043091,-0.559387,-0.070129,-45.0,-28.0,8.0,7592.0,424.0,3087.0,-16.0,363.0,52.0,5.0,366.0,7.0,0.928773,0.007379,0.37039,17812.0,126.0,6968.0,-1016.0,-622.0,191.0
2831.0,2761.0,2785.0,3130.0,3023.0,0.82312,-0.047485,-0.561279,-0.07196,-35.0,-19.0,4.0,8024.0,167.0,3137.0,398.0,145.0,143.0,36.0,139.0,423.0,0.930835,0.002608,0.365416,18608.0,-1454.0,6412.0,-783.0,-435.0,108.0
2843.0,2768.0,2833.0,3127.0,3011.0,0.821838,-0.052124,-0.5625,-0.074036,-11.0,3.0,-4.0,8482.0,-257.0,2923.0,844.0,-237.0,-40.0,294.0,-293.0,772.0,0.932286,-0.002385,0.361776,18100.0,-1052.0,5178.0,-232.0,69.0,-77.0
2847.0,2747.0,2822.0,3111.0,3055.0,0.822449,-0.052063,-0.561462,-0.074829,-2.0,16.0,-8.0,8648.0,-241.0,2875.0,1018.0,-227.0,-107.0,421.0,-307.0,909.0,0.93134,-0.001611,0.364071,18194.0,-150.0,5516.0,-29.0,378.0,-169.0
2855.0,2762.0,2834.0,3163.0,3047.0,0.825867,-0.049377,-0.556396,-0.076782,4.0,33.0,-10.0,8698.0,87.0,2853.0,1107.0,55.0,-226.0,624.0,-63.0,940.0,0.926601,0.003884,0.375936,17560.0,1050.0,5944.0,113.0,764.0,-212.0
2865.0,2768.0,2815.0,3139.0,2991.0,0.828186,-0.047668,-0.55304,-0.077209,8.0,37.0,-6.0,8721.0,170.0,2937.0,1156.0,117.0,-206.0,643.0,-5.0,989.0,0.9234,0.006443,0.383728,17502.0,710.0,6402.0,194.0,857.0,-122.0
2832.0,2752.0,2863.0,3141.0,3023.0,0.833984,-0.044373,-0.544861,-0.075195,20.0,46.0,7.0,8466.0,-62.0,3108.0,966.0,-126.0,-187.0,528.0,-227.0,808.0,0.915484,0.00793,0.402342,15064.0,-1070.0,6260.0,467.0,1057.0,163.0
2850.0,2778.0,2846.0,3125.0,3031.0,0.837341,-0.041931,-0.540222,-0.072693,29.0,48.0,7.0,7910.0,-328.0,2976.0,448.0,-396.0,-405.0,479.0,-484.0,237.0,0.910797,0.008319,0.412827,12360.0,-2606.0,4974.0,675.0,1104.0,164.0
2855.0,2785.0,2813.0,3133.0,3023.0,0.843933,-0.033936,-0.531311,-0.066162,48.0,45.0,0.0,6771.0,-724.0,2626.0,-612.0,-830.0,-922.0,438.0,-892.0,-961.0,0.901272,0.013027,0.433158,10086.0,-2084.0,3896.0,1118.0,1051.0,10.0
2831.0,2757.0,2823.0,3135.0,3035.0,0.846497,-0.028503,-0.527893,-0.062988,51.0,34.0,-3.0,6280.0,-603.0,2468.0,-1070.0,-752.0,-1145.0,451.0,-794.0,-1478.0,0.89731,0.018246,0.44104,9906.0,-84.0,4326.0,1185.0,796.0,-64.0
2858.0,2755.0,2839.0,3159.0,3003.0,0.849304,-0.018799,-0.524292,-0.058411,28.0,12.0,-1.0,5506.0,307.0,2626.0,-1807.0,66.0,-1056.0,144.0,110.0,-2085.0,0.892763,0.029317,0.449494,8264.0,4974.0,3432.0,660.0,281.0,-18.0
2843.0,2790.0,2843.0,3147.0,3031.0,0.848755,-0.016479,-0.525208,-0.058655,5.0,-14.0,-3.0,5798.0,850.0,2874.0,-1521.0,574.0,-793.0,101.0,623.0,-1694.0,0.893478,0.033638,0.447711,15612.0,3550.0,10294.0,131.0,-309.0,-67.0
2847.0,2785.0,2835.0,3125.0,3045.0,0.849365,-0.017883,-0.524048,-0.060242,-19.0,11.0,5.0,6899.0,1321.0,3773.0,-411.0,1052.0,85.0,-130.0,1085.0,-294.0,0.892371,0.03276,0.450104,15114.0,2686.0,7626.0,-427.0,271.0,115.0
2839.0,2751.0,2823.0,3131.0,3053.0,0.850159,-0.020142,-0.522522,-0.061462,-25.0,13.0,4.0,7031.0,1152.0,3761.0,-267.0,906.0,49.0,-48.0,925.0,-188.0,0.890929,0.029984,0.453113,14678.0,960.0,7358.0,-558.0,298.0,108.0
2853.0,2790.0,2847.0,3131.0,3039.0,0.851746,-0.02478,-0.519531,-0.063232,-16.0,12.0,2.0,6958.0,411.0,3619.0,-317.0,218.0,-140.0,9.0,226.0,-340.0,0.888151,0.023489,0.458942,12928.0,-1504.0,6396.0,-345.0,275.0,63.0
2855.0,2773.0,2845.0,3147.0,3031.0,0.852173,-0.026123,-0.518799,-0.063293,-6.0,4.0,2.0,6731.0,103.0,3519.0,-539.0,-70.0,-252.0,-32.0,-53.0,-595.0,0.887519,0.02115,0.46037,12052.0,-1452.0,6502.0,-133.0,102.0,57.0
2867.0,2801.0,2847.0,3143.0,3007.0,0.851379,-0.026428,-0.520203,-0.062012,7.0,-15.0,2.0,6411.0,-127.0,3417.0,-872.0,-286.0,-329.0,-141.0,-251.0,-931.0,0.889057,0.019516,0.457383,12032.0,-550.0,6418.0,162.0,-337.0,52.0
2859.0,2759.0,2863.0,3115.0,2999.0,0.850037,-0.025879,-0.522461,-0.061035,10.0,-25.0,1.0,6375.0,-161.0,3394.0,-927.0,-323.0,-314.0,-178.0,-282.0,-974.0,0.891381,0.019781,0.452652,12816.0,-492.0,6728.0,236.0,-552.0,42.0
2850.0,2800.0,2852.0,3111.0,3007.0,0.846497,-0.023865,-0.528625,-0.058472,17.0,-30.0,1.0,6655.0,-312.0,3339.0,-699.0,-487.0,-265.0,-127.0,-458.0,-754.0,0.89775,0.021416,0.439961,14368.0,-1454.0,6402.0,400.0,-677.0,31.0
2849.0,2769.0,2867.0,3151.0,3031.0,0.844666,-0.022278,-0.53186,-0.056519,23.0,-29.0,1.0,6818.0,-467.0,3266.0,-563.0,-651.0,-283.0,-64.0,-633.0,-644.0,0.901006,0.022485,0.433282,14640.0,-1850.0,6068.0,547.0,-645.0,43.0
2855.0,2789.0,2821.0,3155.0,3015.0,0.841675,-0.016846,-0.537231,-0.051392,37.0,-18.0,-1.0,7132.0,-604.0,3205.0,-290.0,-824.0,-253.0,21.0,-820.0,-391.0,0.90608,0.026861,0.422156,14650.0,-894.0,6242.0,865.0,-403.0,-19.0
2833.0,2755.0,2831.0,3131.0,3015.0,0.840759,-0.012817,-0.539001,-0.049194,38.0,-13.0,-7.0,7037.0,-313.0,3044.0,-398.0,-570.0,-385.0,128.0,-568.0,-540.0,0.907602,0.031479,0.418609,13224.0,1690.0,4942.0,882.0,-285.0,-145.0
2831.0,2758.0,2807.0,3125.0,2997.0,0.838257,-0.006287,-0.542908,-0.049744,4.0,-21.0,-14.0,6841.0,754.0,3070.0,-620.0,397.0,-291.0,49.0,423.0,-666.0,0.910818,0.043473,0.410361,13102.0,4550.0,6714.0,99.0,-469.0,-317.0
2847.0,2759.0,2826.0,3147.0,3047.0,0.836609,-0.005981,-0.545227,-0.052368,-17.0,-27.0,-13.0,6805.0,1161.0,3153.0,-673.0,775.0,-167.0,-43.0,814.0,-645.0,0.91291,0.047097,0.405349,13460.0,4450.0,6826.0,-386.0,-597.0,-292.0
2835.0,2762.0,2866.0,3135.0,2991.0,0.832397,-0.011475,-0.550781,-0.059937,-45.0,-32.0,-8.0,6990.0,1171.0,3286.0,-532.0,786.0,66.0,-177.0,832.0,-425.0,0.918313,0.046921,0.392986,15014.0,1280.0,6860.0,-1027.0,-726.0,-183.0
2845.0,2769.0,2790.0,3122.0,3013.0,0.830322,-0.016052,-0.553406,-0.06366,-48.0,-29.0,-6.0,7098.0,875.0,3182.0,-447.0,516.0,11.0,-115.0,551.0,-384.0,0.921054,0.043802,0.386972,14686.0,-210.0,5370.0,-1083.0,-664.0,-117.0
2839.0,2755.0,2786.0,3163.0,2991.0,0.825867,-0.025635,-0.559021,-0.069214,-39.0,-30.0,0.0,7272.0,254.0,2930.0,-321.0,-33.0,-131.0,-1.0,-20.0,-347.0,0.926902,0.035042,0.373685,15274.0,-794.0,5684.0,-893.0,-680.0,16.0
2842.0,2763.0,2835.0,3127.0,3023.0,0.823853,-0.029907,-0.561523,-0.071167,-35.0,-27.0,2.0,7347.0,104.0,2854.0,-267.0,-147.0,-157.0,26.0,-143.0,-310.0,0.929482,0.030646,0.367595,15008.0,-500.0,5206.0,-798.0,-596.0,58.0
2862.0,2752.0,2847.0,3127.0,3027.0,0.820496,-0.036743,-0.565552,-0.075012,-31.0,-20.0,-1.0,7469.0,252.0,2789.0,-178.0,50.0,-140.0,75.0,43.0,-215.0,0.933578,0.024551,0.357641,15624.0,1182.0,5874.0,-705.0,-438.0,-8.0
2835.0,2766.0,2786.0,3110.0,2999.0,0.819214,-0.039795,-0.566833,-0.077393,-32.0,-15.0,-3.0,7583.0,290.0,2801.0,-75.0,105.0,-100.0,84.0,94.0,-103.0,0.934875,0.022536,0.354217,15812.0,660.0,5444.0,-718.0,-327.0,-53.0
2842.0,2769.0,2815.0,3135.0,3035.0,0.817139,-0.044861,-0.568909,-0.081543,-22.0,-11.0,-4.0,7748.0,113.0,2755.0,71.0,-46.0,-101.0,108.0,-67.0,30.0,0.937071,0.019466,0.348695,15908.0,-554.0,5248.0,-490.0,-240.0,-70.0
2847.0,2771.0,2833.0,3139.0,3015.0,0.816162,-0.046814,-0.569946,-0.082642,-16.0,-12.0,-1.0,7811.0,21.0,2664.0,126.0,-124.0,-169.0,174.0,-160.0,57.0,0.938075,0.017787,0.34592,16138.0,-364.0,4880.0,-355.0,-253.0,-2.0
2843.0,2799.0,2833.0,3151.0,3043.0,0.814758,-0.048645,-0.571777,-0.082825,0.0,-5.0,2.0,8237.0,-30.0,2744.0,538.0,-156.0,-52.0,197.0,-204.0,485.0,0.939779,0.015447,0.341395,17582.0,-106.0,5454.0,5.0,-92.0,63.0
2853.0,2749.0,2832.0,3126.0,3049.0,0.81488,-0.048645,-0.571716,-0.082031,4.0,4.0,5.0,8279.0,20.0,2673.0,580.0,-98.0,-124.0,289.0,-162.0,501.0,0.939742,0.014517,0.341533,16562.0,486.0,4824.0,110.0,97.0,127.0
2849.0,2731.0,2831.0,3147.0,3031.0,0.816345,-0.047729,-0.569946,-0.0802,7.0,14.0,5.0,8225.0,272.0,2578.0,539.0,161.0,-254.0,446.0,73.0,420.0,0.938202,0.013492,0.345735,16392.0,1336.0,5010.0,181.0,339.0,129.0
2839.0,2752.0,2839.0,3147.0,3035.0,0.817566,-0.046692,-0.56842,-0.079224,10.0,19.0,5.0,8221.0,393.0,2590.0,546.0,280.0,-272.0,488.0,188.0,420.0,0.936841,0.013717,0.349409,16454.0,1498.0,5340.0,246.0,436.0,121.0
2854.0,2762.0,2831.0,3127.0,3031.0,0.820679,-0.043396,-0.564636,-0.075989,22.0,22.0,10.0,8396.0,502.0,2725.0,749.0,382.0,-212.0,524.0,286.0,628.0,0.933365,0.014584,0.358591,17802.0,902.0,6322.0,514.0,520.0,239.0
2839.0,2759.0,2815.0,3151.0,3011.0,0.822632,-0.041382,-0.562439,-0.072327,31.0,24.0,20.0,8555.0,371.0,3013.0,925.0,262.0,31.0,344.0,195.0,876.0,0.931346,0.013275,0.363904,17952.0,-244.0,7930.0,732.0,564.0,470.0
2843.0,2759.0,2830.0,3138.0,3047.0,0.82843,-0.035217,-0.555725,-0.060608,54.0,39.0,26.0,7775.0,230.0,3244.0,197.0,156.0,131.0,-24.0,158.0,233.0,0.925028,0.009013,0.379899,10912.0,162.0,6160.0,1253.0,907.0,605.0
2847.0,2767.0,2855.0,3151.0,3035.0,0.831604,-0.03064,-0.551758,-0.054993,54.0,39.0,17.0,7017.0,150.0,2984.0,-528.0,70.0,-204.0,-8.0,77.0,-565.0,0.921058,0.009725,0.389214,9534.0,-274.0,4150.0,1248.0,896.0,402.0
2842.0,2769.0,2823.0,3143.0,3039.0,0.835083,-0.022095,-0.547607,-0.047058,41.0,11.0,5.0,6010.0,119.0,2589.0,-1499.0,0.0,-681.0,28.0,21.0,-1645.0,0.916675,0.014637,0.399216,9924.0,330.0,5050.0,944.0,255.0,134.0
2859.0,2775.0,2851.0,3147.0,3055.0,0.835571,-0.019409,-0.54718,-0.044434,21.0,1.0,8.0,5446.0,443.0,2461.0,-2059.0,310.0,-818.0,-41.0,351.0,-2208.0,0.916141,0.016191,0.400371,6178.0,3100.0,2212.0,501.0,38.0,195.0
2837.0,2783.0,2847.0,3143.0,3013.0,0.831665,-0.020386,-0.553223,-0.042786,-8.0,-34.0,17.0,6358.0,797.0,3032.0,-1194.0,686.0,-138.0,-267.0,729.0,-1144.0,0.921936,0.013432,0.387026,17356.0,2238.0,9690.0,-170.0,-768.0,397.0
2845.0,2770.0,2851.0,3151.0,3035.0,0.830383,-0.022339,-0.555176,-0.041504,-9.0,-21.0,20.0,6848.0,796.0,3207.0,-720.0,722.0,73.0,-273.0,756.0,-630.0,0.923872,0.008984,0.38254,16234.0,1334.0,6884.0,-204.0,-468.0,472.0
2847.0,2783.0,2863.0,3135.0,3031.0,0.828796,-0.026306,-0.557556,-0.038635,-4.0,-7.0,17.0,7482.0,330.0,3177.0,-105.0,334.0,89.0,-90.0,343.0,-63.0,0.926234,-0.000522,0.376835,16110.0,-1160.0,5766.0,-74.0,-157.0,391.0
2863.0,2763.0,2823.0,3127.0,3024.0,0.828552,-0.027466,-0.558044,-0.036743,3.0,-3.0,15.0,7583.0,100.0,3008.0,-8.0,136.0,-69.0,73.0,129.0,-33.0,0.926756,-0.004505,0.375681,15630.0,-1004.0,4946.0,75.0,-60.0,346.0
2845.0,2779.0,2823.0,3167.0,3053.0,0.828308,-0.027649,-0.558533,-0.033569,6.0,0.0,7.0,7543.0,33.0,2719.0,-52.0,101.0,-348.0,310.0,72.0,-179.0,0.927131,-0.008305,0.374498,14474.0,32.0,4342.0,150.0,4.0,177.0
2843.0,2783.0,2847.0,3135.0,3045.0,0.828125,-0.027527,-0.558899,-0.032715,4.0,-1.0,4.0,7474.0,-17.0,2618.0,-123.0,56.0,-443.0,368.0,22.0,-280.0,0.927477,-0.009023,0.373736,14574.0,-498.0,4626.0,114.0,-19.0,103.0
2851.0,2771.0,2855.0,3143.0,3022.0,0.827576,-0.026917,-0.559753,-0.031982,3.0,-3.0,-4.0,7320.0,-150.0,2357.0,-283.0,-78.0,-689.0,525.0,-126.0,-518.0,0.928198,-0.008746,0.371856,14334.0,-510.0,4084.0,79.0,-56.0,-70.0
2855.0,2778.0,2864.0,3133.0,3023.0,0.827209,-0.026367,-0.560364,-0.032471,1.0,-2.0,-9.0,7378.0,-211.0,2295.0,-230.0,-151.0,-741.0,588.0,-204.0,-487.0,0.928789,-0.007232,0.370627,15274.0,-826.0,4224.0,26.0,-42.0,-184.0
2851.0,2751.0,2827.0,3131.0,3009.0,0.827332,-0.024963,-0.560059,-0.035034,-1.0,12.0,-18.0,7673.0,-396.0,2185.0,67.0,-379.0,-857.0,784.0,-448.0,-255.0,0.928457,-0.002064,0.371416,16082.0,-1516.0,4272.0,-12.0,286.0,-398.0
2847.0,2759.0,2835.0,3147.0,3027.0,0.828247,-0.023743,-0.558594,-0.037048,0.0,20.0,-23.0,7741.0,-598.0,2205.0,146.0,-614.0,-865.0,799.0,-686.0,-190.0,0.927067,0.00206,0.374775,15780.0,-2564.0,4510.0,14.0,465.0,-523.0
2859.0,2775.0,2835.0,3127.0,3047.0,0.831055,-0.019958,-0.554382,-0.040527,11.0,24.0,-26.0,7350.0,-1051.0,2119.0,-211.0,-1147.0,-1031.0,765.0,-1213.0,-604.0,0.923062,0.011762,0.384556,12508.0,-2816.0,4288.0,254.0,562.0,-575.0
2839.0,2782.0,2851.0,3139.0,3011.0,0.832092,-0.018005,-0.552734,-0.041931,6.0,15.0,-22.0,6853.0,-906.0,2103.0,-694.0,-1040.0,-1077.0,628.0,-1083.0,-1074.0,0.921362,0.016389,0.388296,10658.0,-512.0,4010.0,156.0,354.0,-486.0
2853.0,2749.0,2819.0,3147.0,3027.0,0.831055,-0.017151,-0.554016,-0.045898,-18.0,-21.0,-11.0,6068.0,-67.0,2373.0,-1488.0,-250.0,-785.0,129.0,-225.0,-1680.0,0.92241,0.02235,0.385531,10366.0,2882.0,6058.0,-390.0,-478.0,-233.0
2849.0,2751.0,2819.0,3121.0,3024.0,0.825745,-0.023804,-0.561035,-0.053406,-54.0,-47.0,-5.0,6360.0,730.0,2887.0,-1251.0,561.0,-138.0,-264.0,620.0,-1201.0,0.929086,0.020613,0.369379,15708.0,2628.0,7946.0,-1235.0,-1061.0,-110.0
2851.0,2755.0,2833.0,3139.0,3027.0,0.822876,-0.029541,-0.564514,-0.057983,-62.0,-39.0,-4.0,7019.0,705.0,3248.0,-619.0,566.0,291.0,-416.0,632.0,-462.0,0.932476,0.016848,0.360938,18136.0,940.0,8452.0,-1403.0,-892.0,-71.0
2843.0,2757.0,2833.0,3143.0,3023.0,0.819641,-0.040283,-0.567688,-0.065674,-45.0,-11.0,-3.0,8016.0,180.0,3538.0,349.0,110.0,652.0,-465.0,178.0,557.0,0.935892,0.008529,0.352232,17602.0,-1656.0,7308.0,-1009.0,-250.0,-60.0
2853.0,2753.0,2831.0,3133.0,3021.0,0.819275,-0.043762,-0.567749,-0.067749,-28.0,-4.0,-2.0,8007.0,-103.0,3509.0,337.0,-145.0,629.0,-488.0,-70.0,535.0,0.936215,0.005222,0.351547,15398.0,-1806.0,6680.0,-637.0,-71.0,-29.0
2846.0,2751.0,2837.0,3121.0,3007.0,0.818604,-0.046265,-0.568298,-0.068787,-3.0,-10.0,1.0,7483.0,-40.0,3327.0,-191.0,-59.0,461.0,-501.0,24.0,-17.0,0.936787,0.002438,0.34974,13554.0,1058.0,6488.0,-57.0,-223.0,36.0
2839.0,2759.0,2837.0,3139.0,3027.0,0.81781,-0.046448,-0.569519,-0.068726,-2.0,-17.0,3.0,7318.0,253.0,3322.0,-365.0,234.0,479.0,-529.0,326.0,-175.0,0.937901,0.00231,0.347027,13784.0,2344.0,6662.0,-35.0,-373.0,81.0
2835.0,2754.0,2832.0,3139.0,3025.0,0.815002,-0.048035,-0.573364,-0.068665,-10.0,-26.0,9.0,7374.0,701.0,3336.0,-336.0,697.0,568.0,-522.0,795.0,-124.0,0.941183,0.000443,0.33789,15562.0,2188.0,6706.0,-228.0,-587.0,216.0
2830.0,2736.0,2815.0,3125.0,3039.0,0.813293,-0.049927,-0.575623,-0.068481,-13.0,-26.0,12.0,7575.0,733.0,3282.0,-151.0,752.0,559.0,-442.0,838.0,41.0,0.943138,-0.002371,0.332302,16520.0,1454.0,6168.0,-297.0,-588.0,282.0
2843.0,2755.0,2807.0,3147.0,3024.0,0.810852,-0.053833,-0.578796,-0.067749,-10.0,-11.0,10.0,8017.0,496.0,3050.0,267.0,568.0,394.0,-183.0,612.0,375.0,0.945931,-0.008875,0.324168,16884.0,-166.0,4820.0,-207.0,-236.0,250.0
2849.0,2743.0,2832.0,3147.0,3039.0,0.810486,-0.055054,-0.579224,-0.0672,-5.0,-2.0,8.0,8035.0,286.0,2778.0,282.0,379.0,133.0,31.0,382.0,305.0,0.946304,-0.011393,0.322872,15974.0,-532.0,3918.0,-93.0,-37.0,185.0
2846.0,2762.0,2835.0,3135.0,3037.0,0.810913,-0.055664,-0.578735,-0.06604,4.0,8.0,3.0,7976.0,-61.0,2357.0,226.0,52.0,-296.0,357.0,-7.0,117.0,0.94596,-0.013838,0.323908,15936.0,-1158.0,3866.0,100.0,198.0,71.0
2843.0,2733.0,2819.0,3135.0,3021.0,0.811646,-0.055176,-0.577942,-0.065002,9.0,12.0,3.0,7945.0,-180.0,2264.0,200.0,-61.0,-406.0,432.0,-135.0,57.0,0.945341,-0.014431,0.325933,15484.0,-976.0,4044.0,223.0,289.0,85.0
2835.0,2751.0,2819.0,3143.0,3007.0,0.813538,-0.052795,-0.575745,-0.062561,13.0,11.0,1.0,7348.0,-123.0,2003.0,-380.0,-9.0,-712.0,535.0,-105.0,-594.0,0.943386,-0.013864,0.331488,12730.0,412.0,3322.0,304.0,273.0,40.0
2847.0,2767.0,2832.0,3135.0,3025.0,0.813904,-0.051819,-0.575378,-0.06189,8.0,4.0,1.0,7221.0,-55.0,2038.0,-504.0,52.0,-686.0,480.0,-34.0,-704.0,0.943019,-0.013131,0.332524,14132.0,150.0,4606.0,186.0,102.0,27.0
2843.0,2758.0,2839.0,3131.0,3027.0,0.81427,-0.050171,-0.575195,-0.05957,16.0,1.0,6.0,7650.0,-134.0,2422.0,-72.0,-26.0,-307.0,257.0,-68.0,-169.0,0.942706,-0.013176,0.333218,17316.0,-480.0,6350.0,368.0,43.0,149.0
2833.0,2751.0,2832.0,3123.0,3025.0,0.814941,-0.04834,-0.574707,-0.056885,28.0,6.0,10.0,8056.0,-169.0,2838.0,337.0,-59.0,95.0,14.0,-57.0,350.0,0.942205,-0.013404,0.33474,18586.0,-648.0,8376.0,654.0,153.0,232.0
2837.0,2751.0,2841.0,3126.0,3023.0,0.819214,-0.041443,-0.569946,-0.048279,49.0,34.0,14.0,8508.0,-204.0,3435.0,825.0,-98.0,593.0,-278.0,-50.0,980.0,0.937817,-0.012868,0.346886,16790.0,-310.0,7828.0,1132.0,796.0,336.0
2847.0,2770.0,2832.0,3142.0,3030.0,0.822937,-0.036926,-0.565186,-0.043762,50.0,50.0,11.0,8158.0,-179.0,3283.0,511.0,-86.0,347.0,-148.0,-62.0,602.0,0.933456,-0.011308,0.358342,13450.0,-80.0,4890.0,1155.0,1161.0,255.0
2849.0,2773.0,2838.0,3152.0,3035.0,0.828735,-0.028931,-0.557617,-0.037354,31.0,28.0,4.0,6693.0,116.0,2392.0,-896.0,167.0,-691.0,316.0,130.0,-1091.0,0.926395,-0.006294,0.376424,9478.0,2046.0,4764.0,729.0,654.0,95.0
2859.0,2783.0,2838.0,3139.0,3030.0,0.829773,-0.027771,-0.556213,-0.037048,0.0,8.0,-1.0,6196.0,508.0,1851.0,-1382.0,547.0,-1259.0,686.0,477.0,-1759.0,0.925119,-0.004874,0.379751,11390.0,3754.0,644.0,2.0,199.0,-8.0
2859.0,2768.0,2835.0,3131.0,3030.0,0.829956,-0.030273,-0.555664,-0.038269,-16.0,12.0,8.0,7291.0,493.0,2867.0,-283.0,556.0,-250.0,176.0,538.0,-361.0,0.924671,-0.007722,0.380613,16544.0,610.0,6506.0,-360.0,284.0,193.0
2835.0,2775.0,2839.0,3153.0,3025.0,0.831055,-0.032349,-0.553833,-0.038757,-18.0,19.0,7.0,7617.0,315.0,2899.0,55.0,403.0,-249.0,290.0,375.0,-49.0,0.923039,-0.010837,0.384377,17222.0,-570.0,5994.0,-402.0,452.0,173.0
2857.0,2770.0,2846.0,3143.0,3031.0,0.835083,-0.035645,-0.547546,-0.039734,-9.0,41.0,1.0,8011.0,-191.0,2809.0,496.0,-59.0,-450.0,601.0,-118.0,276.0,0.917326,-0.01602,0.397865,16338.0,-1590.0,5080.0,-199.0,946.0,34.0
2847.0,2775.0,2845.0,3127.0,3033.0,0.837891,-0.036255,-0.543091,-0.0401,-6.0,47.0,0.0,7849.0,-298.0,2728.0,369.0,-157.0,-609.0,685.0,-229.0,91.0,0.913009,-0.017199,0.407407,14114.0,-1026.0,4614.0,-119.0,1081.0,3.0
2850.0,2782.0,2835.0,3129.0,3035.0,0.842957,-0.037048,-0.535095,-0.040833,-4.0,32.0,-1.0,6921.0,-381.0,2604.0,-493.0,-227.0,-873.0,551.0,-303.0,-812.0,0.90515,-0.018762,0.424544,10836.0,-1088.0,4886.0,-84.0,751.0,-3.0
2863.0,2753.0,2843.0,3143.0,3025.0,0.844421,-0.037354,-0.532837,-0.041138,-3.0,18.0,-2.0,6521.0,-469.0,2605.0,-875.0,-311.0,-912.0,408.0,-380.0,-1175.0,0.902951,-0.019245,0.429429,10892.0,-1522.0,5306.0,-64.0,426.0,-24.0
2847.0,2779.0,2835.0,3147.0,3038.0,0.845032,-0.037354,-0.531799,-0.041138,5.0,-2.0,-5.0,6262.0,-801.0,2713.0,-1125.0,-642.0,-822.0,181.0,-692.0,-1356.0,0.901848,-0.019376,0.431565,12232.0,-2868.0,5822.0,121.0,-35.0,-93.0
2853.0,2766.0,2847.0,3125.0,3030.0,0.844666,-0.036438,-0.532532,-0.040527,13.0,-9.0,-6.0,6193.0,-1026.0,2781.0,-1200.0,-875.0,-743.0,56.0,-912.0,-1386.0,0.902576,-0.018392,0.430185,11984.0,-3410.0,5926.0,305.0,-199.0,-119.0
2861.0,2775.0,2846.0,3131.0,3024.0,0.842407,-0.032104,-0.53656,-0.037476,33.0,-23.0,-7.0,6464.0,-1420.0,2904.0,-961.0,-1306.0,-554.0,-32.0,-1324.0,-1086.0,0.90641,-0.013874,0.422127,14858.0,-3592.0,6416.0,756.0,-506.0,-144.0
2851.0,2783.0,2844.0,3151.0,3025.0,0.841248,-0.028137,-0.538757,-0.035034,43.0,-18.0,-8.0,6894.0,-1363.0,3049.0,-547.0,-1284.0,-374.0,-4.0,-1294.0,-640.0,0.908428,-0.009591,0.417874,16446.0,-1948.0,7062.0,996.0,-393.0,-169.0
2851.0,2775.0,2833.0,3135.0,3027.0,0.84082,-0.018188,-0.540039,-0.032837,24.0,1.0,-18.0,7142.0,-30.0,3206.0,-307.0,-69.0,-202.0,50.0,-71.0,-363.0,0.909346,0.00488,0.416084,13766.0,5172.0,6358.0,568.0,34.0,-395.0
2855.0,2768.0,2832.0,3131.0,3038.0,0.840698,-0.01532,-0.5401,-0.035522,-5.0,-2.0,-24.0,6987.0,748.0,3272.0,-461.0,644.0,-136.0,-18.0,653.0,-467.0,0.909211,0.012613,0.416093,12986.0,5786.0,7072.0,-100.0,-25.0,-532.0
2855.0,2767.0,2838.0,3127.0,3019.0,0.839478,-0.018372,-0.541077,-0.046753,-56.0,-14.0,-23.0,6580.0,1212.0,3452.0,-876.0,1050.0,62.0,-312.0,1101.0,-750.0,0.910161,0.019749,0.413807,11614.0,1984.0,7062.0,-1278.0,-316.0,-522.0
2847.0,2768.0,2845.0,3133.0,3031.0,0.835632,-0.029968,-0.545349,-0.058777,-69.0,-36.0,-12.0,6303.0,625.0,3110.0,-1192.0,510.0,-194.0,-231.0,561.0,-1161.0,0.914946,0.014023,0.403432,13230.0,-542.0,5392.0,-1575.0,-820.0,-256.0
2849.0,2755.0,2832.0,3143.0,3035.0,0.832458,-0.036865,-0.549194,-0.063538,-66.0,-43.0,-5.0,6800.0,274.0,3228.0,-728.0,205.0,0.0,-252.0,250.0,-667.0,0.919048,0.008411,0.394051,17340.0,-1692.0,7862.0,-1492.0,-979.0,-101.0
2846.0,2759.0,2832.0,3135.0,3019.0,0.82843,-0.047424,-0.553833,-0.068237,-31.0,-18.0,5.0,7948.0,-277.0,3635.0,377.0,-252.0,505.0,-359.0,-193.0,542.0,0.924096,-0.002991,0.381973,17858.0,-1672.0,7120.0,-707.0,-390.0,131.0
2843.0,2742.0,2823.0,3133.0,3027.0,0.827637,-0.050415,-0.554749,-0.068665,-19.0,-10.0,7.0,8055.0,-341.0,3524.0,475.0,-281.0,415.0,-247.0,-238.0,598.0,0.925184,-0.007268,0.37941,16456.0,-856.0,6332.0,-425.0,-210.0,183.0
2845.0,2755.0,2835.0,3131.0,3025.0,0.827332,-0.053589,-0.554932,-0.068726,-8.0,2.0,5.0,8039.0,-103.0,3369.0,456.0,-1.0,269.0,-74.0,18.0,523.0,0.925591,-0.012396,0.37838,15964.0,772.0,6304.0,-183.0,66.0,126.0
2843.0,2763.0,2832.0,3139.0,3031.0,0.82782,-0.054321,-0.554077,-0.06897,-8.0,9.0,3.0,7989.0,55.0,3311.0,412.0,165.0,197.0,4.0,172.0,453.0,0.924845,-0.013507,0.38009,15492.0,1028.0,6174.0,-163.0,221.0,80.0
2849.0,2771.0,2839.0,3142.0,3023.0,0.82959,-0.055359,-0.551147,-0.070557,-10.0,15.0,-1.0,7645.0,259.0,3071.0,89.0,374.0,-94.0,185.0,347.0,40.0,0.922265,-0.014076,0.386369,14436.0,876.0,5446.0,-216.0,358.0,-22.0
2838.0,2758.0,2831.0,3135.0,3023.0,0.830383,-0.055969,-0.549744,-0.071533,-11.0,14.0,-2.0,7561.0,255.0,3012.0,16.0,372.0,-177.0,233.0,334.0,-59.0,0.921003,-0.014302,0.389303,14634.0,396.0,5814.0,-232.0,324.0,-27.0
2847.0,2747.0,2830.0,3127.0,3027.0,0.831665,-0.057007,-0.547485,-0.07312,-6.0,8.0,-3.0,7244.0,119.0,2862.0,-284.0,239.0,-365.0,262.0,187.0,-408.0,0.918986,-0.014757,0.394023,13844.0,-258.0,5518.0,-132.0,196.0,-53.0
2846.0,2768.0,2835.0,3143.0,3035.0,0.832031,-0.057129,-0.546875,-0.07373,-4.0,6.0,-4.0,7280.0,46.0,2907.0,-244.0,164.0,-331.0,233.0,117.0,-357.0,0.918458,-0.014423,0.395376,15028.0,-348.0,6172.0,-70.0,141.0,-77.0
2845.0,2769.0,2837.0,3141.0,3031.0,0.832886,-0.055969,-0.545654,-0.073792,8.0,7.0,-1.0,7610.0,6.0,3146.0,96.0,110.0,-116.0,162.0,82.0,40.0,0.917195,-0.012703,0.398273,16312.0,126.0,7138.0,191.0,174.0,-14.0
2837.0,2767.0,2831.0,3135.0,3023.0,0.833557,-0.054565,-0.544861,-0.072815,15.0,9.0,2.0,7802.0,70.0,3287.0,295.0,165.0,7.0,140.0,145.0,271.0,0.916292,-0.011619,0.400269,16770.0,640.0,7380.0,349.0,212.0,66.0
2847.0,2769.0,2839.0,3139.0,3027.0,0.836121,-0.049866,-0.541931,-0.068604,29.0,21.0,9.0,8290.0,187.0,3760.0,810.0,260.0,420.0,-7.0,273.0,908.0,0.913082,-0.009031,0.407628,17496.0,574.0,8762.0,680.0,491.0,215.0
2850.0,2769.0,2839.0,3151.0,3025.0,0.83844,-0.046387,-0.539001,-0.06543,39.0,32.0,9.0,8283.0,157.0,3798.0,829.0,216.0,401.0,14.0,223.0,918.0,0.909911,-0.007252,0.414588,16024.0,44.0,7540.0,896.0,749.0,224.0
2851.0,2751.0,2839.0,3153.0,3014.0,0.844788,-0.036621,-0.53064,-0.058472,48.0,47.0,3.0,7634.0,55.0,3718.0,254.0,53.0,161.0,-27.0,57.0,298.0,0.900838,0.000181,0.434165,12660.0,-582.0,7212.0,1118.0,1096.0,85.0
2855.0,2773.0,2843.0,3125.0,3025.0,0.848206,-0.032043,-0.525818,-0.055176,44.0,47.0,4.0,7096.0,-103.0,3524.0,-240.0,-133.0,-121.0,-15.0,-131.0,-269.0,0.895539,0.003666,0.444986,10732.0,-1206.0,5550.0,1013.0,1083.0,114.0
2853.0,2771.0,2814.0,3135.0,3031.0,0.852783,-0.026245,-0.519226,-0.049988,14.0,18.0,5.0,5715.0,86.0,2521.0,-1561.0,27.0,-1242.0,388.0,-2.0,-1956.0,0.888198,0.007147,0.459453,8758.0,1862.0,-1406.0,325.0,428.0,134.0
2853.0,2773.0,2839.0,3143.0,3030.0,0.852295,-0.025757,-0.520081,-0.048767,4.0,-8.0,10.0,5949.0,300.0,2997.0,-1333.0,244.0,-751.0,85.0,246.0,-1527.0,0.889036,0.006821,0.457638,14178.0,1460.0,10212.0,98.0,-169.0,250.0
2853.0,2783.0,2847.0,3153.0,3025.0,0.852478,-0.027649,-0.519958,-0.046204,-7.0,-4.0,16.0,6332.0,674.0,3581.0,-951.0,666.0,-168.0,-212.0,693.0,-921.0,0.889061,0.000908,0.457732,13158.0,1482.0,7486.0,-154.0,-71.0,386.0
2851.0,2763.0,2835.0,3131.0,3030.0,0.852234,-0.029358,-0.520386,-0.045227,-9.0,-8.0,14.0,6467.0,491.0,3621.0,-820.0,515.0,-120.0,-210.0,538.0,-785.0,0.889636,-0.002969,0.456685,13840.0,-430.0,7406.0,-199.0,-165.0,336.0
2851.0,2767.0,2829.0,3131.0,3029.0,0.851257,-0.032043,-0.522034,-0.042053,4.0,-10.0,15.0,6666.0,-126.0,3576.0,-636.0,-38.0,-133.0,-173.0,-26.0,-626.0,0.891465,-0.010648,0.452862,13418.0,-1844.0,6652.0,97.0,-226.0,346.0
2859.0,2773.0,2839.0,3147.0,3027.0,0.850525,-0.032532,-0.523438,-0.039734,9.0,-16.0,15.0,6606.0,-270.0,3484.0,-709.0,-157.0,-201.0,-155.0,-151.0,-721.0,0.892978,-0.013742,0.449926,12786.0,-1226.0,6404.0,216.0,-349.0,349.0
2859.0,2770.0,2839.0,3152.0,3029.0,0.847717,-0.032227,-0.528259,-0.035278,10.0,-29.0,10.0,6475.0,-234.0,3322.0,-880.0,-91.0,-280.0,-145.0,-93.0,-911.0,0.897903,-0.017366,0.439773,12720.0,-228.0,5898.0,245.0,-649.0,242.0
2855.0,2767.0,2837.0,3120.0,3027.0,0.845703,-0.031921,-0.531616,-0.033752,8.0,-33.0,6.0,6625.0,-273.0,3301.0,-758.0,-124.0,-243.0,-121.0,-127.0,-786.0,0.901334,-0.018105,0.432718,14514.0,-980.0,6610.0,205.0,-752.0,157.0
2855.0,2768.0,2835.0,3131.0,3027.0,0.84198,-0.030823,-0.53772,-0.031433,11.0,-23.0,-1.0,7208.0,-519.0,3183.0,-225.0,-370.0,-256.0,105.0,-386.0,-304.0,0.907436,-0.0181,0.419826,16384.0,-1766.0,6080.0,263.0,-523.0,-3.0
2839.0,2782.0,2847.0,3153.0,3027.0,0.84082,-0.029541,-0.539612,-0.03064,14.0,-13.0,-5.0,7455.0,-632.0,3083.0,6.0,-495.0,-323.0,253.0,-520.0,-120.0,0.909243,-0.01661,0.415864,16268.0,-2022.0,5498.0,332.0,-279.0,-104.0
2855.0,2769.0,2836.0,3151.0,3027.0,0.840393,-0.024841,-0.540527,-0.030029,21.0,6.0,-17.0,7602.0,-844.0,2928.0,147.0,-767.0,-466.0,424.0,-802.0,-52.0,0.910003,-0.00929,0.414375,14852.0,-2354.0,5416.0,501.0,140.0,-386.0
2853.0,2759.0,2839.0,3131.0,3034.0,0.84082,-0.021362,-0.539978,-0.030212,26.0,9.0,-22.0,7475.0,-956.0,2798.0,25.0,-929.0,-608.0,493.0,-968.0,-227.0,0.90934,-0.003296,0.415859,14136.0,-2560.0,4732.0,600.0,222.0,-484.0
2858.0,2763.0,2832.0,3127.0,3023.0,0.841614,-0.014221,-0.539001,-0.031067,15.0,7.0,-21.0,7100.0,-546.0,2670.0,-339.0,-624.0,-758.0,503.0,-653.0,-631.0,0.908146,0.009553,0.418554,12772.0,1326.0,4972.0,355.0,169.0,-480.0
2851.0,2775.0,2841.0,3151.0,3031.0,0.841675,-0.012268,-0.538818,-0.033447,-4.0,2.0,-23.0,6866.0,-75.0,2586.0,-571.0,-201.0,-846.0,514.0,-223.0,-875.0,0.90784,0.015393,0.419059,12368.0,2734.0,4802.0,-77.0,60.0,-522.0
2855.0,2767.0,2835.0,3151.0,3035.0,0.840149,-0.014465,-0.540527,-0.04248,-46.0,-17.0,-21.0,6469.0,564.0,2640.0,-981.0,386.0,-761.0,319.0,385.0,-1199.0,0.909476,0.021618,0.415276,12304.0,2328.0,5322.0,-1035.0,-370.0,-463.0
2847.0,2767.0,2813.0,3143.0,3035.0,0.836487,-0.024902,-0.544678,-0.054138,-68.0,-26.0,-13.0,6825.0,498.0,2966.0,-661.0,356.0,-354.0,98.0,359.0,-741.0,0.913928,0.017315,0.405347,15782.0,-94.0,7034.0,-1539.0,-576.0,-293.0
2847.0,2738.0,2832.0,3141.0,3024.0,0.834717,-0.031128,-0.546631,-0.059082,-62.0,-22.0,-8.0,7297.0,186.0,3156.0,-208.0,82.0,-124.0,41.0,80.0,-239.0,0.916242,0.012626,0.400469,17576.0,-1634.0,7550.0,-1416.0,-503.0,-174.0
2849.0,2758.0,2832.0,3135.0,3023.0,0.833008,-0.040588,-0.547974,-0.064514,-30.0,-2.0,0.0,7846.0,-363.0,3436.0,324.0,-388.0,190.0,-104.0,-377.0,371.0,0.91817,0.003083,0.396142,16184.0,-1716.0,7212.0,-681.0,-40.0,19.0
2847.0,2773.0,2834.0,3143.0,3025.0,0.833191,-0.043091,-0.547424,-0.065491,-19.0,4.0,2.0,7747.0,-338.0,3387.0,227.0,-337.0,135.0,-86.0,-327.0,261.0,0.917862,-0.000103,0.396966,14600.0,-210.0,6362.0,-425.0,103.0,65.0
2849.0,2757.0,2831.0,3143.0,3039.0,0.833557,-0.046326,-0.546387,-0.067017,-16.0,0.0,3.0,7320.0,87.0,3361.0,-192.0,119.0,95.0,-142.0,143.0,-138.0,0.917098,-0.003996,0.398624,13576.0,1652.0,7056.0,-349.0,19.0,87.0
2837.0,2759.0,2845.0,3135.0,3027.0,0.833557,-0.048035,-0.546143,-0.067993,-19.0,-2.0,4.0,7257.0,307.0,3453.0,-255.0,354.0,185.0,-209.0,393.0,-162.0,0.917014,-0.005811,0.398861,14314.0,1896.0,7426.0,-423.0,-43.0,98.0
2843.0,2759.0,2832.0,3135.0,3024.0,0.833191,-0.051575,-0.546021,-0.070496,-18.0,-3.0,0.0,7187.0,408.0,3444.0,-326.0,481.0,180.0,-207.0,522.0,-231.0,0.91715,-0.008959,0.398378,14226.0,696.0,6324.0,-408.0,-67.0,9.0
2847.0,2765.0,2831.0,3143.0,3031.0,0.832825,-0.052979,-0.546265,-0.071716,-16.0,-4.0,-2.0,7368.0,356.0,3464.0,-148.0,437.0,207.0,-167.0,473.0,-57.0,0.917484,-0.009891,0.397528,16310.0,292.0,7342.0,-347.0,-88.0,-40.0
2846.0,2767.0,2841.0,3135.0,3031.0,0.833435,-0.05426,-0.545044,-0.073242,-5.0,12.0,-1.0,7906.0,163.0,3500.0,398.0,249.0,223.0,1.0,257.0,451.0,0.916466,-0.010604,0.399961,16622.0,-288.0,6530.0,-94.0,292.0,-11.0
2845.0,2755.0,2831.0,3135.0,3029.0,0.834534,-0.054199,-0.543274,-0.073364,0.0,20.0,0.0,7961.0,73.0,3403.0,467.0,161.0,95.0,130.0,144.0,463.0,0.914713,-0.010748,0.403745,16150.0,-320.0,6268.0,17.0,460.0,9.0
2845.0,2757.0,2831.0,3139.0,3026.0,0.837891,-0.051758,-0.538513,-0.072693,13.0,27.0,-2.0,7781.0,73.0,3238.0,326.0,142.0,-158.0,300.0,92.0,229.0,0.909955,-0.008443,0.41467,14978.0,370.0,6218.0,317.0,630.0,-32.0
2843.0,2765.0,2835.0,3143.0,3027.0,0.839722,-0.0495,-0.53595,-0.071777,20.0,27.0,-1.0,7795.0,90.0,3265.0,363.0,140.0,-180.0,335.0,84.0,252.0,0.907203,-0.006194,0.420592,15946.0,168.0,6782.0,460.0,639.0,-14.0
2845.0,2759.0,2833.0,3155.0,3038.0,0.844421,-0.042664,-0.529785,-0.066772,43.0,37.0,9.0,8162.0,-17.0,3739.0,785.0,-6.0,175.0,180.0,-33.0,782.0,0.900421,-0.001302,0.435014,17192.0,-248.0,9148.0,1002.0,864.0,208.0
2843.0,2758.0,2837.0,3134.0,3029.0,0.847656,-0.037476,-0.525452,-0.062561,55.0,45.0,9.0,8043.0,57.0,3802.0,707.0,38.0,157.0,177.0,10.0,703.0,0.895494,0.002213,0.444931,14730.0,518.0,7474.0,1260.0,1045.0,217.0
2847.0,2763.0,2847.0,3135.0,3031.0,0.855042,-0.02301,-0.515198,-0.054688,71.0,59.0,-8.0,7323.0,-198.0,3618.0,84.0,-337.0,-216.0,189.0,-361.0,-32.0,0.883548,0.017,0.468129,12884.0,-1140.0,5974.0,1641.0,1355.0,-164.0
2851.0,2770.0,2835.0,3153.0,3031.0,0.858826,-0.014709,-0.509521,-0.051453,69.0,61.0,-13.0,6980.0,-138.0,3243.0,-201.0,-360.0,-692.0,471.0,-396.0,-518.0,0.876694,0.027167,0.4804,11640.0,272.0,4050.0,1593.0,1399.0,-279.0
2855.0,2766.0,2843.0,3155.0,3037.0,0.864075,-0.001587,-0.501038,-0.048401,29.0,34.0,-11.0,6035.0,639.0,2868.0,-1059.0,264.0,-1211.0,548.0,287.0,-1508.0,0.866021,0.045759,0.497927,9188.0,4980.0,7178.0,675.0,791.0,-233.0
2854.0,2767.0,2833.0,3135.0,3035.0,0.865295,0.0,-0.498718,-0.049927,-8.0,18.0,-9.0,6079.0,1208.0,2956.0,-991.0,800.0,-1160.0,577.0,823.0,-1398.0,0.863077,0.049799,0.502509,13302.0,5816.0,7890.0,-182.0,430.0,-197.0
2851.0,2769.0,2839.0,3135.0,3039.0,0.867554,-0.004639,-0.494202,-0.054871,-40.0,19.0,1.0,6510.0,1280.0,3640.0,-518.0,901.0,-549.0,298.0,908.0,-683.0,0.858002,0.046186,0.511403,13696.0,964.0,7632.0,-903.0,456.0,32.0
2862.0,2763.0,2842.0,3155.0,3031.0,0.868652,-0.009033,-0.492004,-0.056946,-40.0,19.0,3.0,6651.0,802.0,3691.0,-359.0,471.0,-533.0,322.0,461.0,-563.0,0.85579,0.040342,0.51565,14180.0,-1554.0,7632.0,-899.0,445.0,74.0
2861.0,2775.0,2839.0,3155.0,3019.0,0.871155,-0.015625,-0.487183,-0.058716,-16.0,22.0,2.0,6612.0,-120.0,3719.0,-356.0,-365.0,-579.0,262.0,-380.0,-617.0,0.850658,0.029987,0.524767,12048.0,-2154.0,7476.0,-348.0,523.0,68.0
2857.0,2769.0,2842.0,3127.0,3025.0,0.872314,-0.017029,-0.485168,-0.058533,-6.0,14.0,4.0,6189.0,-261.0,3718.0,-761.0,-482.0,-612.0,62.0,-466.0,-982.0,0.848432,0.027088,0.52868,9474.0,-1018.0,7418.0,-122.0,331.0,99.0
2859.0,2769.0,2843.0,3131.0,3024.0,0.871704,-0.018372,-0.486328,-0.05719,-1.0,-25.0,7.0,5467.0,-136.0,3844.0,-1495.0,-329.0,-467.0,-421.0,-245.0,-1524.0,0.84997,0.023597,0.526286,9886.0,132.0,8022.0,-20.0,-552.0,161.0
2858.0,2773.0,2847.0,3159.0,3027.0,0.869873,-0.019104,-0.489685,-0.056396,0.0,-37.0,6.0,5555.0,-145.0,3939.0,-1441.0,-325.0,-318.0,-508.0,-236.0,-1403.0,0.854082,0.021997,0.519703,12184.0,-186.0,8872.0,15.0,-842.0,143.0
2859.0,2770.0,2847.0,3159.0,3024.0,0.865234,-0.01947,-0.498047,-0.053833,14.0,-39.0,4.0,6153.0,-569.0,4020.0,-924.0,-732.0,-101.0,-455.0,-667.0,-863.0,0.863951,0.01993,0.503099,14240.0,-2630.0,8054.0,331.0,-891.0,113.0
2864.0,2771.0,2843.0,3135.0,3023.0,0.863098,-0.018066,-0.502014,-0.051514,26.0,-35.0,4.0,6454.0,-720.0,4013.0,-660.0,-888.0,-44.0,-380.0,-839.0,-613.0,0.868436,0.020535,0.495247,14670.0,-2054.0,8078.0,608.0,-797.0,94.0
2852.0,2783.0,2845.0,3134.0,3025.0,0.859863,-0.011658,-0.508301,-0.045959,40.0,-23.0,2.0,6922.0,-456.0,4048.0,-247.0,-674.0,91.0,-259.0,-648.0,-190.0,0.87521,0.026674,0.482972,15030.0,488.0,8474.0,924.0,-525.0,57.0
2863.0,2768.0,2837.0,3153.0,3030.0,0.858826,-0.007751,-0.510376,-0.043091,38.0,-18.0,4.0,6986.0,-122.0,4101.0,-200.0,-373.0,177.0,-280.0,-348.0,-102.0,0.877316,0.030671,0.478895,14076.0,1968.0,8456.0,886.0,-404.0,101.0
2861.0,2769.0,2847.0,3159.0,3024.0,0.856628,-0.002136,-0.514343,-0.039307,14.0,-25.0,5.0,6543.0,777.0,4034.0,-677.0,475.0,177.0,-439.0,525.0,-495.0,0.88137,0.036774,0.470804,11118.0,4570.0,7470.0,327.0,-553.0,116.0
2855.0,2770.0,2839.0,3127.0,3023.0,0.854736,-0.002014,-0.517578,-0.039612,-9.0,-37.0,3.0,6235.0,1106.0,3859.0,-1014.0,798.0,55.0,-460.0,864.0,-841.0,0.884945,0.037561,0.464252,10750.0,3844.0,6464.0,-194.0,-827.0,75.0
2854.0,2771.0,2827.0,3127.0,3027.0,0.847778,-0.00885,-0.528442,-0.04364,-46.0,-64.0,2.0,6195.0,1003.0,3406.0,-1151.0,748.0,-209.0,-254.0,806.0,-1101.0,0.896776,0.031117,0.441303,13914.0,258.0,5878.0,-1044.0,-1457.0,48.0
2855.0,2775.0,2832.0,3158.0,3028.0,0.843506,-0.014648,-0.534851,-0.046814,-53.0,-62.0,-2.0,6709.0,586.0,3441.0,-693.0,378.0,-60.0,-203.0,415.0,-642.0,0.903672,0.025365,0.427413,16832.0,-1392.0,7428.0,-1201.0,-1409.0,-30.0
2853.0,2763.0,2841.0,3135.0,3024.0,0.837952,-0.024536,-0.542542,-0.053406,-40.0,-27.0,-9.0,7505.0,84.0,3441.0,34.0,-53.0,81.0,-65.0,-46.0,63.0,0.911868,0.016829,0.410062,16216.0,-126.0,6054.0,-909.0,-598.0,-190.0
2837.0,2767.0,2835.0,3135.0,3023.0,0.836304,-0.027771,-0.544617,-0.056763,-37.0,-19.0,-11.0,7555.0,217.0,3346.0,66.0,91.0,26.0,14.0,88.0,72.0,0.914083,0.015378,0.405247,15260.0,1612.0,6374.0,-836.0,-434.0,-232.0
2841.0,2754.0,2839.0,3131.0,3039.0,0.833984,-0.034363,-0.546997,-0.063965,-41.0,-12.0,-6.0,7589.0,442.0,3573.0,78.0,338.0,302.0,-194.0,367.0,196.0,0.91677,0.012661,0.399235,15238.0,874.0,8150.0,-935.0,-268.0,-121.0
2847.0,2747.0,2847.0,3147.0,3025.0,0.833374,-0.038391,-0.547302,-0.066895,-41.0,-8.0,-1.0,7464.0,385.0,3490.0,-50.0,309.0,229.0,-179.0,340.0,48.0,0.917351,0.009235,0.397973,13930.0,306.0,5970.0,-931.0,-175.0,-6.0
2855.0,2768.0,2834.0,3143.0,3025.0,0.831238,-0.047058,-0.549255,-0.071228,-37.0,-16.0,4.0,7180.0,112.0,3151.0,-355.0,111.0,-61.0,-63.0,123.0,-350.0,0.919827,1.2e-05,0.392134,13794.0,-772.0,5640.0,-836.0,-358.0,106.0
2839.0,2768.0,2834.0,3133.0,3021.0,0.829895,-0.050903,-0.550842,-0.072632,-31.0,-19.0,4.0,7193.0,-43.0,3080.0,-357.0,-6.0,-98.0,-48.0,0.0,-367.0,0.921677,-0.004471,0.387983,14648.0,-1012.0,5880.0,-689.0,-431.0,107.0
2839.0,2751.0,2832.0,3123.0,3023.0,0.826782,-0.056641,-0.554688,-0.074158,-17.0,-22.0,4.0,7522.0,-183.0,3128.0,-60.0,-89.0,29.0,-65.0,-78.0,-43.0,0.925612,-0.01139,0.378182,16408.0,-486.0,6544.0,-385.0,-492.0,105.0
2843.0,2759.0,2832.0,3123.0,3031.0,0.825439,-0.05835,-0.556458,-0.074341,-11.0,-18.0,4.0,7804.0,-160.0,3191.0,207.0,-48.0,128.0,-48.0,-36.0,240.0,0.92732,-0.013593,0.373827,17384.0,-94.0,6764.0,-244.0,-403.0,94.0
2847.0,2758.0,2825.0,3135.0,3011.0,0.824402,-0.060181,-0.5578,-0.074829,-8.0,1.0,2.0,8295.0,101.0,3240.0,687.0,229.0,205.0,108.0,223.0,710.0,0.92871,-0.015747,0.370475,17560.0,1128.0,6556.0,-171.0,35.0,54.0
2847.0,2763.0,2835.0,3135.0,3022.0,0.824951,-0.06073,-0.556824,-0.075623,-10.0,13.0,-1.0,8369.0,226.0,3195.0,767.0,356.0,143.0,221.0,331.0,759.0,0.92789,-0.015982,0.372522,17036.0,1080.0,6016.0,-212.0,306.0,-7.0
2854.0,2757.0,2826.0,3127.0,3021.0,0.827881,-0.060974,-0.552063,-0.078003,-5.0,30.0,-6.0,8305.0,220.0,2981.0,738.0,341.0,-156.0,487.0,259.0,616.0,0.923597,-0.014834,0.38298,16266.0,-18.0,5378.0,-107.0,708.0,-121.0
2839.0,2758.0,2843.0,3123.0,3037.0,0.830017,-0.060242,-0.548828,-0.078796,2.0,35.0,-6.0,8175.0,138.0,2901.0,633.0,248.0,-296.0,559.0,146.0,463.0,0.920567,-0.013512,0.390296,15464.0,-256.0,5264.0,46.0,816.0,-121.0
2847.0,2765.0,2835.0,3131.0,3011.0,0.834778,-0.055908,-0.542175,-0.07782,27.0,37.0,-4.0,7933.0,-225.0,2943.0,446.0,-151.0,-381.0,491.0,-246.0,254.0,0.913893,-0.008958,0.40583,15160.0,-1448.0,6726.0,639.0,856.0,-77.0
2850.0,2768.0,2832.0,3119.0,3023.0,0.837585,-0.051575,-0.538635,-0.075684,42.0,38.0,-4.0,7822.0,-319.0,3067.0,366.0,-279.0,-328.0,391.0,-355.0,198.0,0.910113,-0.004865,0.41449,14930.0,-1036.0,6944.0,981.0,890.0,-81.0
2863.0,2757.0,2831.0,3127.0,3035.0,0.843933,-0.038818,-0.530518,-0.069824,62.0,46.0,-8.0,7356.0,-381.0,3377.0,-23.0,-451.0,-179.0,77.0,-468.0,-102.0,0.900864,0.008566,0.434143,13008.0,-760.0,7290.0,1421.0,1073.0,-170.0
2864.0,2759.0,2832.0,3147.0,3043.0,0.847351,-0.031738,-0.525818,-0.06665,61.0,48.0,-6.0,6993.0,-294.0,3411.0,-341.0,-427.0,-234.0,-4.0,-424.0,-416.0,0.895335,0.016305,0.444954,11394.0,138.0,6792.0,1404.0,1122.0,-137.0
2855.0,2759.0,2832.0,3143.0,3031.0,0.852356,-0.02063,-0.518921,-0.060974,36.0,23.0,3.0,5829.0,215.0,3252.0,-1438.0,-15.0,-520.0,-195.0,52.0,-1515.0,0.887126,0.028113,0.460524,7064.0,2438.0,7154.0,836.0,533.0,82.0
2867.0,2783.0,2849.0,3121.0,3045.0,0.852905,-0.018738,-0.518311,-0.059692,11.0,-4.0,7.0,5451.0,670.0,2875.0,-1810.0,424.0,-909.0,28.0,484.0,-2011.0,0.886377,0.029915,0.462014,10262.0,4188.0,4864.0,274.0,-82.0,164.0
2851.0,2775.0,2847.0,3149.0,3037.0,0.851318,-0.019958,-0.521057,-0.057678,-9.0,-13.0,15.0,6469.0,1001.0,3946.0,-817.0,786.0,209.0,-459.0,863.0,-610.0,0.889473,0.026125,0.456171,16330.0,2262.0,10230.0,-186.0,-291.0,365.0
2863.0,2773.0,2834.0,3145.0,3011.0,0.851257,-0.021667,-0.521179,-0.056885,-10.0,-2.0,14.0,6868.0,826.0,4031.0,-421.0,642.0,297.0,-375.0,697.0,-224.0,0.88978,0.022405,0.455778,15778.0,234.0,8130.0,-207.0,-43.0,335.0
2864.0,2767.0,2836.0,3163.0,3015.0,0.851929,-0.024231,-0.520264,-0.054321,2.0,7.0,11.0,7201.0,208.0,3914.0,-82.0,83.0,166.0,-174.0,104.0,4.0,0.889088,0.015237,0.457472,14948.0,-1236.0,7630.0,57.0,163.0,271.0
2865.0,2773.0,2846.0,3139.0,3015.0,0.8526,-0.024292,-0.519287,-0.052612,8.0,9.0,9.0,7153.0,59.0,3805.0,-121.0,-49.0,41.0,-96.0,-36.0,-89.0,0.888045,0.013219,0.459446,13724.0,-642.0,6854.0,190.0,218.0,227.0
2854.0,2774.0,2847.0,3131.0,3023.0,0.853638,-0.023132,-0.518005,-0.049072,13.0,2.0,9.0,6701.0,-28.0,3605.0,-562.0,-120.0,-181.0,-110.0,-102.0,-583.0,0.886648,0.011346,0.462241,11602.0,-236.0,6366.0,299.0,54.0,213.0
2855.0,2775.0,2853.0,3167.0,3037.0,0.853394,-0.022522,-0.518616,-0.047241,11.0,-9.0,9.0,6445.0,-45.0,3488.0,-823.0,-131.0,-288.0,-135.0,-108.0,-864.0,0.887295,0.01056,0.461043,11556.0,-190.0,6430.0,267.0,-193.0,219.0
2849.0,2797.0,2851.0,3157.0,3047.0,0.851257,-0.021851,-0.522461,-0.044006,11.0,-23.0,5.0,6453.0,-263.0,3344.0,-849.0,-334.0,-368.0,-88.0,-318.0,-926.0,0.891421,0.008782,0.453133,13904.0,-1590.0,6182.0,253.0,-505.0,136.0
2855.0,2788.0,2837.0,3131.0,3023.0,0.849915,-0.021118,-0.52478,-0.042419,15.0,-19.0,3.0,6709.0,-495.0,3248.0,-613.0,-565.0,-424.0,51.0,-565.0,-742.0,0.893828,0.008624,0.448314,15092.0,-2486.0,5976.0,362.0,-433.0,69.0
2865.0,2773.0,2849.0,3133.0,3027.0,0.848206,-0.016785,-0.527954,-0.038452,33.0,-10.0,-5.0,6956.0,-913.0,3138.0,-391.0,-1012.0,-482.0,175.0,-1023.0,-575.0,0.896918,0.012128,0.441914,14268.0,-2546.0,6138.0,765.0,-210.0,-97.0
2845.0,2775.0,2847.0,3141.0,3015.0,0.847656,-0.012939,-0.529114,-0.036316,39.0,-8.0,-8.0,7029.0,-890.0,3208.0,-327.0,-1025.0,-394.0,132.0,-1030.0,-483.0,0.897953,0.016494,0.439711,14552.0,-1288.0,7028.0,914.0,-175.0,-162.0
2850.0,2767.0,2846.0,3159.0,3031.0,0.847107,-0.003723,-0.530334,-0.033264,31.0,-4.0,-11.0,6989.0,-89.0,3391.0,-373.0,-326.0,-192.0,-9.0,-313.0,-428.0,0.898748,0.028974,0.437428,13322.0,3326.0,7140.0,730.0,-84.0,-235.0
2863.0,2766.0,2827.0,3150.0,3027.0,0.845825,-0.000671,-0.532227,-0.036316,-17.0,-16.0,-12.0,6725.0,819.0,3353.0,-650.0,511.0,-198.0,-70.0,541.0,-651.0,0.90039,0.037521,0.433473,12862.0,3194.0,6728.0,-380.0,-351.0,-267.0
2847.0,2763.0,2859.0,3135.0,3035.0,0.844482,-0.002625,-0.534119,-0.039612,-33.0,-23.0,-10.0,6725.0,908.0,3396.0,-666.0,597.0,-121.0,-133.0,632.0,-630.0,0.902316,0.037882,0.42943,13710.0,2052.0,7060.0,-751.0,-516.0,-222.0
2847.0,2763.0,2831.0,3147.0,3023.0,0.841309,-0.009949,-0.538513,-0.046204,-39.0,-21.0,-6.0,7276.0,556.0,3669.0,-154.0,285.0,229.0,-246.0,309.0,-34.0,0.907031,0.033023,0.419839,16572.0,-506.0,8350.0,-877.0,-472.0,-116.0
2855.0,2765.0,2827.0,3139.0,3031.0,0.840454,-0.013245,-0.539551,-0.048462,-29.0,-11.0,-3.0,7420.0,331.0,3657.0,-20.0,84.0,237.0,-214.0,102.0,83.0,0.908219,0.030032,0.417421,15226.0,-542.0,6844.0,-659.0,-247.0,-63.0
2847.0,2751.0,2832.0,3165.0,3035.0,0.838867,-0.017517,-0.541626,-0.051147,-18.0,-15.0,-1.0,7085.0,222.0,3318.0,-373.0,8.0,-62.0,-95.0,27.0,-364.0,0.910496,0.026017,0.412649,13284.0,884.0,6052.0,-394.0,-325.0,-18.0
2855.0,2754.0,2827.0,3133.0,3025.0,0.837646,-0.01947,-0.543274,-0.052429,-20.0,-19.0,0.0,7042.0,374.0,3302.0,-430.0,174.0,-47.0,-112.0,197.0,-407.0,0.912185,0.024349,0.408875,14062.0,1786.0,6610.0,-452.0,-421.0,21.0
2851.0,2765.0,2831.0,3151.0,2999.0,0.835266,-0.024536,-0.546509,-0.05542,-28.0,-17.0,3.0,7159.0,610.0,3322.0,-342.0,449.0,33.0,-112.0,471.0,-291.0,0.91568,0.019587,0.401467,14452.0,1800.0,6574.0,-636.0,-374.0,91.0
2835.0,2757.0,2851.0,3135.0,3027.0,0.83429,-0.02771,-0.547668,-0.057129,-31.0,-14.0,4.0,7207.0,632.0,3289.0,-305.0,498.0,23.0,-78.0,516.0,-262.0,0.916994,0.016339,0.398594,14810.0,1258.0,6220.0,-697.0,-303.0,102.0
2833.0,2753.0,2849.0,3143.0,3023.0,0.832764,-0.033813,-0.549316,-0.060669,-26.0,-6.0,-1.0,7595.0,410.0,3250.0,66.0,325.0,20.0,52.0,320.0,71.0,0.919004,0.010336,0.394284,16558.0,-348.0,6506.0,-588.0,-123.0,-3.0
2843.0,2766.0,2830.0,3143.0,3027.0,0.832581,-0.035828,-0.549255,-0.06189,-17.0,1.0,-2.0,7689.0,152.0,3168.0,160.0,83.0,-60.0,128.0,64.0,124.0,0.919033,0.008328,0.394056,15616.0,-1228.0,5676.0,-374.0,44.0,-31.0
2869.0,2758.0,2841.0,3131.0,3014.0,0.832947,-0.037415,-0.548523,-0.062744,-2.0,4.0,-2.0,7476.0,-97.0,2979.0,-48.0,-150.0,-260.0,195.0,-179.0,-147.0,0.918476,0.006505,0.39546,14188.0,-464.0,5648.0,-42.0,100.0,-23.0
2832.0,2770.0,2837.0,3127.0,3025.0,0.833069,-0.037292,-0.54834,-0.062744,1.0,2.0,-1.0,7309.0,-60.0,2937.0,-213.0,-114.0,-305.0,177.0,-139.0,-317.0,0.918289,0.006676,0.395873,13586.0,264.0,5638.0,44.0,55.0,-22.0
2850.0,2769.0,2827.0,3127.0,3054.0,0.832825,-0.036743,-0.548767,-0.062744,-1.0,-5.0,0.0,7170.0,219.0,2988.0,-355.0,156.0,-248.0,109.0,144.0,-422.0,0.918664,0.007663,0.395038,14262.0,1316.0,6184.0,-9.0,-95.0,17.0
2857.0,2768.0,2831.0,3139.0,3007.0,0.832397,-0.036865,-0.549316,-0.062866,-3.0,-6.0,1.0,7264.0,341.0,3029.0,-265.0,277.0,-196.0,115.0,265.0,-318.0,0.919134,0.007694,0.39373,15402.0,1336.0,6402.0,-68.0,-132.0,41.0
2841.0,2742.0,2843.0,3151.0,3026.0,0.832092,-0.037354,-0.549805,-0.062622,0.0,3.0,5.0,7881.0,397.0,3220.0,347.0,342.0,3.0,181.0,316.0,322.0,0.919655,0.006697,0.392619,17886.0,668.0,6920.0,7.0,69.0,124.0
2835.0,2769.0,2838.0,3157.0,3003.0,0.832764,-0.03717,-0.548889,-0.061584,7.0,12.0,8.0,8314.0,308.0,3330.0,787.0,261.0,97.0,255.0,222.0,762.0,0.918768,0.005698,0.394627,19502.0,-38.0,7492.0,182.0,287.0,193.0
2850.0,2771.0,2832.0,3151.0,3027.0,0.837463,-0.033325,-0.542725,-0.054443,44.0,48.0,22.0,9392.0,-24.0,3977.0,1915.0,-50.0,629.0,199.0,-82.0,2004.0,0.912653,0.003278,0.408648,21044.0,-658.0,10012.0,1020.0,1114.0,515.0
2855.0,2771.0,2827.0,3139.0,3053.0,0.842346,-0.028748,-0.536011,-0.048401,59.0,72.0,25.0,9138.0,117.0,4033.0,1717.0,88.0,561.0,227.0,56.0,1793.0,0.905796,0.003456,0.423756,15262.0,1302.0,7760.0,1370.0,1651.0,574.0
2859.0,2759.0,2819.0,3123.0,3019.0,0.85321,-0.017822,-0.519897,-0.038147,51.0,75.0,11.0,6938.0,180.0,2951.0,-340.0,104.0,-807.0,568.0,62.0,-671.0,0.888524,0.009253,0.458812,6396.0,542.0,1220.0,1174.0,1723.0,252.0
2863.0,2759.0,2839.0,3167.0,3014.0,0.856506,-0.013428,-0.514771,-0.035217,38.0,45.0,2.0,5736.0,192.0,2369.0,-1495.0,83.0,-1478.0,609.0,64.0,-2012.0,0.882754,0.013256,0.469674,4750.0,510.0,1786.0,875.0,1036.0,46.0
2863.0,2769.0,2859.0,3123.0,3034.0,0.857117,-0.009644,-0.513794,-0.03479,-7.0,-19.0,-7.0,4974.0,694.0,2363.0,-2246.0,536.0,-1501.0,303.0,567.0,-2677.0,0.881434,0.019219,0.471782,12198.0,3276.0,5772.0,-142.0,-416.0,-152.0
2859.0,2766.0,2833.0,3151.0,3043.0,0.855652,-0.010681,-0.516113,-0.036621,-19.0,-21.0,-4.0,5944.0,707.0,3145.0,-1297.0,547.0,-680.0,37.0,574.0,-1453.0,0.884009,0.019523,0.466994,17980.0,1370.0,10452.0,-435.0,-477.0,-88.0
2855.0,2736.0,2835.0,3131.0,3031.0,0.855652,-0.015076,-0.515808,-0.039368,-21.0,12.0,0.0,7226.0,317.0,3625.0,-14.0,195.0,-203.0,188.0,181.0,-104.0,0.883891,0.014813,0.467405,17020.0,-1034.0,7878.0,-464.0,279.0,2.0
2855.0,2763.0,2843.0,3142.0,3071.0,0.856812,-0.016968,-0.513733,-0.040344,-15.0,23.0,-2.0,7504.0,52.0,3666.0,281.0,-49.0,-196.0,299.0,-77.0,154.0,0.881714,0.012376,0.471544,16406.0,-1268.0,7560.0,-341.0,541.0,-29.0
2862.0,2775.0,2837.0,3159.0,3051.0,0.860535,-0.018921,-0.507263,-0.041809,-9.0,32.0,-2.0,7180.0,-122.0,3619.0,15.0,-202.0,-350.0,293.0,-228.0,-158.0,0.874617,0.009852,0.484594,11662.0,-398.0,6802.0,-188.0,737.0,-41.0
2859.0,2805.0,2858.0,3143.0,3039.0,0.862061,-0.019653,-0.504639,-0.042419,-8.0,20.0,-2.0,6640.0,-198.0,3552.0,-501.0,-271.0,-461.0,131.0,-278.0,-664.0,0.871726,0.008928,0.489901,9984.0,-1038.0,6720.0,-164.0,469.0,-30.0
2855.0,2765.0,2851.0,3163.0,3031.0,0.862183,-0.021057,-0.504333,-0.042297,-1.0,-13.0,1.0,6018.0,-481.0,3505.0,-1120.0,-533.0,-511.0,-152.0,-513.0,-1229.0,0.871436,0.006354,0.490352,11638.0,-1750.0,6936.0,-13.0,-291.0,38.0
2863.0,2757.0,2849.0,3151.0,3031.0,0.861145,-0.021179,-0.506165,-0.041687,5.0,-18.0,0.0,6239.0,-648.0,3604.0,-916.0,-694.0,-382.0,-175.0,-674.0,-990.0,0.873528,0.005724,0.486657,14258.0,-2394.0,7862.0,136.0,-407.0,9.0
2843.0,2755.0,2843.0,3138.0,3031.0,0.859741,-0.01886,-0.508911,-0.039062,23.0,-7.0,-2.0,6825.0,-953.0,3601.0,-355.0,-1013.0,-342.0,41.0,-1016.0,-483.0,0.876537,0.007329,0.481335,15282.0,-2404.0,7286.0,531.0,-157.0,-25.0
2862.0,2789.0,2850.0,3131.0,3047.0,0.859558,-0.016113,-0.509338,-0.037231,30.0,0.0,-4.0,7029.0,-956.0,3610.0,-153.0,-1039.0,-326.0,128.0,-1049.0,-301.0,0.876812,0.010226,0.480541,15118.0,-1724.0,7352.0,710.0,16.0,-91.0
2870.0,2791.0,2829.0,3143.0,3025.0,0.860535,-0.007568,-0.508118,-0.034912,33.0,11.0,-15.0,6939.0,-332.0,3666.0,-229.0,-515.0,-294.0,111.0,-515.0,-354.0,0.875034,0.022453,0.483498,12812.0,2450.0,7822.0,771.0,258.0,-328.0
2862.0,2757.0,2837.0,3189.0,3045.0,0.861145,-0.003906,-0.507019,-0.035828,13.0,8.0,-18.0,6601.0,274.0,3704.0,-554.0,31.0,-275.0,-25.0,51.0,-616.0,0.873514,0.029603,0.485771,10916.0,4226.0,7350.0,312.0,193.0,-392.0
2864.0,2768.0,2847.0,3134.0,3037.0,0.860107,-0.00415,-0.508301,-0.041809,-33.0,-21.0,-12.0,6132.0,938.0,3830.0,-1033.0,648.0,-127.0,-335.0,709.0,-942.0,0.874734,0.035364,0.483146,11896.0,2394.0,8986.0,-735.0,-476.0,-259.0
2847.0,2759.0,2823.0,3142.0,2999.0,0.858582,-0.007751,-0.510559,-0.045166,-42.0,-30.0,-6.0,6143.0,802.0,4033.0,-1044.0,533.0,113.0,-548.0,610.0,-844.0,0.877413,0.032809,0.478472,12416.0,430.0,9188.0,-949.0,-668.0,-133.0
2864.0,2769.0,2865.0,3130.0,3043.0,0.854553,-0.016602,-0.516663,-0.049988,-37.0,-39.0,1.0,6121.0,258.0,4009.0,-1126.0,67.0,195.0,-684.0,159.0,-903.0,0.884691,0.02328,0.465544,11904.0,-810.0,7218.0,-837.0,-890.0,38.0
2843.0,2727.0,2805.0,3135.0,3019.0,0.851746,-0.020691,-0.520996,-0.051575,-32.0,-48.0,2.0,6068.0,142.0,3826.0,-1219.0,-9.0,88.0,-629.0,79.0,-1044.0,0.889647,0.018494,0.456265,11968.0,-98.0,6600.0,-731.0,-1082.0,67.0
2845.0,2767.0,2845.0,3139.0,3013.0,0.844604,-0.028259,-0.53186,-0.054443,-32.0,-57.0,4.0,6777.0,327.0,3980.0,-608.0,243.0,435.0,-620.0,324.0,-357.0,0.9015,0.010177,0.432647,17052.0,1556.0,9794.0,-727.0,-1287.0,114.0
2847.0,2767.0,2838.0,3123.0,2992.0,0.841675,-0.031616,-0.536133,-0.055969,-29.0,-43.0,3.0,7291.0,425.0,4240.0,-131.0,369.0,773.0,-702.0,461.0,210.0,0.906038,0.006793,0.423111,17348.0,1314.0,9682.0,-660.0,-984.0,86.0
2863.0,2799.0,2832.0,3111.0,3027.0,0.837769,-0.036743,-0.541626,-0.058655,-21.0,-25.0,1.0,7604.0,329.0,4055.0,134.0,312.0,691.0,-526.0,387.0,406.0,0.911825,0.001973,0.410588,15228.0,94.0,7174.0,-474.0,-570.0,27.0
2846.0,2759.0,2847.0,3123.0,3007.0,0.836182,-0.038818,-0.543823,-0.059692,-18.0,-23.0,0.0,7529.0,207.0,3829.0,40.0,206.0,507.0,-413.0,267.0,242.0,0.914104,6e-06,0.405512,14530.0,-402.0,6188.0,-403.0,-511.0,4.0
2863.0,2767.0,2847.0,3135.0,3023.0,0.83313,-0.041321,-0.548157,-0.061096,-6.0,-22.0,-3.0,7376.0,-53.0,3461.0,-147.0,-37.0,219.0,-261.0,1.0,-48.0,0.918421,-0.001871,0.395655,14220.0,-672.0,5830.0,-135.0,-496.0,-65.0
2850.0,2767.0,2832.0,3111.0,3043.0,0.831543,-0.041504,-0.550476,-0.06134,-1.0,-24.0,-4.0,7291.0,-96.0,3322.0,-250.0,-83.0,123.0,-220.0,-51.0,-181.0,0.920581,-0.001492,0.39048,14082.0,-308.0,5846.0,-7.0,-530.0,-77.0
2861.0,2763.0,2822.0,3143.0,3038.0,0.828064,-0.040833,-0.555786,-0.061401,3.0,-27.0,-3.0,7291.0,133.0,3155.0,-290.0,127.0,51.0,-136.0,148.0,-248.0,0.925467,0.000628,0.378895,15270.0,1314.0,6106.0,74.0,-617.0,-60.0
2863.0,2759.0,2841.0,3133.0,3024.0,0.826172,-0.040466,-0.558533,-0.061523,1.0,-27.0,-2.0,7554.0,296.0,3199.0,-47.0,280.0,145.0,-109.0,299.0,10.0,0.927867,0.001861,0.372749,16940.0,1498.0,6724.0,26.0,-616.0,-28.0
2832.0,2725.0,2835.0,3159.0,3007.0,0.82373,-0.040527,-0.562195,-0.061584,-3.0,-9.0,2.0,8217.0,444.0,3134.0,588.0,423.0,147.0,138.0,405.0,602.0,0.931186,0.002478,0.364619,18268.0,1130.0,5820.0,-46.0,-197.0,58.0
2847.0,2774.0,2839.0,3127.0,3039.0,0.823608,-0.040771,-0.562317,-0.061523,-2.0,4.0,3.0,8532.0,455.0,3058.0,902.0,438.0,74.0,321.0,393.0,867.0,0.931275,0.002032,0.364253,18972.0,948.0,5678.0,-38.0,112.0,71.0
2851.0,2742.0,2832.0,3155.0,3027.0,0.826721,-0.03949,-0.557983,-0.060303,13.0,39.0,4.0,9349.0,245.0,3096.0,1752.0,228.0,30.0,653.0,132.0,1636.0,0.927356,0.002002,0.374199,21290.0,-440.0,6516.0,310.0,894.0,101.0
2837.0,2767.0,2839.0,3127.0,3021.0,0.830444,-0.037231,-0.552856,-0.058289,26.0,62.0,6.0,9782.0,96.0,3195.0,2224.0,74.0,32.0,830.0,-46.0,2064.0,0.922573,0.002613,0.385999,21986.0,-694.0,7062.0,611.0,1431.0,155.0
2853.0,2759.0,2859.0,3159.0,2995.0,0.843262,-0.028137,-0.53418,-0.052124,48.0,117.0,2.0,9484.0,202.0,2926.0,2079.0,134.0,-577.0,1415.0,-46.0,1633.0,0.90384,0.008233,0.427668,15540.0,1282.0,4300.0,1114.0,2696.0,63.0
2870.0,2783.0,2821.0,3143.0,3043.0,0.85144,-0.022278,-0.521606,-0.049866,43.0,132.0,-4.0,8504.0,179.0,2569.0,1209.0,63.0,-1157.0,1577.0,-116.0,551.0,0.890455,0.014084,0.454868,10370.0,-72.0,2464.0,1007.0,3032.0,-85.0
2864.0,2768.0,2863.0,3159.0,3023.0,0.864685,-0.015198,-0.499695,-0.04834,11.0,87.0,-7.0,5903.0,165.0,1447.0,-1188.0,-15.0,-2649.0,1694.0,-131.0,-2353.0,0.865627,0.022028,0.500091,4954.0,1018.0,1964.0,263.0,2013.0,-148.0
2834.0,2761.0,2861.0,3151.0,3059.0,0.868347,-0.015259,-0.493164,-0.050354,-20.0,55.0,-12.0,5337.0,417.0,1325.0,-1691.0,227.0,-2878.0,1623.0,128.0,-2922.0,0.858012,0.023166,0.513119,9626.0,2702.0,2274.0,-440.0,1260.0,-253.0
2875.0,2783.0,2843.0,3157.0,3031.0,0.87384,-0.019592,-0.482544,-0.056458,-35.0,61.0,-7.0,6626.0,543.0,2981.0,-300.0,377.0,-1389.0,1054.0,274.0,-987.0,0.845545,0.020245,0.533552,16546.0,1164.0,9312.0,-792.0,1418.0,-146.0
2845.0,2775.0,2864.0,3135.0,3014.0,-0.002258,0.004761,-0.000488,0.422058,441.0,3230.0,-19862.0,-15942.0,13536.0,-29574.0,-15974.0,13539.0,-31033.0,2746.0,-2369.0,-5597.0,0.004016,-0.000434,0.178115,14276.0,-1038.0,8926.0,-788.0,1948.0,-112.0
2865.0,2799.0,2831.0,3139.0,3027.0,0.887207,-0.028137,-0.455994,-0.064209,-28.0,88.0,0.0,6708.0,-35.0,3744.0,50.0,-105.0,-1028.0,842.0,-219.0,-559.0,0.812735,0.008631,0.582537,10786.0,-1504.0,8598.0,-630.0,2038.0,20.0
2865.0,2784.0,2839.0,3153.0,3007.0,0.895264,-0.032227,-0.439514,-0.064941,-12.0,53.0,8.0,5381.0,-338.0,4132.0,-1100.0,-332.0,-877.0,-27.0,-332.0,-1406.0,0.791148,-0.000617,0.611503,7220.0,-1196.0,10032.0,-274.0,1236.0,185.0
2865.0,2770.0,2839.0,3159.0,3019.0,0.897705,-0.033142,-0.434509,-0.064514,-5.0,32.0,6.0,4956.0,-356.0,4475.0,-1469.0,-327.0,-605.0,-479.0,-265.0,-1526.0,0.784399,-0.00344,0.62014,7616.0,-690.0,10974.0,-96.0,751.0,152.0
2833.0,2755.0,2845.0,3111.0,3067.0,0.899475,-0.033325,-0.43103,-0.063293,3.0,-7.0,4.0,4570.0,-298.0,5004.0,-1816.0,-253.0,-125.0,-1066.0,-110.0,-1492.0,0.779621,-0.005388,0.626164,8992.0,-516.0,11486.0,70.0,-148.0,111.0
2833.0,2751.0,2847.0,3167.0,3007.0,0.897827,-0.032959,-0.434692,-0.061646,7.0,-31.0,2.0,4794.0,-380.0,5463.0,-1633.0,-334.0,385.0,-1348.0,-153.0,-1040.0,0.784621,-0.005589,0.61985,10770.0,-1504.0,12218.0,175.0,-710.0,55.0
2864.0,2795.0,2839.0,3153.0,3007.0,0.896362,-0.032043,-0.437927,-0.060547,15.0,-36.0,0.0,4982.0,-535.0,5611.0,-1481.0,-498.0,578.0,-1421.0,-310.0,-811.0,0.788963,-0.004415,0.614324,10982.0,-1954.0,11824.0,361.0,-803.0,7.0
2861.0,2783.0,2854.0,3147.0,3031.0,0.892456,-0.027405,-0.446533,-0.057495,33.0,-50.0,-5.0,5043.0,-757.0,5648.0,-1512.0,-776.0,735.0,-1581.0,-577.0,-771.0,0.800174,0.002432,0.599641,10002.0,-1700.0,11418.0,767.0,-1139.0,-92.0
2863.0,2805.0,2831.0,3149.0,3035.0,0.889771,-0.02356,-0.452393,-0.055542,40.0,-61.0,-6.0,4998.0,-722.0,5651.0,-1618.0,-790.0,821.0,-1699.0,-583.0,-829.0,0.807668,0.008328,0.589562,9586.0,-1100.0,11204.0,926.0,-1378.0,-120.0
2864.0,2768.0,2864.0,3167.0,3019.0,0.881897,-0.014648,-0.468384,-0.05127,43.0,-90.0,-5.0,4849.0,-241.0,5493.0,-1930.0,-422.0,899.0,-1858.0,-205.0,-1102.0,0.827635,0.022191,0.560773,9666.0,1722.0,10646.0,991.0,-2060.0,-96.0
2863.0,2775.0,2831.0,3143.0,3035.0,0.870056,-0.009277,-0.490417,-0.049194,9.0,-118.0,-1.0,5097.0,701.0,5305.0,-1901.0,437.0,1054.0,-1834.0,648.0,-1063.0,0.854294,0.032108,0.518822,11244.0,3952.0,9646.0,222.0,-2684.0,-16.0
2853.0,2763.0,2823.0,3127.0,3038.0,0.862671,-0.009949,-0.503235,-0.049683,-11.0,-129.0,1.0,5376.0,903.0,5125.0,-1744.0,633.0,1083.0,-1730.0,834.0,-960.0,0.869241,0.032839,0.493325,12750.0,2504.0,9218.0,-235.0,-2933.0,32.0
2861.0,2815.0,2835.0,3155.0,3035.0,0.846558,-0.016235,-0.529541,-0.052063,-25.0,-127.0,-1.0,6432.0,480.0,4914.0,-926.0,253.0,1320.0,-1556.0,426.0,-245.0,0.898264,0.027651,0.438693,16440.0,-1320.0,9428.0,-562.0,-2900.0,-2.0
2839.0,2749.0,2831.0,3147.0,3031.0,0.838989,-0.018921,-0.54126,-0.052856,-13.0,-114.0,-4.0,6997.0,76.0,4712.0,-459.0,-132.0,1325.0,-1402.0,18.0,126.0,0.910222,0.025469,0.413377,17262.0,-2316.0,7910.0,-285.0,-2602.0,-74.0
2851.0,2755.0,2831.0,3139.0,3047.0,0.825623,-0.01825,-0.561523,-0.051575,23.0,-91.0,-8.0,7539.0,-399.0,3943.0,-72.0,-626.0,922.0,-945.0,-536.0,255.0,0.929095,0.027786,0.368671,15608.0,-1018.0,5316.0,537.0,-2081.0,-183.0
2846.0,2747.0,2832.0,3151.0,3039.0,0.819519,-0.015381,-0.570618,-0.050049,31.0,-86.0,-10.0,7513.0,-215.0,3512.0,-161.0,-476.0,658.0,-717.0,-408.0,63.0,0.936804,0.031908,0.348275,14780.0,1134.0,4494.0,714.0,-1967.0,-211.0
2847.0,2757.0,2845.0,3151.0,3007.0,0.807617,-0.009277,-0.587646,-0.048889,16.0,-79.0,-11.0,7526.0,616.0,2758.0,-257.0,268.0,224.0,-266.0,300.0,-163.0,0.950094,0.042474,0.309221,15354.0,3878.0,3366.0,382.0,-1790.0,-251.0
2847.0,2759.0,2830.0,3125.0,3035.0,0.802002,-0.007874,-0.595093,-0.050049,-1.0,-71.0,-12.0,7668.0,1027.0,2411.0,-157.0,642.0,22.0,-8.0,651.0,-113.0,0.955319,0.046938,0.291515,16434.0,4430.0,2774.0,-16.0,-1610.0,-254.0
2837.0,2743.0,2843.0,3147.0,3027.0,0.792786,-0.011047,-0.606812,-0.056213,-38.0,-48.0,-7.0,8342.0,1297.0,1890.0,449.0,881.0,-267.0,462.0,818.0,406.0,0.963385,0.050705,0.263327,19130.0,2084.0,2384.0,-870.0,-1077.0,-154.0
2839.0,2746.0,2845.0,3155.0,3051.0,0.787415,-0.018555,-0.612976,-0.062622,-33.0,-18.0,-5.0,8943.0,511.0,1386.0,1015.0,121.0,-644.0,879.0,-25.0,828.0,0.967656,0.047551,0.247859,18824.0,-2200.0,932.0,-737.0,-397.0,-99.0
2846.0,2762.0,2859.0,3143.0,3015.0,0.786316,-0.020691,-0.614197,-0.06366,-12.0,-4.0,-4.0,8852.0,-8.0,977.0,917.0,-382.0,-1027.0,1159.0,-560.0,619.0,0.96854,0.04566,0.244679,16624.0,-2858.0,-610.0,-274.0,-86.0,-69.0
2846.0,2775.0,2831.0,3131.0,3031.0,0.785522,-0.020386,-0.615356,-0.0625,9.0,5.0,-1.0,8266.0,-20.0,404.0,325.0,-387.0,-1577.0,1549.0,-579.0,-83.0,0.969301,0.044893,0.241873,15162.0,1456.0,-82.0,225.0,126.0,-18.0
2851.0,2753.0,2823.0,3123.0,3039.0,0.785583,-0.019348,-0.615356,-0.062073,7.0,8.0,0.0,8116.0,360.0,355.0,176.0,-16.0,-1627.0,1608.0,-202.0,-223.0,0.96923,0.045995,0.241957,15490.0,3216.0,608.0,165.0,192.0,1.0
2857.0,2765.0,2830.0,3127.0,3019.0,0.786743,-0.019165,-0.61377,-0.063049,-12.0,17.0,4.0,8101.0,1145.0,537.0,169.0,758.0,-1477.0,1556.0,579.0,-163.0,0.968175,0.04724,0.24586,16634.0,4392.0,1898.0,-263.0,400.0,97.0
2847.0,2754.0,2843.0,3151.0,3023.0,0.788086,-0.020386,-0.611877,-0.06427,-19.0,24.0,5.0,8390.0,1287.0,735.0,467.0,905.0,-1316.0,1493.0,715.0,164.0,0.967044,0.046519,0.250401,19134.0,2912.0,2924.0,-416.0,570.0,133.0
2853.0,2759.0,2835.0,3141.0,3015.0,0.794373,-0.023071,-0.603577,-0.064575,-3.0,61.0,12.0,9673.0,871.0,1362.0,1793.0,532.0,-852.0,1355.0,295.0,1516.0,0.961909,0.041298,0.270361,23350.0,-416.0,4888.0,-66.0,1420.0,286.0
2859.0,2767.0,2835.0,3139.0,3031.0,0.800415,-0.022949,-0.595764,-0.062317,14.0,91.0,16.0,10074.0,513.0,1632.0,2237.0,205.0,-736.0,1357.0,-40.0,1934.0,0.956577,0.037515,0.289086,21696.0,-1000.0,4646.0,328.0,2090.0,382.0
2864.0,2768.0,2842.0,3152.0,3011.0,0.817627,-0.018005,-0.572754,-0.055603,30.0,129.0,10.0,8334.0,197.0,1261.0,644.0,-83.0,-1550.0,1656.0,-272.0,69.0,0.9386,0.03425,0.343234,8668.0,6.0,-276.0,707.0,2976.0,249.0
2849.0,2753.0,2847.0,3153.0,3007.0,0.825256,-0.015564,-0.562012,-0.053406,19.0,108.0,7.0,6927.0,290.0,818.0,-685.0,8.0,-2195.0,1784.0,-131.0,-1443.0,0.92927,0.034341,0.367801,5416.0,1662.0,-262.0,454.0,2483.0,165.0
2865.0,2780.0,2826.0,3134.0,3023.0,0.83313,-0.016418,-0.549988,-0.055908,-30.0,28.0,-1.0,5423.0,799.0,1132.0,-2099.0,519.0,-2099.0,1161.0,486.0,-2737.0,0.918258,0.03414,0.394475,12520.0,676.0,9792.0,-679.0,659.0,-12.0
2853.0,2754.0,2832.0,3147.0,3019.0,0.835388,-0.020203,-0.546265,-0.057617,-36.0,27.0,9.0,6026.0,806.0,2221.0,-1469.0,566.0,-1075.0,463.0,566.0,-1760.0,0.915014,0.029194,0.40238,15564.0,2066.0,9788.0,-807.0,638.0,224.0
2864.0,2758.0,2831.0,3151.0,3023.0,0.840637,-0.027405,-0.537598,-0.059875,-27.0,43.0,10.0,7037.0,347.0,3067.0,-394.0,197.0,-377.0,201.0,181.0,-512.0,0.907131,0.018303,0.420494,16870.0,-1232.0,8102.0,-607.0,999.0,236.0
2863.0,2795.0,2849.0,3135.0,3039.0,0.843994,-0.029907,-0.532104,-0.06012,-17.0,53.0,8.0,7320.0,94.0,3308.0,-67.0,-16.0,-230.0,175.0,-37.0,-159.0,0.901782,0.013497,0.431911,15956.0,-1282.0,8000.0,-375.0,1224.0,205.0
2867.0,2794.0,2863.0,3143.0,3037.0,0.851624,-0.03186,-0.519775,-0.059509,-4.0,52.0,8.0,6823.0,-39.0,3667.0,-460.0,-101.0,-81.0,-150.0,-78.0,-446.0,0.889098,0.007597,0.457622,10668.0,-198.0,8114.0,-71.0,1195.0,198.0
2863.0,2770.0,2851.0,3135.0,3015.0,0.854553,-0.032227,-0.515015,-0.058838,-1.0,35.0,9.0,6274.0,19.0,3811.0,-967.0,-26.0,-18.0,-435.0,37.0,-863.0,0.884007,0.005526,0.467444,9242.0,196.0,8442.0,-20.0,810.0,210.0
2863.0,2768.0,2837.0,3131.0,3013.0,0.856812,-0.032471,-0.511414,-0.056763,5.0,-5.0,7.0,5559.0,-92.0,4115.0,-1650.0,-111.0,225.0,-987.0,21.0,-1345.0,0.880056,0.002416,0.47475,10256.0,-778.0,9224.0,134.0,-102.0,183.0
2860.0,2765.0,2843.0,3111.0,3031.0,0.856384,-0.032227,-0.512329,-0.055237,10.0,-18.0,7.0,5648.0,-235.0,4249.0,-1569.0,-246.0,374.0,-1093.0,-105.0,-1205.0,0.881061,0.001402,0.472925,12250.0,-1418.0,9060.0,238.0,-400.0,168.0
2847.0,2775.0,2859.0,3142.0,3027.0,0.854309,-0.030273,-0.516357,-0.051208,23.0,-21.0,4.0,6393.0,-610.0,4392.0,-859.0,-619.0,583.0,-982.0,-505.0,-490.0,0.885358,0.001158,0.464925,14998.0,-2302.0,8954.0,527.0,-468.0,109.0
2869.0,2783.0,2834.0,3135.0,3039.0,0.853455,-0.028137,-0.518188,-0.048706,29.0,-17.0,3.0,6702.0,-705.0,4406.0,-566.0,-725.0,625.0,-891.0,-628.0,-215.0,0.887242,0.00245,0.461446,15184.0,-1778.0,8916.0,677.0,-384.0,85.0
2863.0,2775.0,2859.0,3151.0,3007.0,0.852539,-0.021912,-0.520325,-0.044067,33.0,-8.0,-3.0,7053.0,-565.0,4432.0,-230.0,-634.0,683.0,-771.0,-562.0,102.0,0.889125,0.008498,0.457547,14552.0,-440.0,8794.0,763.0,-163.0,-54.0
2862.0,2768.0,2835.0,3143.0,3039.0,0.852417,-0.018372,-0.520813,-0.04248,31.0,-5.0,-6.0,7034.0,-418.0,4392.0,-252.0,-523.0,649.0,-737.0,-458.0,65.0,0.889461,0.012928,0.456836,13814.0,178.0,8494.0,718.0,-98.0,-130.0
2864.0,2795.0,2855.0,3147.0,3011.0,0.851868,-0.013062,-0.521973,-0.04126,12.0,-13.0,-7.0,6496.0,-53.0,4064.0,-798.0,-223.0,338.0,-679.0,-154.0,-561.0,0.890381,0.02082,0.454755,10836.0,1144.0,6632.0,296.0,-285.0,-149.0
2863.0,2781.0,2834.0,3127.0,3027.0,0.850464,-0.012268,-0.524231,-0.041626,0.0,-28.0,-5.0,6171.0,133.0,3866.0,-1142.0,-53.0,179.0,-674.0,24.0,-940.0,0.8927,0.022776,0.450053,10594.0,1342.0,6730.0,19.0,-630.0,-114.0
2849.0,2749.0,2831.0,3151.0,3019.0,0.844849,-0.014282,-0.532959,-0.043945,-19.0,-54.0,-2.0,6028.0,406.0,3700.0,-1359.0,219.0,165.0,-710.0,309.0,-1149.0,0.901795,0.022709,0.431451,12522.0,1596.0,7076.0,-433.0,-1235.0,-39.0
2845.0,2763.0,2818.0,3135.0,3007.0,0.841125,-0.016968,-0.538635,-0.045776,-28.0,-60.0,-1.0,6313.0,486.0,3761.0,-1122.0,315.0,327.0,-732.0,404.0,-874.0,0.907673,0.020769,0.419172,14714.0,1372.0,8194.0,-632.0,-1359.0,-20.0
2837.0,2762.0,2839.0,3135.0,3019.0,0.833984,-0.023987,-0.54895,-0.050232,-35.0,-50.0,-1.0,7034.0,414.0,3826.0,-486.0,289.0,580.0,-688.0,370.0,-212.0,0.918042,0.01514,0.396132,15752.0,214.0,7334.0,-786.0,-1143.0,-10.0
2862.0,2761.0,2830.0,3139.0,3019.0,0.830811,-0.027649,-0.553406,-0.052246,-33.0,-46.0,0.0,7254.0,276.0,3726.0,-302.0,178.0,564.0,-611.0,252.0,-58.0,0.92244,0.011885,0.385953,15684.0,-266.0,6774.0,-740.0,-1052.0,6.0
2854.0,2759.0,2843.0,3135.0,3055.0,0.824951,-0.033813,-0.561462,-0.05542,-24.0,-40.0,0.0,7439.0,130.0,3468.0,-180.0,77.0,459.0,-478.0,140.0,1.0,0.930106,0.006443,0.367232,15078.0,-30.0,6166.0,-539.0,-900.0,2.0
2839.0,2741.0,2839.0,3119.0,3031.0,0.822327,-0.036133,-0.565002,-0.056702,-20.0,-37.0,-1.0,7371.0,120.0,3248.0,-274.0,81.0,307.0,-370.0,132.0,-145.0,0.933331,0.004647,0.358903,14174.0,344.0,4990.0,-453.0,-842.0,-16.0
2855.0,2763.0,2847.0,3119.0,2999.0,0.816406,-0.0401,-0.572998,-0.059326,-20.0,-43.0,-2.0,7280.0,226.0,2776.0,-423.0,205.0,-10.0,-103.0,223.0,-400.0,0.940356,0.002512,0.340104,15046.0,720.0,4344.0,-443.0,-968.0,-23.0
2855.0,2757.0,2830.0,3147.0,3031.0,0.813171,-0.042236,-0.577332,-0.060608,-19.0,-43.0,-1.0,7530.0,180.0,2637.0,-203.0,169.0,-64.0,18.0,168.0,-212.0,0.944059,0.001291,0.329825,16880.0,-148.0,4578.0,-433.0,-965.0,-2.0
2851.0,2785.0,2815.0,3127.0,3039.0,0.807922,-0.045044,-0.584351,-0.061401,-3.0,-27.0,-1.0,8128.0,-168.0,2327.0,347.0,-159.0,-237.0,305.0,-207.0,255.0,0.949751,-0.001024,0.313014,17556.0,-1500.0,3122.0,-50.0,-599.0,-2.0
2849.0,2739.0,2833.0,3139.0,2999.0,0.806274,-0.045105,-0.586731,-0.060669,6.0,-17.0,0.0,8271.0,-251.0,2104.0,475.0,-238.0,-414.0,498.0,-316.0,325.0,0.951605,-0.001541,0.307471,17268.0,-670.0,3016.0,149.0,-373.0,20.0
2851.0,2755.0,2831.0,3133.0,3035.0,0.804993,-0.043396,-0.588745,-0.058777,11.0,0.0,2.0,8314.0,22.0,1839.0,507.0,27.0,-642.0,761.0,-84.0,288.0,0.952972,-0.000658,0.302964,16466.0,1172.0,3010.0,260.0,15.0,51.0
2829.0,2751.0,2823.0,3141.0,2989.0,0.805115,-0.042297,-0.588745,-0.057861,10.0,6.0,3.0,8273.0,207.0,1779.0,466.0,206.0,-704.0,833.0,87.0,230.0,0.95291,2.3e-05,0.303148,16306.0,1454.0,3294.0,245.0,146.0,91.0
2864.0,2753.0,2851.0,3153.0,2992.0,0.806763,-0.040588,-0.586853,-0.055481,11.0,18.0,8.0,8320.0,326.0,1784.0,526.0,329.0,-738.0,901.0,207.0,273.0,0.951406,-0.000372,0.3079,17126.0,582.0,3686.0,254.0,421.0,190.0
2855.0,2769.0,2839.0,3147.0,3045.0,0.808472,-0.039795,-0.584778,-0.053772,14.0,27.0,9.0,8442.0,277.0,1824.0,660.0,288.0,-739.0,938.0,164.0,395.0,0.949832,-0.001457,0.312969,17674.0,314.0,3932.0,323.0,637.0,224.0
2859.0,2775.0,2851.0,3151.0,3043.0,0.814331,-0.03595,-0.577209,-0.049377,26.0,51.0,6.0,8590.0,183.0,2005.0,859.0,195.0,-707.0,968.0,78.0,576.0,0.943629,-0.001548,0.33111,17074.0,-172.0,4626.0,618.0,1178.0,160.0
2864.0,2768.0,2839.0,3166.0,3007.0,0.818542,-0.032898,-0.571594,-0.046936,32.0,62.0,4.0,8548.0,98.0,2128.0,857.0,99.0,-693.0,950.0,-9.0,565.0,0.938837,-0.0002,0.344413,16764.0,-300.0,5206.0,747.0,1441.0,100.0
2850.0,2753.0,2842.0,3099.0,3039.0,0.829407,-0.025635,-0.556458,-0.042236,34.0,84.0,0.0,7852.0,-95.0,2074.0,272.0,-131.0,-1034.0,1041.0,-234.0,-141.0,0.925225,0.004482,0.379397,12600.0,-366.0,2746.0,783.0,1944.0,20.0
2865.0,2789.0,2854.0,3167.0,3021.0,0.834656,-0.022461,-0.548828,-0.040344,25.0,79.0,1.0,7253.0,62.0,2012.0,-267.0,6.0,-1236.0,1025.0,-83.0,-735.0,0.917977,0.00679,0.396561,10550.0,1896.0,4426.0,590.0,1819.0,23.0
2862.0,2795.0,2853.0,3151.0,3039.0,0.842041,-0.021973,-0.537292,-0.043091,-24.0,48.0,-3.0,6995.0,817.0,2191.0,-433.0,740.0,-1263.0,1030.0,652.0,-918.0,0.906738,0.009301,0.421724,17334.0,2746.0,9802.0,-537.0,1103.0,-64.0
2835.0,2755.0,2823.0,3131.0,3051.0,0.846008,-0.024353,-0.53064,-0.045715,-35.0,64.0,0.0,7450.0,1012.0,2877.0,76.0,952.0,-691.0,750.0,880.0,-225.0,0.900078,0.007311,0.435648,17006.0,2914.0,9006.0,-781.0,1476.0,7.0
2861.0,2750.0,2853.0,3119.0,3067.0,0.855225,-0.031616,-0.514771,-0.050781,-39.0,73.0,6.0,7142.0,419.0,3168.0,-97.0,433.0,-665.0,590.0,364.0,-397.0,0.8837,-0.001797,0.468,11924.0,-2092.0,6596.0,-879.0,1675.0,145.0
2862.0,2767.0,2863.0,3135.0,3035.0,0.859314,-0.035522,-0.507629,-0.051758,-29.0,61.0,9.0,6670.0,-109.0,3260.0,-507.0,-39.0,-689.0,350.0,-90.0,-776.0,0.876103,-0.008502,0.48215,10450.0,-3378.0,7296.0,-649.0,1419.0,227.0
2866.0,2773.0,2850.0,3127.0,3037.0,0.865112,-0.03949,-0.497437,-0.050476,2.0,31.0,8.0,5829.0,-819.0,3571.0,-1254.0,-670.0,-541.0,-248.0,-668.0,-1343.0,0.864663,-0.018109,0.501965,9628.0,-2592.0,8322.0,48.0,718.0,197.0
2863.0,2763.0,2815.0,3110.0,3025.0,0.866638,-0.039246,-0.494995,-0.049011,11.0,14.0,6.0,5601.0,-817.0,3783.0,-1458.0,-657.0,-369.0,-502.0,-627.0,-1430.0,0.86181,-0.019503,0.506903,10128.0,-1218.0,9064.0,253.0,334.0,145.0
2832.0,2743.0,2829.0,3113.0,3039.0,0.867432,-0.036682,-0.494019,-0.046265,14.0,-8.0,3.0,5620.0,-437.0,4241.0,-1428.0,-290.0,69.0,-817.0,-217.0,-1188.0,0.860449,-0.017927,0.509178,11734.0,416.0,9404.0,342.0,-163.0,81.0
2859.0,2801.0,2845.0,3139.0,3025.0,0.867004,-0.035278,-0.494995,-0.045288,12.0,-14.0,1.0,5776.0,-269.0,4351.0,-1281.0,-135.0,193.0,-828.0,-57.0,-1003.0,0.861521,-0.016338,0.507483,12654.0,334.0,9256.0,291.0,-312.0,24.0
2855.0,2758.0,2859.0,3147.0,3007.0,0.86554,-0.032776,-0.497803,-0.044312,11.0,-14.0,-4.0,6361.0,-301.0,4507.0,-722.0,-197.0,392.0,-719.0,-124.0,-424.0,0.864641,-0.012621,0.50224,14668.0,-1250.0,9180.0,265.0,-320.0,-74.0
2854.0,2768.0,2847.0,3151.0,3047.0,0.86499,-0.031311,-0.498901,-0.04364,15.0,-9.0,-5.0,6669.0,-449.0,4517.0,-423.0,-361.0,419.0,-609.0,-299.0,-152.0,0.865822,-0.010623,0.50023,15066.0,-1838.0,9046.0,350.0,-201.0,-95.0
2877.0,2774.0,2827.0,3127.0,3039.0,0.864929,-0.026428,-0.49939,-0.041992,27.0,1.0,-11.0,6837.0,-719.0,4434.0,-258.0,-688.0,339.0,-488.0,-642.0,-51.0,0.866093,-0.003776,0.499777,13328.0,-1708.0,8632.0,634.0,24.0,-232.0
2850.0,2771.0,2835.0,3167.0,2999.0,0.865173,-0.022644,-0.499268,-0.041321,31.0,0.0,-14.0,6629.0,-634.0,4348.0,-463.0,-651.0,248.0,-505.0,-605.0,-278.0,0.865777,0.002078,0.500451,11800.0,-516.0,8108.0,725.0,7.0,-317.0
2863.0,2767.0,2826.0,3155.0,3039.0,0.864258,-0.015686,-0.501038,-0.041809,12.0,-19.0,-15.0,6024.0,30.0,4159.0,-1081.0,-91.0,84.0,-615.0,-23.0,-897.0,0.867363,0.014782,0.497405,10326.0,2278.0,7338.0,278.0,-427.0,-333.0
2855.0,2765.0,2843.0,3119.0,3037.0,0.862427,-0.014893,-0.504089,-0.043396,-7.0,-35.0,-11.0,5911.0,356.0,4102.0,-1222.0,208.0,76.0,-643.0,285.0,-1022.0,0.870773,0.018063,0.491335,11562.0,2562.0,8208.0,-156.0,-794.0,-247.0
2843.0,2757.0,2819.0,3139.0,3035.0,0.857178,-0.01947,-0.51239,-0.048523,-38.0,-44.0,-6.0,6529.0,622.0,4265.0,-682.0,488.0,380.0,-603.0,560.0,-412.0,0.880308,0.016346,0.474185,16338.0,1162.0,9310.0,-860.0,-996.0,-122.0
2851.0,2773.0,2832.0,3163.0,3038.0,0.854919,-0.023499,-0.515564,-0.051697,-42.0,-30.0,-7.0,7123.0,439.0,4473.0,-118.0,331.0,645.0,-584.0,396.0,201.0,0.883961,0.013127,0.467201,17614.0,-486.0,10048.0,-945.0,-685.0,-146.0
2847.0,2791.0,2831.0,3159.0,3015.0,0.853271,-0.029541,-0.517395,-0.057556,-24.0,-4.0,-14.0,7372.0,-164.0,4163.0,110.0,-238.0,371.0,-306.0,-202.0,267.0,0.886357,0.009146,0.462815,14254.0,-1996.0,6794.0,-546.0,-73.0,-317.0
2851.0,2774.0,2835.0,3169.0,3025.0,0.852478,-0.030579,-0.518127,-0.062073,-6.0,-7.0,-18.0,6883.0,-258.0,3768.0,-384.0,-357.0,-9.0,-216.0,-326.0,-349.0,0.887181,0.012188,0.461181,12232.0,124.0,6662.0,-129.0,-138.0,-408.0
2854.0,2736.0,2819.0,3071.0,3039.0,0.851685,-0.029846,-0.519226,-0.064087,-4.0,-13.0,-18.0,6782.0,-98.0,3716.0,-494.0,-226.0,-44.0,-216.0,-190.0,-462.0,0.888259,0.015712,0.458987,13272.0,790.0,7372.0,-79.0,-287.0,-392.0
2848.0,2735.0,2833.0,3139.0,3039.0,0.849426,-0.028931,-0.522644,-0.067078,-3.0,-20.0,-9.0,6754.0,174.0,3685.0,-551.0,2.0,-18.0,-228.0,45.0,-499.0,0.891776,0.020967,0.452031,13454.0,1022.0,6914.0,-50.0,-457.0,-197.0
2855.0,2763.0,2815.0,3157.0,3027.0,0.847839,-0.028809,-0.525085,-0.067627,-2.0,-26.0,-4.0,6794.0,269.0,3620.0,-531.0,87.0,-40.0,-185.0,126.0,-490.0,0.894273,0.02217,0.44686,13904.0,1130.0,6878.0,-25.0,-575.0,-82.0
2851.0,2754.0,2823.0,3127.0,3007.0,0.844116,-0.029358,-0.531128,-0.067261,0.0,-29.0,5.0,7251.0,403.0,3514.0,-126.0,223.0,-42.0,15.0,225.0,-126.0,0.900617,0.021885,0.434097,16688.0,1030.0,6914.0,10.0,-642.0,118.0
2847.0,2753.0,2829.0,3143.0,3045.0,0.84259,-0.029663,-0.53363,-0.066345,2.0,-20.0,8.0,7589.0,421.0,3464.0,189.0,250.0,-48.0,158.0,226.0,155.0,0.9032,0.02082,0.428719,16988.0,940.0,6418.0,63.0,-446.0,184.0
2843.0,2762.0,2831.0,3131.0,3027.0,0.841431,-0.02948,-0.535645,-0.064331,6.0,0.0,4.0,7762.0,383.0,3102.0,346.0,224.0,-374.0,511.0,150.0,158.0,0.905208,0.019306,0.42436,15432.0,688.0,5116.0,147.0,21.0,94.0
2849.0,2758.0,2830.0,3143.0,3055.0,0.841675,-0.028625,-0.535461,-0.063843,8.0,8.0,-1.0,7777.0,378.0,2994.0,363.0,212.0,-487.0,618.0,125.0,125.0,0.905024,0.020184,0.424954,15770.0,750.0,5538.0,184.0,189.0,-12.0
2855.0,2759.0,2833.0,3139.0,3055.0,0.843689,-0.025574,-0.532471,-0.063416,11.0,24.0,-5.0,7865.0,473.0,3025.0,478.0,273.0,-511.0,697.0,175.0,217.0,0.901723,0.024381,0.431653,15786.0,1338.0,6098.0,266.0,559.0,-93.0
2859.0,2742.0,2837.0,3131.0,3027.0,0.845459,-0.023438,-0.529785,-0.063049,15.0,31.0,-4.0,7906.0,503.0,3104.0,543.0,280.0,-480.0,699.0,181.0,285.0,0.898779,0.027174,0.437554,16202.0,1126.0,6868.0,358.0,720.0,-82.0
2832.0,2774.0,2843.0,3151.0,3025.0,0.850647,-0.018433,-0.521973,-0.060181,25.0,47.0,4.0,8126.0,494.0,3320.0,833.0,236.0,-402.0,757.0,127.0,566.0,0.890247,0.031466,0.454427,17096.0,1138.0,7272.0,590.0,1088.0,113.0
2851.0,2768.0,2832.0,3159.0,3055.0,0.854126,-0.015015,-0.516663,-0.057739,33.0,58.0,6.0,8294.0,507.0,3565.0,1049.0,228.0,-250.0,728.0,117.0,818.0,0.884324,0.034015,0.465699,17524.0,1052.0,8926.0,773.0,1347.0,144.0
2847.0,2779.0,2839.0,3167.0,3055.0,0.864014,-0.005981,-0.50061,-0.052612,39.0,88.0,-3.0,7667.0,425.0,3408.0,575.0,78.0,-676.0,875.0,-13.0,163.0,0.865698,0.04234,0.498641,11930.0,444.0,4750.0,911.0,2019.0,-49.0
2855.0,2739.0,2823.0,3135.0,3038.0,0.868958,-0.000916,-0.492249,-0.051147,38.0,82.0,-11.0,6831.0,304.0,3079.0,-177.0,-95.0,-1143.0,878.0,-138.0,-745.0,0.85558,0.048763,0.515394,8270.0,-258.0,4364.0,887.0,1881.0,-241.0
2849.0,2785.0,2854.0,3147.0,3019.0,0.874939,0.008179,-0.481628,-0.0495,28.0,28.0,-9.0,5455.0,369.0,3155.0,-1442.0,-138.0,-1235.0,265.0,-42.0,-1884.0,0.841981,0.061992,0.535936,9352.0,1812.0,9240.0,647.0,643.0,-204.0
2851.0,2769.0,2835.0,3147.0,3039.0,0.87616,0.010803,-0.479431,-0.049255,14.0,13.0,-6.0,5523.0,585.0,3622.0,-1350.0,43.0,-802.0,-45.0,150.0,-1563.0,0.839052,0.06616,0.540111,12284.0,2572.0,9562.0,330.0,315.0,-130.0
2864.0,2769.0,2839.0,3151.0,3011.0,0.877991,0.013489,-0.47583,-0.049744,2.0,16.0,-4.0,6188.0,912.0,4338.0,-645.0,330.0,-140.0,-207.0,389.0,-591.0,0.834207,0.071025,0.546746,14566.0,2900.0,10528.0,57.0,388.0,-75.0
2855.0,2778.0,2867.0,3135.0,3021.0,0.879272,0.013733,-0.47345,-0.050232,-5.0,22.0,-2.0,6543.0,1025.0,4588.0,-266.0,437.0,71.0,-171.0,463.0,-150.0,0.831203,0.071715,0.5513,15062.0,2688.0,10412.0,-108.0,514.0,-40.0
2871.0,2747.0,2835.0,3121.0,3011.0,0.882812,0.012573,-0.466614,-0.052246,-14.0,35.0,-4.0,6784.0,1040.0,4784.0,45.0,458.0,162.0,-71.0,454.0,160.0,0.822551,0.070957,0.564201,13162.0,1832.0,9798.0,-303.0,804.0,-70.0
2864.0,2767.0,2845.0,3135.0,3015.0,0.884827,0.011414,-0.462646,-0.053223,-16.0,32.0,-1.0,6416.0,935.0,4732.0,-281.0,366.0,49.0,-168.0,394.0,-176.0,0.817509,0.069445,0.571579,10042.0,1154.0,8966.0,-345.0,737.0,-21.0
2864.0,2763.0,2831.0,3147.0,3034.0,0.886353,0.007629,-0.459717,-0.054077,-15.0,-9.0,6.0,5379.0,521.0,4494.0,-1290.0,2.0,-233.0,-546.0,126.0,-1184.0,0.814117,0.063245,0.577147,8700.0,-352.0,8752.0,-341.0,-193.0,140.0
2867.0,2767.0,2839.0,3139.0,3007.0,0.885498,0.005676,-0.461487,-0.053955,-9.0,-24.0,5.0,5306.0,265.0,4510.0,-1384.0,-225.0,-192.0,-649.0,-91.0,-1253.0,0.816679,0.059852,0.574016,10530.0,-958.0,9068.0,-202.0,-545.0,137.0
2865.0,2767.0,2845.0,3141.0,3019.0,0.881958,0.00415,-0.468323,-0.052551,7.0,-36.0,1.0,5782.0,-274.0,4481.0,-981.0,-737.0,-116.0,-514.0,-642.0,-916.0,0.825646,0.056543,0.561268,14114.0,-2076.0,9154.0,176.0,-811.0,45.0
2851.0,2775.0,2847.0,3149.0,3029.0,0.880188,0.004883,-0.471802,-0.05127,17.0,-29.0,0.0,6252.0,-451.0,4511.0,-547.0,-917.0,-33.0,-351.0,-861.0,-524.0,0.830048,0.056974,0.554739,15274.0,-1816.0,9154.0,396.0,-651.0,14.0
2863.0,2759.0,2838.0,3157.0,3031.0,0.878235,0.009155,-0.475708,-0.047668,28.0,-9.0,1.0,6744.0,-391.0,4517.0,-93.0,-894.0,34.0,-145.0,-880.0,-113.0,0.834694,0.061433,0.547187,13848.0,-32.0,8920.0,657.0,-198.0,32.0
2847.0,2767.0,2834.0,3125.0,3015.0,0.877869,0.011902,-0.476562,-0.045715,27.0,-7.0,2.0,6601.0,-155.0,4471.0,-244.0,-683.0,2.0,-180.0,-657.0,-246.0,0.83563,0.064469,0.54549,12042.0,1262.0,8668.0,631.0,-145.0,60.0
2864.0,2767.0,2853.0,3127.0,2995.0,0.876465,0.015442,-0.479248,-0.043396,7.0,-22.0,3.0,5948.0,579.0,4431.0,-923.0,16.0,6.0,-499.0,99.0,-769.0,0.838748,0.068663,0.540157,9638.0,3324.0,8622.0,164.0,-503.0,90.0
2863.0,2783.0,2843.0,3153.0,3027.0,0.874695,0.015198,-0.482422,-0.043457,-6.0,-39.0,5.0,5538.0,869.0,4290.0,-1364.0,307.0,-84.0,-634.0,428.0,-1173.0,0.842623,0.068516,0.534018,8618.0,3290.0,7460.0,-135.0,-871.0,117.0
2855.0,2767.0,2843.0,3159.0,3037.0,0.867737,0.010132,-0.494873,-0.045349,-29.0,-72.0,5.0,5655.0,923.0,4126.0,-1373.0,411.0,-52.0,-621.0,529.0,-1178.0,0.85792,0.062468,0.510022,13630.0,834.0,8320.0,-656.0,-1633.0,137.0
2863.0,2775.0,2837.0,3127.0,3011.0,0.863525,0.006165,-0.502075,-0.04657,-29.0,-69.0,4.0,6242.0,630.0,4241.0,-856.0,159.0,180.0,-565.0,238.0,-643.0,0.866535,0.05741,0.495727,16252.0,-668.0,9426.0,-658.0,-1574.0,111.0
2843.0,2743.0,2839.0,3135.0,3031.0,0.857178,0.000793,-0.512756,-0.048096,-12.0,-43.0,-1.0,7030.0,191.0,4227.0,-170.0,-224.0,342.0,-398.0,-192.0,1.0,0.87897,0.050683,0.474147,15396.0,-116.0,8010.0,-269.0,-973.0,-7.0
