flex_1,flex_2,flex_3,flex_4,flex_5,Qw,Qx,Qy,Qz,GYRx,GYRy,GYRz,ACCx,ACCy,ACCz,ACCx_real,ACCy_real,ACCz_real,ACCx_world,ACCy_world,ACCz_world,GRAx,GRAy,GRAz,ACCx_raw,ACCy_raw,ACCz_raw,GYRx_raw,GYRy_raw,GYRz_raw
2864.0,2773.0,2845.0,3059.0,2975.0,1.0,0.0,0.0,0.0,0.0,0.0,0.0,0.0,0.0,0.0,0.0,0.0,0.0,0.0,0.0,0.0,0.0,0.0,0.0,0.0,0.0,0.0,0.0,0.0,0.0
2862.0,2773.0,2832.0,3063.0,2992.0,0.911011,0.374512,-0.167725,0.039368,11.0,-3.0,-53.0,-1088.0,6293.0,2104.0,-3833.0,811.0,-3328.0,-2846.0,3102.0,-2948.0,0.335085,0.669163,0.6631,-3608.0,13814.0,3888.0,253.0,-46.0,-1211.0
2860.0,2766.0,2842.0,3067.0,2983.0,0.908875,0.384399,-0.159485,0.025513,24.0,-2.0,-59.0,-1641.0,6700.0,1883.0,-4176.0,1042.0,-3470.0,-3195.0,3503.0,-2840.0,0.309518,0.690604,0.653505,-5088.0,15006.0,3052.0,562.0,-28.0,-1343.0
2853.0,2767.0,2839.0,3071.0,2975.0,0.905029,0.397522,-0.150757,0.010315,29.0,-7.0,-64.0,-2182.0,7622.0,1880.0,-4484.0,1753.0,-3350.0,-3635.0,4073.0,-2143.0,0.28108,0.716428,0.638433,-5842.0,18496.0,4072.0,687.0,-153.0,-1450.0
2864.0,2762.0,2832.0,3061.0,2967.0,0.902893,0.403931,-0.146667,0.00177,25.0,-12.0,-67.0,-2398.0,8161.0,1957.0,-4579.0,2189.0,-3208.0,-3802.0,4343.0,-1646.0,0.26628,0.728893,0.630548,-6010.0,19532.0,4420.0,576.0,-258.0,-1524.0
2855.0,2754.0,2851.0,3067.0,2959.0,0.899109,0.41449,-0.139465,-0.017395,12.0,-20.0,-75.0,-2577.0,8895.0,2187.0,-4513.0,2749.0,-2871.0,-3804.0,4591.0,-777.0,0.236369,0.750195,0.617447,-5340.0,19284.0,4952.0,287.0,-452.0,-1696.0
2861.0,2757.0,2807.0,3067.0,2994.0,0.895142,0.423401,-0.133972,-0.03833,13.0,-29.0,-76.0,-2500.0,8979.0,2221.0,-4198.0,2685.0,-2739.0,-3409.0,4526.0,-466.0,0.20739,0.768278,0.605531,-4416.0,17662.0,4558.0,318.0,-652.0,-1739.0
2863.0,2767.0,2844.0,3071.0,2979.0,0.892578,0.428162,-0.132263,-0.048584,19.0,-33.0,-73.0,-2356.0,8915.0,2266.0,-3949.0,2548.0,-2634.0,-3127.0,4370.0,-363.0,0.194507,0.777187,0.59824,-3762.0,17466.0,4832.0,450.0,-738.0,-1662.0
2863.0,2778.0,2838.0,3067.0,2979.0,0.886108,0.439331,-0.131104,-0.067627,34.0,-39.0,-65.0,-1999.0,8933.0,2295.0,-3415.0,2409.0,-2452.0,-2539.0,4125.0,-93.0,0.172923,0.796322,0.579562,-2782.0,18356.0,4704.0,782.0,-878.0,-1475.0
2862.0,2779.0,2847.0,3059.0,2975.0,0.877563,0.452759,-0.132751,-0.085022,42.0,-45.0,-59.0,-1447.0,9441.0,2225.0,-2725.0,2746.0,-2319.0,-1790.0,4105.0,532.0,0.156007,0.817223,0.554733,-862.0,20912.0,4120.0,982.0,-1022.0,-1333.0
2859.0,2775.0,2843.0,3067.0,2967.0,0.872742,0.459717,-0.134583,-0.093445,43.0,-48.0,-57.0,-1047.0,9898.0,2140.0,-2267.0,3118.0,-2291.0,-1287.0,4176.0,1003.0,0.148995,0.82758,0.540958,458.0,22812.0,3776.0,995.0,-1082.0,-1297.0
2857.0,2753.0,2833.0,3071.0,2983.0,0.86322,0.472534,-0.139404,-0.109802,32.0,-47.0,-57.0,126.0,11081.0,2021.0,-995.0,4147.0,-2193.0,62.0,4236.0,2245.0,0.136903,0.846416,0.514484,4334.0,25650.0,3868.0,734.0,-1064.0,-1293.0
2862.0,2770.0,2837.0,3069.0,2983.0,0.859131,0.477417,-0.141846,-0.117554,21.0,-43.0,-56.0,841.0,11597.0,1988.0,-236.0,4603.0,-2139.0,847.0,4140.0,2820.0,0.131484,0.853676,0.503878,5954.0,26148.0,3742.0,494.0,-982.0,-1272.0
2857.0,2759.0,2827.0,3063.0,2887.0,0.852417,0.484375,-0.146057,-0.131714,7.0,-34.0,-52.0,2180.0,12174.0,1798.0,1185.0,5094.0,-2199.0,2344.0,3824.0,3473.0,0.121405,0.864254,0.488011,8254.0,25424.0,3038.0,179.0,-777.0,-1190.0
2855.0,2759.0,2833.0,3062.0,2979.0,0.847107,0.489441,-0.150208,-0.142334,5.0,-25.0,-38.0,3442.0,12219.0,1696.0,2498.0,5075.0,-2201.0,3628.0,3199.0,3665.0,0.115156,0.871977,0.475734,10838.0,24056.0,3316.0,124.0,-565.0,-867.0
2854.0,2766.0,2833.0,3059.0,2983.0,0.84491,0.491577,-0.152832,-0.145264,8.0,-19.0,-26.0,4165.0,12049.0,1743.0,3219.0,4880.0,-2106.0,4242.0,2697.0,3652.0,0.115442,0.875078,0.469968,12774.0,22904.0,3860.0,185.0,-427.0,-588.0
2859.0,2775.0,2850.0,3059.0,2987.0,0.841003,0.496399,-0.159485,-0.144348,21.0,-4.0,3.0,5624.0,11600.0,2020.0,4600.0,4382.0,-1717.0,5250.0,1549.0,3651.0,0.124946,0.880989,0.456276,15336.0,22076.0,4996.0,500.0,-82.0,84.0
2863.0,2774.0,2845.0,3071.0,2987.0,0.839111,0.499268,-0.163513,-0.140686,26.0,1.0,17.0,6179.0,11576.0,2178.0,5081.0,4335.0,-1491.0,5542.0,1153.0,3844.0,0.133932,0.88389,0.447896,15434.0,23388.0,5304.0,608.0,45.0,406.0
2863.0,2774.0,2843.0,3071.0,2991.0,0.837097,0.502747,-0.172241,-0.129456,7.0,6.0,41.0,6876.0,11923.0,2573.0,5580.0,4662.0,-991.0,5679.0,762.0,4583.0,0.158199,0.886291,0.435069,15276.0,24766.0,6380.0,166.0,158.0,954.0
2859.0,2763.0,2815.0,3071.0,2990.0,0.837891,0.501587,-0.176697,-0.122742,-12.0,8.0,50.0,7030.0,11898.0,2731.0,5612.0,4656.0,-826.0,5570.0,681.0,4727.0,0.172974,0.883926,0.434315,14764.0,23218.0,6330.0,-264.0,188.0,1161.0
2863.0,2767.0,2815.0,3063.0,2979.0,0.84314,0.493042,-0.18512,-0.108154,-44.0,12.0,63.0,7003.0,10939.0,2963.0,5319.0,3800.0,-684.0,5115.0,463.0,4100.0,0.205514,0.871449,0.445222,13446.0,17802.0,6520.0,-988.0,278.0,1451.0
2863.0,2769.0,2836.0,3071.0,2982.0,0.847107,0.48645,-0.188843,-0.100525,-53.0,14.0,67.0,6816.0,10123.0,3025.0,4996.0,3060.0,-705.0,4792.0,335.0,3426.0,0.222139,0.862117,0.4554,12360.0,15100.0,6350.0,-1208.0,336.0,1540.0
2841.0,2759.0,2835.0,3058.0,2967.0,0.856201,0.470764,-0.195251,-0.084717,-63.0,19.0,71.0,6231.0,8292.0,3077.0,4145.0,1417.0,-859.0,4070.0,69.0,1831.0,0.254586,0.83922,0.480515,10530.0,10912.0,6248.0,-1427.0,438.0,1645.0
2855.0,2774.0,2855.0,3071.0,2987.0,0.865723,0.453369,-0.200684,-0.068359,-63.0,20.0,74.0,5543.0,6437.0,3075.0,3204.0,-218.0,-1089.0,3375.0,-263.0,184.0,0.285489,0.812421,0.508331,8988.0,7478.0,6064.0,-1436.0,476.0,1710.0
2862.0,2767.0,2835.0,3063.0,2977.0,0.870178,0.444763,-0.203247,-0.06012,-60.0,20.0,74.0,5210.0,5612.0,3036.0,2750.0,-929.0,-1237.0,3077.0,-412.0,-561.0,0.300244,0.798485,0.521701,8488.0,6426.0,5790.0,-1370.0,469.0,1711.0
2859.0,2761.0,2829.0,3063.0,2973.0,0.878052,0.428528,-0.208313,-0.043579,-51.0,19.0,73.0,4754.0,4229.0,2925.0,2063.0,-2084.0,-1546.0,2711.0,-701.0,-1772.0,0.328469,0.770695,0.545844,8514.0,4760.0,5588.0,-1156.0,454.0,1690.0
2863.0,2779.0,2832.0,3063.0,2979.0,0.881409,0.421143,-0.210815,-0.035034,-45.0,21.0,74.0,4642.0,3677.0,2896.0,1839.0,-2525.0,-1661.0,2629.0,-854.0,-2206.0,0.34212,0.757169,0.556304,8712.0,4154.0,5638.0,-1027.0,486.0,1701.0
2857.0,2771.0,2845.0,3071.0,2987.0,0.887024,0.408081,-0.215088,-0.016907,-31.0,26.0,75.0,4495.0,2812.0,2852.0,1482.0,-3178.0,-1852.0,2538.0,-1094.0,-2842.0,0.367778,0.731228,0.574304,8628.0,3378.0,5610.0,-706.0,610.0,1722.0
2871.0,2775.0,2835.0,3061.0,2975.0,0.890869,0.39856,-0.217896,0.002319,-13.0,31.0,72.0,4311.0,2214.0,2818.0,1115.0,-3595.0,-1993.0,2418.0,-1224.0,-3284.0,0.390082,0.709118,0.587325,7850.0,2922.0,5554.0,-281.0,725.0,1657.0
2863.0,2768.0,2836.0,3063.0,2997.0,0.891968,0.395447,-0.218628,0.012024,-3.0,33.0,69.0,4127.0,2059.0,2804.0,854.0,-3676.0,-2042.0,2263.0,-1203.0,-3440.0,0.399528,0.700194,0.591575,7030.0,3406.0,5544.0,-52.0,759.0,1585.0
2860.0,2758.0,2834.0,3059.0,2989.0,0.892822,0.392761,-0.218384,0.029846,11.0,33.0,56.0,3558.0,2223.0,2807.0,171.0,-3415.0,-2076.0,1683.0,-892.0,-3517.0,0.413401,0.688296,0.59607,5220.0,5468.0,5670.0,270.0,765.0,1299.0
2863.0,2771.0,2849.0,3067.0,2975.0,0.892822,0.392639,-0.217407,0.037476,14.0,32.0,48.0,3213.0,2480.0,2835.0,-208.0,-3130.0,-2056.0,1293.0,-659.0,-3457.0,0.417641,0.684819,0.597105,4340.0,6680.0,5868.0,328.0,745.0,1115.0
2864.0,2779.0,2847.0,3067.0,2979.0,0.892822,0.393066,-0.214111,0.049255,8.0,29.0,32.0,2492.0,3136.0,2968.0,-957.0,-2440.0,-1940.0,427.0,-194.0,-3226.0,0.421048,0.680785,0.599213,2804.0,8210.0,6588.0,204.0,665.0,737.0
2863.0,2768.0,2839.0,3063.0,2987.0,0.89325,0.392822,-0.211914,0.053284,2.0,27.0,23.0,2106.0,3386.0,3043.0,-1338.0,-2177.0,-1884.0,-6.0,-32.0,-3174.0,0.420446,0.679193,0.601517,1858.0,8122.0,6476.0,56.0,626.0,547.0
2854.0,2768.0,2847.0,3063.0,2992.0,0.894836,0.391418,-0.206482,0.057434,-4.0,22.0,4.0,1190.0,3622.0,3142.0,-2205.0,-1922.0,-1840.0,-896.0,142.0,-3333.0,0.414497,0.676793,0.608188,-432.0,7616.0,6624.0,-80.0,515.0,103.0
2862.0,2781.0,2851.0,3063.0,2975.0,0.895569,0.391602,-0.203064,0.057251,-1.0,17.0,-9.0,629.0,3736.0,3047.0,-2717.0,-1819.0,-1956.0,-1375.0,321.0,-3538.0,0.408555,0.678161,0.610734,-2186.0,8204.0,5344.0,-11.0,409.0,-192.0
2864.0,2767.0,2838.0,3061.0,2982.0,0.895935,0.395203,-0.195862,0.051453,10.0,4.0,-35.0,-394.0,4198.0,2828.0,-3602.0,-1438.0,-2175.0,-2276.0,828.0,-3728.0,0.391627,0.687997,0.6108,-3544.0,10508.0,5098.0,237.0,92.0,-793.0
2863.0,2759.0,2847.0,3067.0,2975.0,0.895569,0.398499,-0.192261,0.046265,12.0,-3.0,-45.0,-805.0,4721.0,2740.0,-3928.0,-980.0,-2244.0,-2699.0,1253.0,-3544.0,0.381238,0.695976,0.608419,-4196.0,13264.0,4628.0,296.0,-48.0,-1014.0
2856.0,2773.0,2847.0,3071.0,2974.0,0.894287,0.406006,-0.18512,0.031921,2.0,-13.0,-59.0,-1392.0,5867.0,2667.0,-4316.0,15.0,-2261.0,-3323.0,2080.0,-2890.0,0.357021,0.714353,0.601658,-3844.0,14708.0,5760.0,64.0,-291.0,-1330.0
2863.0,2768.0,2849.0,3071.0,2985.0,0.894043,0.408813,-0.181641,0.023499,-1.0,-12.0,-63.0,-1545.0,6260.0,2662.0,-4363.0,341.0,-2251.0,-3447.0,2355.0,-2604.0,0.344002,0.722457,0.599743,-4064.0,14568.0,5040.0,-20.0,-272.0,-1443.0
2862.0,2769.0,2835.0,3063.0,2975.0,0.892883,0.415344,-0.173706,0.006042,12.0,-9.0,-69.0,-1870.0,6346.0,2558.0,-4452.0,287.0,-2312.0,-3521.0,2501.0,-2565.0,0.315218,0.739609,0.594593,-4758.0,12640.0,4976.0,276.0,-191.0,-1575.0
2859.0,2783.0,2847.0,3067.0,2971.0,0.889587,0.425964,-0.164246,-0.011719,25.0,-9.0,-75.0,-2403.0,7078.0,2695.0,-4715.0,838.0,-2081.0,-3929.0,2860.0,-1905.0,0.282238,0.761715,0.583081,-6502.0,17902.0,6470.0,586.0,-186.0,-1698.0
2864.0,2759.0,2837.0,3063.0,2991.0,0.887878,0.431091,-0.158936,-0.021545,15.0,-10.0,-79.0,-2693.0,7815.0,2924.0,-4852.0,1487.0,-1808.0,-4204.0,3154.0,-1175.0,0.263655,0.772362,0.577692,-7140.0,20128.0,7318.0,357.0,-211.0,-1802.0
2855.0,2775.0,2853.0,3063.0,2974.0,0.885864,0.437439,-0.147766,-0.0448,-12.0,-18.0,-93.0,-3263.0,8902.0,3131.0,-5086.0,2444.0,-1567.0,-4493.0,3753.0,-104.0,0.222607,0.788263,0.573575,-7950.0,20090.0,6360.0,-273.0,-407.0,-2109.0
2857.0,2779.0,2834.0,3063.0,2979.0,0.884521,0.439209,-0.139282,-0.072449,-27.0,-39.0,-99.0,-3467.0,9162.0,2840.0,-4964.0,2631.0,-1873.0,-4122.0,4249.0,112.0,0.182756,0.797161,0.575323,-7052.0,18350.0,4240.0,-609.0,-881.0,-2255.0
2864.0,2775.0,2847.0,3061.0,2975.0,0.883362,0.439697,-0.136963,-0.086853,-22.0,-47.0,-98.0,-3301.0,9036.0,2654.0,-4657.0,2477.0,-2062.0,-3673.0,4310.0,24.0,0.165597,0.800615,0.575779,-5424.0,17322.0,3956.0,-503.0,-1075.0,-2225.0
2859.0,2770.0,2860.0,3071.0,2987.0,0.879089,0.442261,-0.136353,-0.11377,-2.0,-56.0,-84.0,-2556.0,8547.0,2139.0,-3695.0,1922.0,-2543.0,-2443.0,4203.0,-413.0,0.139101,0.808599,0.571555,-2350.0,15184.0,2534.0,-38.0,-1260.0,-1919.0
2861.0,2769.0,2839.0,3071.0,2955.0,0.870667,0.452026,-0.139465,-0.134399,44.0,-47.0,-67.0,-1481.0,8271.0,1558.0,-2475.0,1515.0,-2966.0,-1044.0,3955.0,-689.0,0.121351,0.824617,0.552345,378.0,16824.0,1380.0,1027.0,-1060.0,-1514.0
2859.0,2770.0,2845.0,3071.0,2971.0,0.864624,0.460571,-0.141602,-0.14209,65.0,-40.0,-59.0,-894.0,8554.0,1291.0,-1827.0,1699.0,-3096.0,-320.0,3937.0,-444.0,0.113979,0.836682,0.535587,1746.0,19354.0,1000.0,1497.0,-896.0,-1340.0
2858.0,2759.0,2839.0,3071.0,2975.0,0.850403,0.481506,-0.146545,-0.153137,79.0,-28.0,-46.0,358.0,9900.0,954.0,-475.0,2823.0,-3087.0,1129.0,3961.0,867.0,0.101772,0.863832,0.493312,4594.0,24554.0,1220.0,1832.0,-640.0,-1048.0
2851.0,2770.0,2846.0,3071.0,2983.0,0.836914,0.500549,-0.152039,-0.160583,62.0,-24.0,-37.0,1699.0,11330.0,948.0,931.0,4066.0,-2759.0,2459.0,3603.0,2443.0,0.093727,0.886663,0.452547,7462.0,26066.0,2166.0,1441.0,-548.0,-845.0
2861.0,2773.0,2849.0,3067.0,2995.0,0.831299,0.508057,-0.154968,-0.163574,53.0,-23.0,-34.0,2383.0,11708.0,1042.0,1633.0,4372.0,-2527.0,3038.0,3185.0,2963.0,0.09144,0.895391,0.435678,8906.0,25338.0,2718.0,1235.0,-519.0,-757.0
2865.0,2769.0,2867.0,3055.0,2979.0,0.821716,0.520203,-0.161621,-0.167236,46.0,-19.0,-21.0,3733.0,11988.0,1356.0,2982.0,4541.0,-1973.0,4010.0,2088.0,3598.0,0.09162,0.908976,0.406454,11524.0,24388.0,3850.0,1065.0,-433.0,-459.0
2859.0,2767.0,2839.0,3071.0,2987.0,0.817627,0.525391,-0.165527,-0.167236,45.0,-16.0,-11.0,4414.0,12029.0,1564.0,3636.0,4537.0,-1655.0,4423.0,1481.0,3843.0,0.09495,0.914511,0.393047,12938.0,24270.0,4452.0,1039.0,-354.0,-230.0
2861.0,2769.0,2843.0,3062.0,2967.0,0.810791,0.534424,-0.174683,-0.162659,44.0,-6.0,13.0,5697.0,12082.0,2005.0,4800.0,4517.0,-1007.0,5061.0,350.0,4326.0,0.109405,0.923439,0.367717,14886.0,24398.0,5350.0,1024.0,-136.0,298.0
2859.0,2768.0,2845.0,3071.0,2979.0,0.806091,0.541138,-0.184753,-0.152344,33.0,2.0,35.0,6491.0,12379.0,2482.0,5401.0,4771.0,-352.0,5162.0,-364.0,5027.0,0.132978,0.928705,0.346028,14560.0,26016.0,6454.0,772.0,52.0,803.0
2867.0,2755.0,2831.0,3063.0,2979.0,0.805237,0.54248,-0.189636,-0.145996,18.0,5.0,43.0,6631.0,12578.0,2714.0,5426.0,4967.0,-66.0,4980.0,-506.0,5389.0,0.147004,0.929023,0.339474,13854.0,26214.0,6842.0,424.0,116.0,988.0
2865.0,2795.0,2854.0,3057.0,2995.0,0.807739,0.539124,-0.198059,-0.132751,-19.0,9.0,53.0,6489.0,12310.0,3088.0,5040.0,4744.0,301.0,4331.0,-584.0,5374.0,0.176821,0.923528,0.340184,11900.0,22568.0,7026.0,-432.0,227.0,1230.0
2867.0,2755.0,2837.0,3057.0,2981.0,0.810791,0.534851,-0.201599,-0.126221,-33.0,11.0,56.0,6228.0,11799.0,3182.0,4656.0,4277.0,342.0,3924.0,-542.0,4939.0,0.191891,0.918197,0.346606,10732.0,20184.0,6874.0,-753.0,269.0,1301.0
2877.0,2763.0,2835.0,3069.0,2987.0,0.819092,0.522644,-0.20752,-0.112976,-52.0,15.0,62.0,5583.0,10387.0,3276.0,3765.0,2988.0,265.0,3127.0,-448.0,3631.0,0.221863,0.903076,0.367454,9104.0,16230.0,6614.0,-1182.0,361.0,1442.0
2857.0,2753.0,2857.0,3071.0,2995.0,0.823975,0.515381,-0.210144,-0.106079,-57.0,17.0,66.0,5232.0,9593.0,3234.0,3290.0,2270.0,117.0,2777.0,-369.0,2853.0,0.236964,0.893905,0.380409,8372.0,14364.0,6148.0,-1294.0,403.0,1517.0
2858.0,2786.0,2859.0,3071.0,2991.0,0.834106,0.499695,-0.214905,-0.091187,-61.0,22.0,73.0,4683.0,8088.0,3102.0,2492.0,938.0,-241.0,2269.0,-268.0,1386.0,0.267376,0.87279,0.40817,7930.0,11748.0,5742.0,-1380.0,525.0,1677.0
2859.0,2771.0,2839.0,3067.0,2979.0,0.839233,0.491577,-0.21698,-0.082947,-60.0,26.0,76.0,4454.0,7380.0,3014.0,2138.0,325.0,-446.0,2081.0,-238.0,695.0,0.282644,0.861091,0.422464,7514.0,10584.0,5452.0,-1369.0,608.0,1747.0
2857.0,2794.0,2847.0,3039.0,2959.0,0.848999,0.475708,-0.220337,-0.065491,-55.0,31.0,78.0,3987.0,6024.0,2812.0,1432.0,-829.0,-876.0,1744.0,-223.0,-641.0,0.311823,0.836611,0.450242,6650.0,8080.0,5046.0,-1242.0,724.0,1794.0
2871.0,2759.0,2835.0,3057.0,2979.0,0.857422,0.461365,-0.222778,-0.047546,-45.0,33.0,75.0,3583.0,4865.0,2690.0,812.0,-1789.0,-1200.0,1460.0,-328.0,-1748.0,0.338158,0.812353,0.474945,6060.0,6576.0,5154.0,-1014.0,758.0,1719.0
2847.0,2762.0,2831.0,3071.0,2975.0,0.861084,0.454895,-0.223633,-0.038818,-40.0,32.0,71.0,3435.0,4339.0,2683.0,569.0,-2220.0,-1298.0,1359.0,-453.0,-2209.0,0.349817,0.800768,0.486031,6046.0,5488.0,5358.0,-901.0,754.0,1634.0
2859.0,2783.0,2839.0,3057.0,2992.0,0.867126,0.443604,-0.225098,-0.022461,-27.0,29.0,62.0,3262.0,3302.0,2740.0,227.0,-3083.0,-1396.0,1272.0,-860.0,-3023.0,0.370449,0.779433,0.50496,6122.0,3638.0,5726.0,-614.0,676.0,1421.0
2859.0,2765.0,2843.0,3071.0,2999.0,0.869446,0.439026,-0.225891,-0.014893,-20.0,26.0,57.0,3202.0,2851.0,2770.0,91.0,-3458.0,-1427.0,1257.0,-1063.0,-3359.0,0.379724,0.770147,0.512387,6068.0,3130.0,5688.0,-454.0,607.0,1313.0
2873.0,2769.0,2831.0,3063.0,2961.0,0.87262,0.431946,-0.227783,-0.001526,-12.0,18.0,48.0,3047.0,2387.0,2701.0,-198.0,-3794.0,-1583.0,1190.0,-1146.0,-3769.0,0.396218,0.754544,0.523005,5538.0,3976.0,4844.0,-261.0,416.0,1101.0
2863.0,2780.0,2851.0,3059.0,2991.0,0.873657,0.429138,-0.229065,0.004028,-11.0,12.0,43.0,2910.0,2359.0,2538.0,-397.0,-3768.0,-1776.0,1116.0,-969.0,-3914.0,0.403706,0.747994,0.526663,4908.0,4816.0,4026.0,-242.0,292.0,996.0
2859.0,2794.0,2864.0,3063.0,2979.0,0.875061,0.4245,-0.232056,0.012085,-14.0,3.0,31.0,2512.0,2729.0,2256.0,-899.0,-3311.0,-2100.0,751.0,-386.0,-3932.0,0.416386,0.737317,0.531828,3730.0,6892.0,4090.0,-317.0,81.0,732.0
2865.0,2791.0,2862.0,3091.0,2974.0,-1.21228,-1.541138,0.192993,-0.344543,9494.0,7127.0,19052.0,16030.0,1447.0,-7214.0,3497.0,-28073.0,-463.0,-12761.0,30339.0,-29896.0,1.529902,3.603593,-0.824018,2288.0,6522.0,5184.0,-364.0,167.0,395.0
2863.0,2768.0,2833.0,3071.0,2987.0,0.877991,0.417908,-0.232605,0.017517,-11.0,11.0,8.0,1627.0,2990.0,2365.0,-1838.0,-2954.0,-2078.0,-154.0,-77.0,-4048.0,0.423091,0.725689,0.542423,918.0,5476.0,5062.0,-231.0,274.0,197.0
2863.0,2775.0,2839.0,3087.0,2965.0,0.878662,0.41925,-0.227356,0.018799,18.0,18.0,-7.0,632.0,3009.0,2513.0,-2770.0,-2956.0,-1951.0,-1071.0,-23.0,-4366.0,0.415301,0.728211,0.544939,-2240.0,6926.0,5318.0,423.0,424.0,-154.0
2871.0,2757.0,2829.0,3063.0,2987.0,0.877869,0.422974,-0.223572,0.018433,31.0,16.0,-15.0,21.0,3369.0,2569.0,-3322.0,-2647.0,-1871.0,-1695.0,227.0,-4313.0,0.408126,0.734389,0.542102,-3596.0,9230.0,5556.0,731.0,373.0,-335.0
2847.0,2769.0,2826.0,3055.0,2991.0,0.874695,0.433777,-0.215637,0.014648,40.0,4.0,-27.0,-1032.0,4612.0,2770.0,-4226.0,-1552.0,-1577.0,-2926.0,921.0,-3652.0,0.389942,0.752527,0.530644,-4898.0,13314.0,5986.0,926.0,104.0,-611.0
2847.0,2757.0,2847.0,3071.0,2960.0,0.870178,0.446045,-0.209106,0.007019,39.0,-10.0,-35.0,-1700.0,5851.0,2853.0,-4732.0,-484.0,-1362.0,-3734.0,1594.0,-2826.0,0.370181,0.773342,0.514578,-4998.0,15058.0,5720.0,909.0,-220.0,-779.0
2867.0,2773.0,2835.0,3071.0,2961.0,0.867493,0.452454,-0.206604,0.002075,40.0,-17.0,-38.0,-1916.0,6409.0,2798.0,-4867.0,-14.0,-1340.0,-3970.0,1937.0,-2441.0,0.360333,0.784143,0.505148,-4962.0,16172.0,5320.0,919.0,-367.0,-848.0
2850.0,2747.0,2831.0,3069.0,2982.0,0.861389,0.465393,-0.203064,-0.009766,38.0,-26.0,-44.0,-2048.0,7434.0,2677.0,-4839.0,833.0,-1290.0,-4118.0,2497.0,-1602.0,0.340744,0.805735,0.484261,-4270.0,18148.0,4816.0,890.0,-593.0,-999.0
2871.0,2778.0,2862.0,3088.0,2947.0,0.858093,0.471924,-0.201599,-0.016785,36.0,-30.0,-49.0,-2026.0,7952.0,2576.0,-4730.0,1261.0,-1300.0,-4075.0,2778.0,-1146.0,0.33014,0.816677,0.473251,-3774.0,18906.0,4466.0,837.0,-675.0,-1119.0
2863.0,2769.0,2832.0,3090.0,2950.0,0.851685,0.483643,-0.199158,-0.032715,25.0,-34.0,-57.0,-1702.0,8876.0,2486.0,-4221.0,2020.0,-1223.0,-3700.0,3110.0,-161.0,0.307595,0.836853,0.452863,-2274.0,20582.0,4810.0,579.0,-761.0,-1287.0
2843.0,2751.0,2831.0,3071.0,2967.0,0.846497,0.492126,-0.196289,-0.051147,6.0,-35.0,-66.0,-1292.0,9503.0,2234.0,-3601.0,2513.0,-1357.0,-3052.0,3393.0,533.0,0.281974,0.853246,0.438455,-1046.0,19894.0,3610.0,155.0,-784.0,-1508.0
2843.0,2753.0,2831.0,3059.0,2990.0,0.844299,0.495422,-0.194824,-0.060974,3.0,-35.0,-70.0,-1017.0,9541.0,2107.0,-3217.0,2493.0,-1441.0,-2612.0,3374.0,656.0,0.268564,0.860328,0.433159,-340.0,19048.0,3552.0,87.0,-787.0,-1584.0
2862.0,2743.0,2823.0,3071.0,2989.0,0.839539,0.501709,-0.191833,-0.080811,6.0,-34.0,-72.0,-469.0,9363.0,1888.0,-2443.0,2208.0,-1575.0,-1721.0,3147.0,673.0,0.241016,0.873412,0.422843,778.0,17906.0,3170.0,152.0,-765.0,-1643.0
2859.0,2769.0,2832.0,3071.0,2992.0,0.833374,0.509644,-0.189697,-0.098694,23.0,-31.0,-66.0,134.0,9158.0,1697.0,-1632.0,1892.0,-1649.0,-850.0,2795.0,652.0,0.21558,0.886891,0.408531,2028.0,18174.0,2856.0,537.0,-709.0,-1506.0
2855.0,2751.0,2847.0,3059.0,2959.0,0.829346,0.514771,-0.189209,-0.106323,31.0,-30.0,-61.0,435.0,9246.0,1623.0,-1239.0,1921.0,-1640.0,-463.0,2653.0,811.0,0.204375,0.89408,0.39833,2758.0,19150.0,2942.0,730.0,-675.0,-1379.0
2867.0,2789.0,2847.0,3050.0,3007.0,0.820312,0.526489,-0.188843,-0.118896,41.0,-24.0,-52.0,1085.0,9782.0,1597.0,-427.0,2338.0,-1468.0,245.0,2345.0,1496.0,0.184625,0.908677,0.374196,4150.0,21638.0,3212.0,959.0,-533.0,-1185.0
2866.0,2783.0,2847.0,3099.0,3001.0,0.815552,0.532715,-0.188599,-0.124084,44.0,-19.0,-50.0,1436.0,10125.0,1634.0,-1.0,2623.0,-1324.0,585.0,2142.0,1923.0,0.175421,0.915717,0.361167,4970.0,22294.0,3512.0,1030.0,-420.0,-1140.0
2861.0,2791.0,2833.0,3067.0,2973.0,0.806763,0.54425,-0.187805,-0.132446,38.0,-12.0,-43.0,2169.0,10797.0,1760.0,867.0,3195.0,-1000.0,1252.0,1655.0,2765.0,0.158861,0.92791,0.336929,6650.0,23668.0,4210.0,881.0,-269.0,-982.0
2853.0,2773.0,2827.0,3071.0,2943.0,0.803101,0.549011,-0.187317,-0.135803,32.0,-9.0,-40.0,2524.0,11120.0,1876.0,1280.0,3479.0,-802.0,1547.0,1377.0,3176.0,0.151754,0.932699,0.326912,7118.0,24120.0,4426.0,743.0,-197.0,-910.0
2854.0,2743.0,2827.0,3071.0,2950.0,0.797852,0.555603,-0.186401,-0.141235,16.0,-5.0,-32.0,3170.0,11486.0,2066.0,2019.0,3791.0,-498.0,2093.0,841.0,3688.0,0.1405,0.93923,0.313074,8176.0,23562.0,4570.0,375.0,-112.0,-721.0
2863.0,2756.0,2847.0,3063.0,2975.0,0.794983,0.558899,-0.186462,-0.144287,6.0,-3.0,-19.0,3759.0,11367.0,2242.0,2651.0,3646.0,-262.0,2552.0,274.0,3714.0,0.135185,0.942438,0.30568,9314.0,22072.0,5098.0,160.0,-52.0,-415.0
2843.0,2768.0,2844.0,3059.0,3003.0,0.79425,0.559753,-0.187012,-0.144531,5.0,-1.0,-11.0,4014.0,11225.0,2355.0,2905.0,3498.0,-130.0,2710.0,-6.0,3652.0,0.135265,0.943227,0.303426,9502.0,21630.0,5390.0,121.0,-1.0,-240.0
2847.0,2757.0,2829.0,3071.0,2987.0,0.793945,0.559998,-0.189087,-0.14209,-1.0,4.0,6.0,4445.0,10888.0,2650.0,3289.0,3163.0,182.0,2880.0,-539.0,3501.0,0.141109,0.94295,0.301188,10022.0,20540.0,6334.0,-4.0,112.0,156.0
2864.0,2791.0,2859.0,3055.0,2983.0,0.794678,0.559204,-0.190613,-0.139404,-4.0,7.0,15.0,4572.0,10639.0,2775.0,3367.0,2922.0,301.0,2877.0,-734.0,3338.0,0.147041,0.941919,0.301904,9752.0,19726.0,6196.0,-88.0,166.0,366.0
2863.0,2747.0,2851.0,3058.0,2985.0,0.79718,0.55603,-0.194641,-0.131958,-11.0,7.0,30.0,4610.0,10064.0,2884.0,3269.0,2380.0,378.0,2720.0,-885.0,2882.0,0.163583,0.937882,0.305854,9150.0,18426.0,6022.0,-246.0,178.0,705.0
2869.0,2789.0,2847.0,3055.0,2993.0,0.79895,0.553589,-0.197144,-0.127563,-16.0,7.0,36.0,4591.0,9787.0,2896.0,3167.0,2128.0,362.0,2621.0,-884.0,2651.0,0.17378,0.934877,0.309268,9064.0,17954.0,5832.0,-360.0,162.0,836.0
2869.0,2783.0,2831.0,3055.0,2999.0,0.803955,0.546326,-0.202881,-0.117859,-30.0,7.0,46.0,4614.0,9187.0,2854.0,2996.0,1599.0,227.0,2511.0,-820.0,2145.0,0.197436,0.926265,0.320602,9366.0,16254.0,5484.0,-683.0,175.0,1068.0
2871.0,2777.0,2833.0,3071.0,2983.0,0.80719,0.541565,-0.205933,-0.112427,-36.0,9.0,50.0,4633.0,8802.0,2783.0,2907.0,1260.0,91.0,2492.0,-762.0,1802.0,0.210681,0.920596,0.328495,9362.0,15246.0,5072.0,-816.0,213.0,1164.0
2854.0,2761.0,2843.0,3057.0,2999.0,0.814331,0.530762,-0.212036,-0.100403,-41.0,13.0,57.0,4690.0,7834.0,2535.0,2734.0,403.0,-303.0,2544.0,-645.0,913.0,0.238755,0.90701,0.346548,9660.0,12606.0,4316.0,-932.0,309.0,1314.0
2863.0,2773.0,2823.0,3071.0,2959.0,0.818054,0.525085,-0.215088,-0.093628,-41.0,16.0,61.0,4739.0,7360.0,2409.0,2661.0,-7.0,-507.0,2596.0,-596.0,487.0,0.253582,0.899373,0.356001,9754.0,11922.0,4098.0,-927.0,369.0,1398.0
2870.0,2791.0,2843.0,3054.0,2979.0,0.825256,0.513672,-0.221069,-0.078674,-39.0,20.0,66.0,4798.0,6438.0,2092.0,2471.0,-792.0,-975.0,2710.0,-453.0,-362.0,0.284052,0.882607,0.374507,9724.0,10314.0,3144.0,-878.0,462.0,1518.0
2847.0,2758.0,2821.0,3071.0,2975.0,0.828491,0.508301,-0.223999,-0.07074,-36.0,21.0,67.0,4816.0,6083.0,1961.0,2364.0,-1076.0,-1175.0,2742.0,-372.0,-682.0,0.299248,0.873937,0.382857,9760.0,10120.0,3208.0,-817.0,503.0,1535.0
2863.0,2765.0,2847.0,3071.0,2983.0,0.834778,0.49762,-0.229004,-0.054443,-35.0,27.0,66.0,4821.0,5498.0,1749.0,2132.0,-1512.0,-1525.0,2768.0,-204.0,-1203.0,0.328151,0.855739,0.39975,9540.0,9382.0,3004.0,-801.0,621.0,1514.0
2863.0,2781.0,2855.0,3057.0,2979.0,0.837891,0.492371,-0.230896,-0.046326,-35.0,30.0,64.0,4774.0,5204.0,1677.0,1977.0,-1730.0,-1669.0,2738.0,-145.0,-1471.0,0.341312,0.846498,0.408465,9198.0,8596.0,2928.0,-790.0,696.0,1478.0
2867.0,2779.0,2854.0,3061.0,2971.0,0.843811,0.482483,-0.232788,-0.030151,-30.0,37.0,58.0,4521.0,4723.0,1681.0,1541.0,-2062.0,-1808.0,2492.0,-75.0,-1917.0,0.363763,0.828287,0.425946,8032.0,8212.0,3568.0,-687.0,850.0,1340.0
2862.0,2774.0,2859.0,3056.0,2983.0,0.849304,0.473877,-0.232056,-0.014954,-25.0,41.0,51.0,4070.0,4381.0,1945.0,957.0,-2269.0,-1685.0,1982.0,-138.0,-2225.0,0.379999,0.811872,0.443132,6672.0,7982.0,5042.0,-551.0,954.0,1170.0
2865.0,2771.0,2833.0,3059.0,2983.0,0.851807,0.470093,-0.230896,-0.007751,-21.0,42.0,48.0,3804.0,4278.0,2135.0,641.0,-2311.0,-1562.0,1669.0,-191.0,-2316.0,0.38607,0.804436,0.451334,5982.0,7980.0,5422.0,-469.0,976.0,1101.0
2863.0,2767.0,2859.0,3055.0,2991.0,0.856079,0.463867,-0.227783,0.005981,-12.0,40.0,43.0,3216.0,4176.0,2538.0,-24.0,-2307.0,-1278.0,980.0,-290.0,-2430.0,0.39555,0.791489,0.465849,4506.0,8330.0,6216.0,-266.0,917.0,1004.0
2867.0,2783.0,2845.0,3059.0,2975.0,0.857605,0.46167,-0.226135,0.012207,-7.0,36.0,41.0,2887.0,4219.0,2685.0,-382.0,-2222.0,-1176.0,610.0,-264.0,-2454.0,0.399141,0.78634,0.471359,3826.0,8790.0,6262.0,-142.0,833.0,941.0
2863.0,2773.0,2827.0,3071.0,2966.0,0.859436,0.459045,-0.223633,0.023254,1.0,25.0,36.0,2323.0,4468.0,3041.0,-1000.0,-1910.0,-878.0,-111.0,-235.0,-2313.0,0.405746,0.778639,0.478437,3006.0,9928.0,7406.0,25.0,578.0,837.0
2851.0,2775.0,2855.0,3071.0,2967.0,0.860107,0.457886,-0.2229,0.027893,-1.0,19.0,35.0,2023.0,4629.0,3241.0,-1327.0,-1721.0,-701.0,-508.0,-228.0,-2214.0,0.40898,0.775227,0.481219,2334.0,10184.0,7864.0,-3.0,445.0,812.0
2851.0,2751.0,2835.0,3057.0,2991.0,0.860901,0.456604,-0.221558,0.034912,0.0,9.0,26.0,1288.0,5059.0,3494.0,-2098.0,-1254.0,-477.0,-1390.0,-47.0,-2064.0,0.41336,0.770711,0.484794,306.0,11272.0,7594.0,18.0,219.0,596.0
2853.0,2773.0,2831.0,3063.0,2991.0,0.861145,0.456238,-0.220947,0.036865,0.0,5.0,18.0,940.0,5247.0,3537.0,-2452.0,-1056.0,-443.0,-1772.0,80.0,-2043.0,0.414174,0.769483,0.485959,-198.0,11644.0,7190.0,19.0,122.0,432.0
2863.0,2750.0,2839.0,3071.0,2991.0,0.861267,0.456543,-0.219788,0.037292,-1.0,-6.0,4.0,316.0,5651.0,3392.0,-3064.0,-656.0,-592.0,-2381.0,512.0,-2057.0,0.412643,0.770018,0.486434,-1170.0,12450.0,5992.0,-13.0,-118.0,99.0
2865.0,2765.0,2864.0,3063.0,2991.0,0.861023,0.457275,-0.21936,0.035828,1.0,-11.0,-3.0,35.0,5880.0,3218.0,-3327.0,-442.0,-758.0,-2620.0,815.0,-2074.0,0.410515,0.771731,0.485424,-1598.0,13230.0,5278.0,25.0,-242.0,-68.0
2869.0,2751.0,2841.0,3059.0,2982.0,0.859863,0.460327,-0.218628,0.03009,2.0,-17.0,-15.0,-309.0,6498.0,2944.0,-3615.0,120.0,-992.0,-2947.0,1407.0,-1842.0,0.403683,0.77848,0.480571,-1308.0,15274.0,5332.0,61.0,-388.0,-341.0
2867.0,2771.0,2849.0,3071.0,2963.0,0.859192,0.462036,-0.218018,0.026123,-1.0,-18.0,-21.0,-404.0,6918.0,2832.0,-3670.0,507.0,-1082.0,-3061.0,1735.0,-1583.0,0.398777,0.782565,0.477884,-1356.0,16384.0,4986.0,-4.0,-399.0,-470.0
2851.0,2769.0,2847.0,3047.0,2983.0,0.858643,0.464722,-0.215576,0.016052,-9.0,-15.0,-32.0,-484.0,7472.0,2612.0,-3638.0,990.0,-1279.0,-3069.0,2220.0,-1225.0,0.385125,0.791139,0.475085,-1062.0,16098.0,4600.0,-204.0,-341.0,-726.0
2865.0,2761.0,2832.0,3046.0,2991.0,0.858582,0.46582,-0.213684,0.010376,-10.0,-12.0,-38.0,-494.0,7607.0,2527.0,-3579.0,1090.0,-1361.0,-3001.0,2360.0,-1126.0,0.376597,0.795455,0.474621,-1010.0,15870.0,4630.0,-228.0,-271.0,-848.0
2869.0,2763.0,2838.0,3031.0,2967.0,0.858643,0.468567,-0.207764,-0.002014,-8.0,-5.0,-49.0,-528.0,7670.0,2390.0,-3435.0,1071.0,-1497.0,-2806.0,2484.0,-1066.0,0.354902,0.8055,0.47455,-1220.0,15484.0,4374.0,-164.0,-110.0,-1108.0
2864.0,2763.0,2819.0,3088.0,2973.0,0.858032,0.472595,-0.2005,-0.015381,-1.0,-6.0,-53.0,-551.0,7516.0,2274.0,-3250.0,821.0,-1600.0,-2547.0,2443.0,-1156.0,0.329534,0.817172,0.472909,-990.0,14204.0,4440.0,-2.0,-126.0,-1213.0
2863.0,2783.0,2867.0,3087.0,2959.0,0.857117,0.475281,-0.197266,-0.021729,7.0,-8.0,-51.0,-531.0,7358.0,2289.0,-3132.0,613.0,-1563.0,-2416.0,2299.0,-1224.0,0.317505,0.823315,0.470316,-960.0,13720.0,4690.0,183.0,-164.0,-1150.0
2863.0,2775.0,2864.0,3071.0,2993.0,0.853577,0.482971,-0.192383,-0.032776,27.0,-13.0,-43.0,-456.0,7237.0,2448.0,-2887.0,379.0,-1315.0,-2242.0,1967.0,-1143.0,0.296767,0.837117,0.459395,-660.0,14656.0,5512.0,619.0,-283.0,-965.0
2866.0,2789.0,2839.0,3071.0,2974.0,0.848083,0.492981,-0.189392,-0.042969,35.0,-19.0,-41.0,-397.0,7493.0,2628.0,-2681.0,509.0,-994.0,-2175.0,1770.0,-753.0,0.278875,0.852454,0.442192,-478.0,16422.0,5746.0,804.0,-435.0,-927.0
2855.0,2768.0,2827.0,3063.0,2991.0,0.845154,0.497864,-0.188354,-0.048462,30.0,-23.0,-42.0,-314.0,7745.0,2687.0,-2526.0,701.0,-862.0,-2092.0,1740.0,-453.0,0.270122,0.859799,0.433288,-88.0,16930.0,5620.0,709.0,-509.0,-955.0
2863.0,2751.0,2839.0,3071.0,2975.0,0.839722,0.506165,-0.186646,-0.061096,21.0,-27.0,-50.0,-43.0,8157.0,2722.0,-2104.0,1006.0,-700.0,-1765.0,1675.0,56.0,0.251611,0.872881,0.417826,960.0,17528.0,5580.0,484.0,-597.0,-1136.0
2850.0,2789.0,2835.0,3067.0,2991.0,0.837402,0.509521,-0.185486,-0.068237,14.0,-26.0,-56.0,161.0,8387.0,2758.0,-1814.0,1188.0,-616.0,-1526.0,1620.0,352.0,0.241116,0.878663,0.411882,1524.0,18136.0,5636.0,333.0,-575.0,-1267.0
2874.0,2763.0,2843.0,3067.0,2975.0,0.834106,0.513916,-0.181702,-0.084412,-2.0,-22.0,-67.0,629.0,8659.0,2681.0,-1143.0,1384.0,-642.0,-864.0,1538.0,721.0,0.216356,0.887997,0.405734,2730.0,17330.0,4894.0,-40.0,-497.0,-1534.0
2875.0,2743.0,2831.0,3067.0,2975.0,0.832581,0.515686,-0.179321,-0.093018,-1.0,-21.0,-72.0,864.0,8560.0,2551.0,-796.0,1252.0,-756.0,-470.0,1458.0,650.0,0.202663,0.89206,0.403754,3118.0,16394.0,4212.0,-12.0,-463.0,-1632.0
2859.0,2762.0,2815.0,3047.0,3007.0,0.828369,0.520813,-0.174805,-0.109253,12.0,-18.0,-69.0,1444.0,8469.0,2364.0,3.0,1087.0,-882.0,357.0,1197.0,630.0,0.175805,0.901047,0.396329,4868.0,17296.0,4420.0,289.0,-400.0,-1565.0
2853.0,2738.0,2864.0,3053.0,2971.0,1.564514,1.686768,0.483887,-0.125,1535.0,511.0,-2554.0,18977.0,-16119.0,12978.0,-30702.0,7172.0,18024.0,10441.0,-5631.0,19779.0,-1.935787,5.156972,-0.616002,6230.0,20018.0,4508.0,510.0,-237.0,-1218.0
2863.0,2768.0,2847.0,3071.0,2983.0,0.819946,0.531738,-0.170471,-0.125549,25.0,-6.0,-44.0,2462.0,9300.0,2298.0,1265.0,1805.0,-784.0,1519.0,887.0,1540.0,0.146036,0.914799,0.376269,7100.0,20334.0,4554.0,590.0,-120.0,-994.0
2861.0,2775.0,2847.0,3063.0,2973.0,0.814148,0.540222,-0.169434,-0.128723,35.0,4.0,-22.0,3161.0,9767.0,2334.0,2040.0,2203.0,-605.0,2164.0,548.0,2095.0,0.13681,0.923262,0.358859,8468.0,20884.0,4988.0,819.0,109.0,-487.0
2867.0,2739.0,2839.0,3067.0,2957.0,0.811279,0.544678,-0.169617,-0.127869,38.0,8.0,-10.0,3496.0,9991.0,2401.0,2382.0,2395.0,-458.0,2411.0,346.0,2384.0,0.135919,0.927149,0.349081,8938.0,21298.0,5194.0,893.0,198.0,-226.0
2867.0,2736.0,2832.0,3051.0,2999.0,0.806152,0.552673,-0.171936,-0.122498,36.0,8.0,11.0,4081.0,10368.0,2653.0,2919.0,2723.0,-49.0,2699.0,-112.0,2938.0,0.141811,0.933201,0.329877,9734.0,21838.0,6282.0,844.0,204.0,256.0
2859.0,2773.0,2832.0,3059.0,2963.0,0.80426,0.555542,-0.174194,-0.118713,30.0,5.0,19.0,4290.0,10521.0,2778.0,3075.0,2861.0,140.0,2736.0,-287.0,3175.0,0.148295,0.934959,0.321957,9786.0,21894.0,6280.0,704.0,129.0,455.0
2855.0,2763.0,2813.0,3071.0,2993.0,0.802612,0.557495,-0.180908,-0.110413,8.0,-2.0,33.0,4644.0,10666.0,3033.0,3273.0,3007.0,470.0,2710.0,-577.0,3505.0,0.167289,0.934854,0.312849,10238.0,21448.0,6718.0,202.0,-44.0,765.0
2854.0,2769.0,2867.0,3071.0,2990.0,0.803162,0.556213,-0.184998,-0.106201,-6.0,-5.0,38.0,4756.0,10539.0,3121.0,3289.0,2897.0,558.0,2655.0,-675.0,3465.0,0.179025,0.932752,0.31275,10094.0,20032.0,6694.0,-123.0,-95.0,874.0
2857.0,2758.0,2825.0,3088.0,2983.0,0.806824,0.549683,-0.192993,-0.097717,-28.0,-3.0,43.0,4794.0,9852.0,3153.0,3122.0,2276.0,522.0,2486.0,-741.0,2909.0,0.203996,0.924711,0.321116,9478.0,17232.0,6246.0,-620.0,-46.0,988.0
2859.0,2768.0,2831.0,3051.0,2965.0,0.809631,0.545105,-0.196472,-0.093445,-35.0,1.0,43.0,4763.0,9356.0,3134.0,2991.0,1824.0,442.0,2407.0,-759.0,2469.0,0.216266,0.919387,0.328494,9390.0,15632.0,6234.0,-785.0,35.0,1001.0
2859.0,2779.0,2863.0,3070.0,2983.0,0.816406,0.534424,-0.201904,-0.084106,-42.0,11.0,43.0,4736.0,8229.0,3131.0,2771.0,802.0,286.0,2322.0,-885.0,1490.0,0.239775,0.906577,0.347219,9376.0,12906.0,6140.0,-951.0,259.0,1002.0
2863.0,2753.0,2859.0,3059.0,2983.0,0.820068,0.528687,-0.203918,-0.079102,-43.0,15.0,44.0,4720.0,7642.0,3097.0,2665.0,274.0,166.0,2316.0,-941.0,974.0,0.250814,0.899379,0.357677,9316.0,11778.0,5952.0,-979.0,345.0,1008.0
2851.0,2771.0,2847.0,3067.0,2963.0,0.827698,0.516846,-0.207336,-0.06897,-46.0,16.0,42.0,4624.0,6569.0,2973.0,2396.0,-674.0,-137.0,2291.0,-981.0,3.0,0.27193,0.884184,0.379723,8800.0,10094.0,5504.0,-1052.0,386.0,979.0
2864.0,2774.0,2850.0,3071.0,2990.0,0.831482,0.510681,-0.208923,-0.064209,-48.0,15.0,41.0,4541.0,6120.0,2885.0,2232.0,-1056.0,-318.0,2262.0,-949.0,-420.0,0.281851,0.876074,0.391041,8546.0,9656.0,5252.0,-1084.0,345.0,945.0
2859.0,2768.0,2832.0,3070.0,2975.0,0.838867,0.498108,-0.212219,-0.055908,-50.0,11.0,37.0,4319.0,5390.0,2817.0,1858.0,-1650.0,-571.0,2108.0,-924.0,-1096.0,0.300351,0.859422,0.413675,8016.0,8822.0,5764.0,-1132.0,269.0,864.0
2863.0,2775.0,2855.0,3071.0,2983.0,0.84613,0.485291,-0.214722,-0.048401,-48.0,14.0,34.0,4104.0,4767.0,2878.0,1512.0,-2130.0,-699.0,1921.0,-995.0,-1620.0,0.316388,0.842024,0.436667,7568.0,7878.0,6006.0,-1087.0,328.0,799.0
2867.0,2765.0,2838.0,3059.0,2979.0,0.849548,0.479309,-0.215576,-0.044434,-44.0,17.0,35.0,4003.0,4525.0,2930.0,1351.0,-2303.0,-735.0,1822.0,-1032.0,-1811.0,0.32369,0.83355,0.447496,7394.0,7688.0,6204.0,-988.0,402.0,819.0
2865.0,2759.0,2838.0,3056.0,2975.0,0.855591,0.469055,-0.216248,-0.034546,-31.0,25.0,42.0,3683.0,4385.0,3158.0,917.0,-2312.0,-663.0,1428.0,-1007.0,-1889.0,0.337631,0.81758,0.466453,6230.0,8576.0,7024.0,-702.0,573.0,968.0
2863.0,2775.0,2861.0,3071.0,2978.0,0.858032,0.464966,-0.216187,-0.028687,-23.0,27.0,45.0,3488.0,4394.0,3224.0,667.0,-2244.0,-659.0,1206.0,-919.0,-1901.0,0.344314,0.810315,0.474112,5828.0,8958.0,6754.0,-509.0,634.0,1040.0
2864.0,2783.0,2855.0,3067.0,2989.0,0.861145,0.459717,-0.216187,-0.015381,-6.0,27.0,51.0,3143.0,4664.0,3258.0,208.0,-1876.0,-704.0,783.0,-576.0,-1763.0,0.358194,0.798416,0.483731,5228.0,10476.0,6404.0,-117.0,633.0,1180.0
2855.0,2755.0,2822.0,3053.0,2987.0,0.861938,0.458313,-0.216553,-0.008362,0.0,24.0,53.0,2988.0,4854.0,3261.0,-7.0,-1647.0,-720.0,571.0,-387.0,-1659.0,0.365646,0.793697,0.486062,5082.0,10808.0,6622.0,19.0,563.0,1229.0
2865.0,2768.0,2837.0,3055.0,2991.0,0.862366,0.456604,-0.218445,0.005737,7.0,16.0,55.0,2683.0,5215.0,3317.0,-446.0,-1215.0,-676.0,102.0,-89.0,-1453.0,0.381998,0.785013,0.487502,4318.0,11530.0,6794.0,178.0,376.0,1271.0
2864.0,2765.0,2835.0,3071.0,2975.0,0.862183,0.456116,-0.219971,0.012268,8.0,11.0,55.0,2487.0,5398.0,3348.0,-711.0,-1000.0,-642.0,-183.0,52.0,-1371.0,0.390501,0.781113,0.487081,3748.0,11950.0,6912.0,185.0,253.0,1267.0
2864.0,2775.0,2833.0,3071.0,2979.0,0.861389,0.455139,-0.22406,0.023621,4.0,-1.0,49.0,2147.0,5799.0,3438.0,-1191.0,-537.0,-536.0,-743.0,306.0,-1160.0,0.407507,0.773519,0.485195,3424.0,12470.0,7210.0,111.0,-2.0,1135.0
2871.0,2768.0,2835.0,3063.0,2977.0,0.861267,0.454102,-0.226318,0.027893,-3.0,-4.0,44.0,1969.0,5907.0,3422.0,-1432.0,-397.0,-552.0,-981.0,431.0,-1167.0,0.415174,0.76958,0.485131,3118.0,12056.0,6732.0,-60.0,-88.0,1021.0
2875.0,2763.0,2833.0,3056.0,2983.0,0.861755,0.450378,-0.230896,0.034119,-12.0,-7.0,34.0,1878.0,5671.0,3473.0,-1633.0,-558.0,-521.0,-1114.0,325.0,-1378.0,0.428684,0.760476,0.487633,3366.0,10064.0,6912.0,-273.0,-138.0,786.0
2854.0,2774.0,2849.0,3063.0,2987.0,0.862305,0.448242,-0.232727,0.036438,-12.0,-5.0,28.0,1773.0,5415.0,3430.0,-1782.0,-778.0,-582.0,-1158.0,256.0,-1646.0,0.434029,0.756082,0.489814,2864.0,9258.0,6580.0,-271.0,-111.0,654.0
2864.0,2765.0,2849.0,3071.0,2975.0,0.86261,0.446655,-0.234131,0.039185,2.0,-2.0,11.0,1469.0,4847.0,3253.0,-2126.0,-1315.0,-771.0,-1237.0,122.0,-2301.0,0.438931,0.75223,0.491313,1988.0,8138.0,6002.0,61.0,-35.0,254.0
2866.0,2767.0,2839.0,3071.0,2975.0,0.862183,0.447632,-0.233765,0.039673,12.0,0.0,2.0,1296.0,4725.0,3154.0,-2297.0,-1446.0,-859.0,-1321.0,140.0,-2517.0,0.438613,0.753333,0.489913,1514.0,8978.0,5648.0,278.0,14.0,60.0
2864.0,2768.0,2839.0,3056.0,2982.0,0.860291,0.452759,-0.230957,0.03833,21.0,0.0,-14.0,871.0,5012.0,2944.0,-2668.0,-1224.0,-1014.0,-1670.0,471.0,-2574.0,0.432089,0.761303,0.483237,442.0,11616.0,5278.0,503.0,16.0,-305.0
2861.0,2775.0,2847.0,3071.0,2975.0,0.859131,0.456177,-0.228943,0.036316,21.0,-2.0,-21.0,673.0,5338.0,2854.0,-2821.0,-946.0,-1069.0,-1875.0,719.0,-2440.0,0.426517,0.767202,0.478913,196.0,12716.0,5272.0,495.0,-27.0,-462.0
2863.0,2763.0,2831.0,3063.0,2982.0,0.856873,0.462952,-0.224792,0.029785,16.0,-9.0,-29.0,337.0,5968.0,2733.0,-3044.0,-421.0,-1119.0,-2221.0,1141.0,-2111.0,0.412815,0.77999,0.470262,-166.0,13884.0,5332.0,370.0,-188.0,-656.0
2863.0,2768.0,2839.0,3063.0,2975.0,0.855652,0.466309,-0.222839,0.025513,16.0,-11.0,-33.0,192.0,6177.0,2665.0,-3126.0,-267.0,-1149.0,-2333.0,1292.0,-2011.0,0.405139,0.786625,0.46569,-412.0,13666.0,5020.0,369.0,-241.0,-751.0
2859.0,2771.0,2843.0,3071.0,2975.0,0.852966,0.473511,-0.218933,0.015625,19.0,-14.0,-40.0,-9.0,6493.0,2607.0,-3189.0,-68.0,-1125.0,-2462.0,1455.0,-1805.0,0.388282,0.800936,0.455652,-690.0,13932.0,4926.0,446.0,-311.0,-914.0
2859.0,2762.0,2835.0,3067.0,2978.0,0.849426,0.482056,-0.214539,0.004089,23.0,-17.0,-48.0,-173.0,6840.0,2612.0,-3191.0,145.0,-1018.0,-2560.0,1550.0,-1508.0,0.368412,0.817187,0.443137,-684.0,14690.0,5388.0,532.0,-372.0,-1081.0
2863.0,2779.0,2843.0,3067.0,2979.0,0.847473,0.486511,-0.212219,-0.002258,23.0,-18.0,-50.0,-245.0,7043.0,2641.0,-3173.0,279.0,-934.0,-2605.0,1583.0,-1311.0,0.357503,0.825569,0.436486,-916.0,15288.0,5448.0,533.0,-396.0,-1141.0
2863.0,2775.0,2839.0,3071.0,2989.0,0.843384,0.495178,-0.207764,-0.015686,21.0,-21.0,-52.0,-302.0,7388.0,2663.0,-3045.0,492.0,-803.0,-2574.0,1623.0,-945.0,0.334914,0.841769,0.423175,-554.0,15746.0,5418.0,503.0,-467.0,-1176.0
2859.0,2758.0,2833.0,3059.0,2975.0,0.841187,0.499451,-0.205872,-0.022522,22.0,-22.0,-52.0,-307.0,7539.0,2671.0,-2960.0,579.0,-739.0,-2530.0,1624.0,-774.0,0.323856,0.849536,0.416268,-732.0,16004.0,5306.0,521.0,-501.0,-1170.0
2863.0,2783.0,2850.0,3071.0,2981.0,0.836243,0.508179,-0.202698,-0.036926,23.0,-29.0,-55.0,-326.0,7922.0,2635.0,-2795.0,836.0,-652.0,-2432.0,1694.0,-381.0,0.301479,0.864891,0.401333,-536.0,17108.0,5222.0,529.0,-659.0,-1245.0
2862.0,2773.0,2846.0,3069.0,2975.0,0.830688,0.516479,-0.200623,-0.053528,19.0,-37.0,-61.0,-180.0,8406.0,2574.0,-2457.0,1200.0,-587.0,-2158.0,1771.0,145.0,0.278018,0.879545,0.385908,402.0,18328.0,4916.0,439.0,-844.0,-1386.0
2855.0,2768.0,2839.0,3071.0,2987.0,0.827881,0.520203,-0.200012,-0.062378,15.0,-39.0,-61.0,13.0,8656.0,2511.0,-2168.0,1395.0,-590.0,-1889.0,1797.0,435.0,0.266274,0.886284,0.378662,1340.0,18774.0,4578.0,365.0,-893.0,-1392.0
2861.0,2767.0,2845.0,3069.0,2983.0,0.822266,0.526917,-0.199585,-0.079224,15.0,-37.0,-58.0,578.0,9042.0,2310.0,-1426.0,1684.0,-679.0,-1149.0,1780.0,915.0,0.244735,0.898154,0.364922,3056.0,19066.0,3880.0,355.0,-833.0,-1315.0
2863.0,2753.0,2838.0,3071.0,2973.0,0.819275,0.530579,-0.199402,-0.08667,19.0,-32.0,-55.0,912.0,9209.0,2169.0,-1011.0,1803.0,-759.0,-723.0,1751.0,1121.0,0.234759,0.903944,0.357448,3874.0,19446.0,3444.0,443.0,-728.0,-1259.0
2857.0,2771.0,2843.0,3063.0,2979.0,0.812683,0.538757,-0.198792,-0.098755,27.0,-22.0,-47.0,1643.0,9529.0,1926.0,-132.0,2033.0,-862.0,142.0,1583.0,1538.0,0.216699,0.914941,0.340429,5500.0,19766.0,3238.0,620.0,-484.0,-1075.0
2864.0,2763.0,2843.0,3071.0,2982.0,0.80542,0.548157,-0.198303,-0.106873,35.0,-14.0,-38.0,2274.0,9922.0,1754.0,617.0,2341.0,-870.0,828.0,1371.0,2012.0,0.202269,0.925379,0.320323,6408.0,21438.0,3134.0,812.0,-307.0,-858.0
2864.0,2767.0,2849.0,3071.0,2987.0,0.801758,0.552917,-0.198242,-0.109863,35.0,-12.0,-34.0,2607.0,10213.0,1750.0,998.0,2593.0,-788.0,1129.0,1214.0,2363.0,0.196394,0.930171,0.309868,7294.0,22212.0,3624.0,807.0,-267.0,-762.0
2864.0,2777.0,2847.0,3059.0,2987.0,0.795837,0.560364,-0.198853,-0.113953,23.0,-9.0,-23.0,3337.0,10775.0,1908.0,1790.0,3097.0,-490.0,1690.0,762.0,3097.0,0.188799,0.937236,0.292792,8760.0,22890.0,4372.0,539.0,-194.0,-519.0
2859.0,2775.0,2839.0,3070.0,2989.0,0.793823,0.562744,-0.199524,-0.115173,17.0,-7.0,-18.0,3675.0,10931.0,1985.0,2141.0,3235.0,-365.0,1941.0,537.0,3334.0,0.187147,0.939398,0.286929,9326.0,22698.0,4430.0,391.0,-158.0,-399.0
2863.0,2775.0,2847.0,3067.0,2967.0,0.791382,0.565369,-0.201416,-0.115906,5.0,-4.0,-7.0,4294.0,11010.0,2140.0,2756.0,3296.0,-149.0,2379.0,93.0,3579.0,0.187735,0.941536,0.279509,10452.0,21824.0,4808.0,136.0,-81.0,-148.0
2863.0,2770.0,2858.0,3071.0,2987.0,0.791077,0.565491,-0.202759,-0.115234,1.0,-2.0,0.0,4574.0,10934.0,2231.0,3013.0,3221.0,-47.0,2554.0,-125.0,3593.0,0.190468,0.941423,0.27819,10802.0,21368.0,4992.0,24.0,-33.0,9.0
2861.0,2783.0,2843.0,3069.0,2981.0,0.791748,0.563904,-0.206543,-0.111389,-7.0,1.0,17.0,5060.0,10504.0,2387.0,3409.0,2812.0,104.0,2827.0,-529.0,3356.0,0.201434,0.938953,0.278625,11530.0,19260.0,5380.0,-150.0,39.0,390.0
2863.0,2770.0,2838.0,3066.0,2973.0,0.792786,0.562195,-0.209167,-0.108093,-9.0,2.0,25.0,5238.0,10210.0,2479.0,3516.0,2537.0,182.0,2881.0,-709.0,3165.0,0.210111,0.936619,0.280379,11410.0,18614.0,5446.0,-202.0,60.0,590.0
2865.0,2773.0,2843.0,3067.0,2971.0,0.795654,0.557129,-0.215637,-0.099548,-17.0,3.0,40.0,5415.0,9597.0,2624.0,3512.0,1982.0,280.0,2825.0,-924.0,2737.0,0.232223,0.929497,0.286084,11110.0,17448.0,5740.0,-368.0,69.0,930.0
2864.0,2775.0,2831.0,3063.0,2975.0,0.797852,0.553528,-0.219177,-0.094543,-23.0,4.0,46.0,5411.0,9265.0,2700.0,3403.0,1689.0,315.0,2716.0,-980.0,2487.0,0.245077,0.92471,0.291074,10734.0,16448.0,5780.0,-514.0,107.0,1056.0
2862.0,2785.0,2851.0,3071.0,2975.0,0.803589,0.544373,-0.225586,-0.083496,-33.0,11.0,52.0,5235.0,8411.0,2733.0,3009.0,935.0,230.0,2452.0,-967.0,1740.0,0.271651,0.912575,0.305496,9760.0,14092.0,5462.0,-751.0,270.0,1194.0
2863.0,2771.0,2832.0,3055.0,2975.0,0.807007,0.539062,-0.22821,-0.077515,-37.0,15.0,53.0,5113.0,7917.0,2742.0,2780.0,499.0,164.0,2322.0,-965.0,1295.0,0.284764,0.905434,0.3146,9494.0,12762.0,5500.0,-836.0,363.0,1226.0
2863.0,2766.0,2850.0,3071.0,2987.0,0.814453,0.527649,-0.232483,-0.06488,-41.0,21.0,55.0,4862.0,6903.0,2744.0,2320.0,-385.0,0.0,2103.0,-981.0,377.0,0.310225,0.889658,0.335082,8954.0,10808.0,5592.0,-920.0,499.0,1275.0
2861.0,2774.0,2851.0,3071.0,2991.0,0.818298,0.521606,-0.234253,-0.058289,-42.0,23.0,56.0,4728.0,6451.0,2761.0,2085.0,-765.0,-73.0,1988.0,-991.0,-26.0,0.32257,0.880968,0.346062,8636.0,10272.0,5610.0,-941.0,532.0,1292.0
2862.0,2768.0,2839.0,3071.0,2991.0,0.825989,0.509155,-0.237427,-0.04541,-43.0,23.0,54.0,4449.0,5646.0,2802.0,1614.0,-1421.0,-218.0,1757.0,-1010.0,-747.0,0.345982,0.862676,0.368709,8002.0,9108.0,5758.0,-971.0,533.0,1250.0
2859.0,2771.0,2847.0,3071.0,2992.0,0.829712,0.50293,-0.238831,-0.039429,-43.0,22.0,51.0,4316.0,5284.0,2816.0,1394.0,-1707.0,-296.0,1658.0,-1022.0,-1072.0,0.356661,0.853407,0.379998,7852.0,8362.0,5676.0,-971.0,514.0,1183.0
2859.0,2775.0,2855.0,3067.0,2975.0,0.836731,0.490845,-0.24115,-0.028076,-39.0,22.0,47.0,4135.0,4512.0,2882.0,1054.0,-2327.0,-409.0,1547.0,-1170.0,-1710.0,0.375993,0.834951,0.401825,7792.0,6758.0,6152.0,-875.0,514.0,1086.0
2863.0,2779.0,2843.0,3071.0,2979.0,0.842834,0.480042,-0.242676,-0.016479,-29.0,25.0,46.0,3936.0,3811.0,2999.0,714.0,-2883.0,-452.0,1413.0,-1376.0,-2265.0,0.393249,0.817189,0.42131,7260.0,5732.0,6376.0,-654.0,591.0,1069.0
2864.0,2782.0,2847.0,3067.0,2992.0,0.845398,0.475525,-0.243042,-0.010254,-22.0,27.0,46.0,3821.0,3562.0,3053.0,534.0,-3065.0,-466.0,1322.0,-1438.0,-2465.0,0.401182,0.809,0.42961,6938.0,5758.0,6386.0,-498.0,641.0,1062.0
2864.0,2765.0,2838.0,3070.0,2975.0,0.849182,0.468933,-0.242676,0.002136,-9.0,29.0,40.0,3514.0,3503.0,3107.0,121.0,-3012.0,-516.0,1014.0,-1302.0,-2573.0,0.414155,0.795382,0.442325,5954.0,7640.0,6270.0,-197.0,680.0,939.0
2864.0,2761.0,2835.0,3071.0,2987.0,0.850525,0.466858,-0.241882,0.007629,-6.0,28.0,35.0,3318.0,3741.0,3122.0,-110.0,-2734.0,-539.0,773.0,-1088.0,-2448.0,0.418578,0.790458,0.446987,5448.0,9148.0,6360.0,-125.0,652.0,814.0
2864.0,2768.0,2831.0,3059.0,2979.0,0.853088,0.463196,-0.239624,0.016174,-11.0,24.0,25.0,3006.0,4373.0,3246.0,-465.0,-2037.0,-489.0,289.0,-681.0,-2014.0,0.423825,0.782542,0.456051,5250.0,10348.0,6914.0,-238.0,568.0,590.0
2862.0,2774.0,2833.0,3067.0,2992.0,0.854614,0.460815,-0.238403,0.019653,-15.0,23.0,23.0,2873.0,4524.0,3339.0,-613.0,-1851.0,-442.0,98.0,-596.0,-1905.0,0.425599,0.778268,0.461565,4892.0,9690.0,7262.0,-334.0,542.0,548.0
2865.0,2773.0,2853.0,3057.0,2997.0,0.858093,0.455444,-0.235596,0.026001,-16.0,23.0,21.0,2531.0,4395.0,3551.0,-975.0,-1907.0,-332.0,-244.0,-683.0,-2041.0,0.42801,0.769376,0.474065,3826.0,7864.0,7638.0,-344.0,547.0,486.0
2858.0,2757.0,2853.0,3071.0,2986.0,0.85968,0.453247,-0.233826,0.02887,-11.0,23.0,17.0,2247.0,4214.0,3567.0,-1260.0,-2059.0,-363.0,-445.0,-717.0,-2290.0,0.428201,0.765794,0.479776,2682.0,7274.0,7098.0,-231.0,529.0,398.0
2861.0,2770.0,2847.0,3071.0,2967.0,0.861145,0.452271,-0.229675,0.032654,8.0,16.0,4.0,1536.0,4056.0,3472.0,-1946.0,-2202.0,-503.0,-971.0,-602.0,-2753.0,0.425104,0.763941,0.485338,732.0,8616.0,6560.0,204.0,374.0,94.0
2866.0,2783.0,2829.0,3067.0,2991.0,0.860962,0.453735,-0.227356,0.032959,14.0,10.0,-5.0,1129.0,4302.0,3393.0,-2323.0,-1975.0,-578.0,-1349.0,-349.0,-2772.0,0.421399,0.766311,0.484775,-136.0,10366.0,6358.0,329.0,232.0,-93.0
2864.0,2769.0,2847.0,3071.0,2995.0,0.859802,0.458374,-0.223022,0.028931,8.0,-7.0,-23.0,438.0,5376.0,3252.0,-2920.0,-975.0,-682.0,-2133.0,434.0,-2280.0,0.410033,0.775318,0.480251,-886.0,14394.0,5950.0,201.0,-141.0,-525.0
2849.0,2767.0,2835.0,3069.0,2973.0,0.859436,0.460144,-0.221313,0.024353,-2.0,-14.0,-31.0,241.0,5912.0,3174.0,-3058.0,-478.0,-745.0,-2370.0,817.0,-1961.0,0.402821,0.780149,0.478511,-522.0,14788.0,5926.0,-34.0,-313.0,-709.0
2867.0,2769.0,2829.0,3062.0,2981.0,0.859619,0.461487,-0.218628,0.01239,-13.0,-18.0,-41.0,142.0,6267.0,2958.0,-3030.0,-188.0,-960.0,-2347.0,1205.0,-1780.0,0.387309,0.787988,0.47833,120.0,12778.0,5074.0,-284.0,-406.0,-919.0
2855.0,2767.0,2832.0,3051.0,2975.0,0.859131,0.464478,-0.214844,0.0,3.0,-12.0,-47.0,25.0,6155.0,2588.0,-2999.0,-382.0,-1313.0,-2161.0,1429.0,-2037.0,0.369158,0.798094,0.476209,-448.0,12170.0,4102.0,87.0,-264.0,-1062.0
2879.0,2763.0,2864.0,3058.0,2975.0,0.857971,0.467773,-0.212097,-0.005798,14.0,-8.0,-48.0,-61.0,6261.0,2476.0,-2998.0,-334.0,-1393.0,-2150.0,1551.0,-2001.0,0.358522,0.805132,0.472351,-606.0,13440.0,4480.0,340.0,-173.0,-1091.0
2849.0,2783.0,2850.0,3071.0,2998.0,0.854492,0.476746,-0.205383,-0.016663,25.0,-4.0,-48.0,-312.0,6838.0,2340.0,-3057.0,107.0,-1436.0,-2288.0,1904.0,-1598.0,0.335109,0.821595,0.460966,-1480.0,15608.0,4380.0,574.0,-70.0,-1078.0
2871.0,2765.0,2834.0,3071.0,2975.0,0.852417,0.481628,-0.202026,-0.021973,26.0,-5.0,-47.0,-442.0,7174.0,2324.0,-3090.0,374.0,-1397.0,-2382.0,2051.0,-1323.0,0.323256,0.829975,0.454317,-1720.0,16430.0,4598.0,607.0,-103.0,-1056.0
2863.0,2754.0,2838.0,3070.0,2975.0,0.847961,0.491272,-0.196045,-0.033325,23.0,-13.0,-48.0,-662.0,7845.0,2352.0,-3117.0,912.0,-1255.0,-2536.0,2275.0,-715.0,0.299734,0.846226,0.440367,-1792.0,17430.0,4950.0,530.0,-277.0,-1082.0
2863.0,2767.0,2831.0,3067.0,2979.0,0.843811,0.499146,-0.191406,-0.046509,14.0,-20.0,-52.0,-684.0,8281.0,2467.0,-2949.0,1234.0,-1042.0,-2474.0,2267.0,-200.0,0.276592,0.860173,0.428398,-1246.0,17462.0,5238.0,342.0,-447.0,-1171.0
2859.0,2783.0,2833.0,3055.0,2979.0,0.841858,0.50238,-0.189453,-0.053833,11.0,-23.0,-54.0,-657.0,8330.0,2444.0,-2827.0,1233.0,-1024.0,-2348.0,2242.0,-114.0,0.264896,0.866263,0.423344,-1072.0,16768.0,4730.0,270.0,-516.0,-1224.0
2853.0,2767.0,2847.0,3071.0,2983.0,0.837463,0.509155,-0.186157,-0.068726,17.0,-25.0,-56.0,-404.0,8269.0,2403.0,-2384.0,1073.0,-973.0,-1904.0,2037.0,-35.0,0.241816,0.878385,0.412175,242.0,16324.0,4728.0,402.0,-555.0,-1263.0
2852.0,2781.0,2846.0,3062.0,2975.0,0.834778,0.513062,-0.184814,-0.075623,22.0,-23.0,-54.0,-223.0,8270.0,2357.0,-2115.0,1023.0,-962.0,-1639.0,1937.0,26.0,0.23096,0.884537,0.405184,684.0,16620.0,4404.0,512.0,-526.0,-1215.0
2871.0,2753.0,2846.0,3063.0,2955.0,0.828613,0.521851,-0.182617,-0.087708,30.0,-20.0,-47.0,207.0,8417.0,2289.0,-1522.0,1069.0,-894.0,-1092.0,1726.0,290.0,0.211098,0.896858,0.388616,1770.0,17518.0,4422.0,701.0,-447.0,-1065.0
2863.0,2771.0,2837.0,3071.0,2967.0,0.821716,0.531433,-0.180969,-0.097595,35.0,-17.0,-42.0,625.0,8667.0,2252.0,-961.0,1222.0,-775.0,-607.0,1496.0,637.0,0.19368,0.908698,0.369572,2448.0,18116.0,4442.0,810.0,-375.0,-956.0
2860.0,2769.0,2851.0,3087.0,2991.0,0.818115,0.536316,-0.180237,-0.102112,36.0,-17.0,-42.0,808.0,8801.0,2239.0,-710.0,1310.0,-707.0,-397.0,1379.0,811.0,0.185381,0.914345,0.359619,2720.0,18438.0,4344.0,838.0,-368.0,-941.0
2864.0,2767.0,2857.0,3067.0,2963.0,0.810791,0.546021,-0.179382,-0.110901,35.0,-19.0,-40.0,1224.0,9182.0,2253.0,-166.0,1602.0,-527.0,40.0,1115.0,1275.0,0.169775,0.925204,0.339365,3818.0,19806.0,4734.0,820.0,-414.0,-913.0
2859.0,2775.0,2839.0,3087.0,2975.0,0.807312,0.550293,-0.17926,-0.115112,32.0,-19.0,-39.0,1472.0,9406.0,2284.0,138.0,1789.0,-419.0,279.0,960.0,1547.0,0.162747,0.929786,0.330047,4464.0,20156.0,4710.0,735.0,-425.0,-877.0
2869.0,2781.0,2811.0,3047.0,2982.0,0.801208,0.557373,-0.179688,-0.122681,25.0,-17.0,-33.0,2053.0,9792.0,2321.0,814.0,2114.0,-251.0,835.0,626.0,2025.0,0.151177,0.937232,0.314033,6010.0,20572.0,4750.0,575.0,-379.0,-744.0
2855.0,2763.0,2837.0,3071.0,2990.0,0.798584,0.560303,-0.180115,-0.125549,23.0,-14.0,-28.0,2390.0,9924.0,2329.0,1185.0,2222.0,-186.0,1147.0,437.0,2206.0,0.146982,0.940124,0.307119,6824.0,20578.0,4650.0,538.0,-314.0,-639.0
2867.0,2778.0,2850.0,3071.0,2963.0,0.793823,0.56604,-0.18158,-0.128357,26.0,-6.0,-15.0,3058.0,10048.0,2309.0,1886.0,2304.0,-93.0,1735.0,58.0,2420.0,0.142974,0.945285,0.293258,8058.0,20346.0,4594.0,597.0,-136.0,-340.0
2847.0,2775.0,2839.0,3059.0,2982.0,0.791504,0.568848,-0.182739,-0.128113,28.0,-3.0,-7.0,3343.0,10133.0,2316.0,2167.0,2372.0,-26.0,1950.0,-109.0,2550.0,0.143524,0.947313,0.28591,8292.0,20854.0,4768.0,642.0,-60.0,-151.0
2855.0,2773.0,2843.0,3056.0,2987.0,0.787964,0.573547,-0.185974,-0.124634,22.0,2.0,9.0,3780.0,10359.0,2504.0,2550.0,2574.0,268.0,2133.0,-474.0,2901.0,0.150115,0.950227,0.272878,8676.0,21310.0,5744.0,517.0,51.0,219.0
2879.0,2786.0,2819.0,3063.0,3005.0,0.787048,0.574768,-0.187927,-0.121826,16.0,3.0,15.0,3938.0,10373.0,2637.0,2661.0,2586.0,436.0,2141.0,-659.0,2989.0,0.155772,0.950529,0.268612,8772.0,20600.0,6070.0,370.0,88.0,365.0
2861.0,2755.0,2851.0,3071.0,2974.0,0.787048,0.574707,-0.192566,-0.114685,5.0,4.0,28.0,4207.0,9956.0,2915.0,2803.0,2183.0,742.0,2109.0,-1081.0,2748.0,0.171297,0.948813,0.265228,9104.0,18062.0,6688.0,128.0,106.0,655.0
2861.0,2787.0,2843.0,3071.0,2965.0,0.787659,0.573669,-0.195557,-0.110291,2.0,3.0,35.0,4269.0,9666.0,2998.0,2781.0,1909.0,825.0,2045.0,-1211.0,2531.0,0.181523,0.946847,0.265231,8798.0,17598.0,6368.0,54.0,72.0,811.0
2855.0,2783.0,2841.0,3067.0,2965.0,0.789673,0.569946,-0.203308,-0.100891,-7.0,-3.0,46.0,4330.0,9226.0,3115.0,2641.0,1515.0,922.0,1856.0,-1325.0,2216.0,0.206089,0.941166,0.267589,8892.0,17224.0,6584.0,-157.0,-64.0,1074.0
2865.0,2750.0,2861.0,3055.0,2974.0,0.79126,0.567017,-0.207825,-0.095825,-13.0,-4.0,52.0,4378.0,8967.0,3158.0,2573.0,1289.0,941.0,1783.0,-1367.0,2029.0,0.220218,0.937145,0.270576,9048.0,16306.0,6546.0,-292.0,-79.0,1194.0
2854.0,2768.0,2835.0,3043.0,2989.0,0.79541,0.559448,-0.217285,-0.084473,-20.0,-1.0,59.0,4413.0,8389.0,3101.0,2355.0,797.0,810.0,1655.0,-1293.0,1556.0,0.251145,0.926691,0.279618,8768.0,14934.0,5782.0,-457.0,-8.0,1372.0
2870.0,2795.0,2845.0,3071.0,3007.0,0.797729,0.555176,-0.221802,-0.078308,-23.0,2.0,62.0,4411.0,8087.0,3039.0,2224.0,546.0,703.0,1601.0,-1221.0,1296.0,0.266926,0.920498,0.285088,8816.0,14360.0,5700.0,-516.0,61.0,1425.0
2858.0,2751.0,2846.0,3071.0,2983.0,0.80304,0.545898,-0.229858,-0.065063,-28.0,10.0,64.0,4357.0,7453.0,2875.0,1914.0,25.0,431.0,1502.0,-1035.0,721.0,0.298135,0.906667,0.298266,8462.0,12962.0,5130.0,-625.0,242.0,1472.0
2843.0,2739.0,2832.0,3051.0,2981.0,0.805847,0.541077,-0.233276,-0.058105,-29.0,14.0,64.0,4315.0,7112.0,2775.0,1750.0,-253.0,271.0,1468.0,-937.0,403.0,0.313091,0.899159,0.305584,8372.0,12194.0,4962.0,-646.0,326.0,1471.0
2867.0,2767.0,2791.0,3063.0,2965.0,0.811523,0.531311,-0.239014,-0.043884,-30.0,19.0,62.0,4246.0,6529.0,2631.0,1450.0,-707.0,0.0,1407.0,-776.0,-129.0,0.341298,0.883321,0.321077,8282.0,11532.0,5002.0,-665.0,449.0,1433.0
2878.0,2800.0,2851.0,3057.0,3007.0,0.814514,0.526245,-0.241333,-0.036865,-32.0,21.0,60.0,4192.0,6284.0,2609.0,1289.0,-884.0,-91.0,1346.0,-720.0,-346.0,0.354338,0.875062,0.329617,8000.0,11060.0,5088.0,-715.0,489.0,1389.0
2865.0,2783.0,2864.0,3069.0,2991.0,0.820679,0.515564,-0.245056,-0.023926,-36.0,20.0,54.0,4027.0,5729.0,2583.0,934.0,-1299.0,-269.0,1212.0,-655.0,-855.0,0.377554,0.857951,0.348227,7550.0,9638.0,5148.0,-803.0,477.0,1248.0
2847.0,2759.0,2843.0,3056.0,2995.0,0.82373,0.510071,-0.246704,-0.018066,-36.0,19.0,51.0,3951.0,5421.0,2591.0,772.0,-1535.0,-340.0,1162.0,-669.0,-1125.0,0.388005,0.849236,0.357823,7438.0,9010.0,5258.0,-810.0,453.0,1186.0
2843.0,2752.0,2853.0,3071.0,3003.0,0.82959,0.499268,-0.249817,-0.007141,-35.0,18.0,48.0,3813.0,4815.0,2650.0,475.0,-2000.0,-435.0,1074.0,-767.0,-1634.0,0.40736,0.831943,0.376594,7220.0,7800.0,5542.0,-782.0,419.0,1103.0
2867.0,2787.0,2832.0,3057.0,2995.0,0.834778,0.489319,-0.252319,0.003601,-26.0,20.0,45.0,3646.0,4184.0,2692.0,166.0,-2493.0,-533.0,998.0,-902.0,-2171.0,0.424785,0.815128,0.393769,6726.0,6434.0,5418.0,-589.0,459.0,1036.0
2864.0,2788.0,2839.0,3090.0,2999.0,0.836731,0.485413,-0.253174,0.009094,-18.0,21.0,42.0,3532.0,3900.0,2684.0,-11.0,-2716.0,-596.0,946.0,-946.0,-2437.0,0.432506,0.807715,0.400479,6338.0,6198.0,5342.0,-400.0,497.0,983.0
2853.0,2751.0,2853.0,3055.0,2975.0,0.839172,0.480774,-0.253418,0.020142,0.0,25.0,36.0,3237.0,3565.0,2704.0,-405.0,-2961.0,-648.0,732.0,-975.0,-2804.0,0.44469,0.796696,0.409252,5548.0,6464.0,5612.0,18.0,574.0,840.0
2855.0,2791.0,2807.0,3047.0,2987.0,0.839722,0.479797,-0.252869,0.025574,7.0,26.0,33.0,3055.0,3516.0,2758.0,-625.0,-2979.0,-614.0,552.0,-975.0,-2895.0,0.449219,0.792859,0.411638,4968.0,6836.0,5902.0,173.0,603.0,775.0
2863.0,2786.0,2880.0,3039.0,2993.0,0.840271,0.479553,-0.250305,0.0354,13.0,26.0,24.0,2497.0,3626.0,2926.0,-1227.0,-2830.0,-471.0,-40.0,-911.0,-2983.0,0.454601,0.788188,0.414685,2914.0,7864.0,6252.0,315.0,601.0,567.0
2867.0,2774.0,2864.0,3059.0,2983.0,0.840393,0.480103,-0.248352,0.039001,14.0,23.0,16.0,2109.0,3766.0,2993.0,-1617.0,-2685.0,-411.0,-440.0,-819.0,-3020.0,0.454876,0.787578,0.415604,1840.0,8436.0,6326.0,338.0,534.0,376.0
2871.0,2777.0,2853.0,3063.0,2987.0,0.840393,0.482239,-0.243713,0.041748,12.0,11.0,-4.0,1294.0,4181.0,3039.0,-2391.0,-2292.0,-369.0,-1262.0,-517.0,-3040.0,0.449895,0.790191,0.416053,238.0,9936.0,6284.0,294.0,274.0,-76.0
2863.0,2763.0,2847.0,3063.0,2993.0,0.840271,0.483704,-0.241211,0.04071,9.0,4.0,-14.0,900.0,4503.0,3048.0,-2743.0,-1995.0,-356.0,-1682.0,-305.0,-2950.0,0.444749,0.793245,0.415561,-462.0,10938.0,6266.0,209.0,111.0,-299.0
2861.0,2757.0,2815.0,3061.0,2983.0,0.840576,0.486267,-0.236084,0.034363,2.0,-3.0,-32.0,385.0,4891.0,3170.0,-3140.0,-1672.0,-234.0,-2216.0,-142.0,-2788.0,0.430312,0.801264,0.415558,-450.0,10166.0,6628.0,46.0,-66.0,-712.0
2863.0,2768.0,2832.0,3063.0,2992.0,0.840698,0.487793,-0.232971,0.029968,6.0,-3.0,-39.0,205.0,4794.0,3167.0,-3243.0,-1810.0,-236.0,-2296.0,-174.0,-2922.0,0.420954,0.80621,0.415454,-670.0,8768.0,6188.0,150.0,-48.0,-881.0
2864.0,2794.0,2849.0,3056.0,2991.0,0.838989,0.494812,-0.22522,0.020447,31.0,0.0,-50.0,-255.0,4676.0,2918.0,-3516.0,-2050.0,-430.0,-2474.0,-20.0,-3258.0,0.398148,0.821074,0.408758,-2078.0,9922.0,4882.0,718.0,7.0,-1132.0
2858.0,2757.0,2832.0,3059.0,2967.0,0.836975,0.500427,-0.220886,0.01532,38.0,-2.0,-52.0,-527.0,5048.0,2805.0,-3681.0,-1758.0,-484.0,-2714.0,251.0,-3072.0,0.385085,0.830922,0.401544,-2714.0,12840.0,5036.0,892.0,-44.0,-1179.0
2850.0,2759.0,2826.0,3069.0,2962.0,0.832214,0.512085,-0.212463,0.002563,30.0,-13.0,-59.0,-1108.0,6356.0,2543.0,-4026.0,-617.0,-612.0,-3310.0,1087.0,-2195.0,0.356256,0.85124,0.385216,-3860.0,16712.0,4164.0,697.0,-295.0,-1339.0
2847.0,2765.0,2832.0,3071.0,2987.0,0.829956,0.517273,-0.208618,-0.005615,22.0,-20.0,-64.0,-1324.0,6951.0,2396.0,-4113.0,-102.0,-698.0,-3487.0,1476.0,-1751.0,0.340479,0.86097,0.377766,-3816.0,17330.0,3906.0,523.0,-450.0,-1465.0
2871.0,2767.0,2851.0,3059.0,2991.0,0.825562,0.526062,-0.202332,-0.024902,11.0,-33.0,-72.0,-1468.0,7909.0,1960.0,-3990.0,710.0,-1025.0,-3410.0,2209.0,-978.0,0.307874,0.87867,0.364493,-2874.0,18078.0,2350.0,265.0,-745.0,-1637.0
2871.0,2768.0,2851.0,3063.0,2991.0,0.820312,0.534485,-0.198242,-0.045349,16.0,-37.0,-71.0,-1159.0,8481.0,1417.0,-3426.0,1150.0,-1450.0,-2758.0,2714.0,-426.0,0.276764,0.894869,0.349995,-792.0,18512.0,1184.0,368.0,-843.0,-1608.0
2857.0,2769.0,2847.0,3053.0,2967.0,0.816833,0.53949,-0.196594,-0.054688,24.0,-35.0,-67.0,-926.0,8772.0,1138.0,-3073.0,1375.0,-1651.0,-2357.0,2912.0,-126.0,0.262163,0.902849,0.340509,-432.0,19308.0,630.0,552.0,-787.0,-1533.0
2862.0,2766.0,2826.0,3055.0,2975.0,0.808594,0.550903,-0.194031,-0.070312,34.0,-28.0,-55.0,-377.0,9540.0,769.0,-2312.0,2018.0,-1832.0,-1600.0,3112.0,724.0,0.236313,0.9182,0.317625,840.0,21698.0,662.0,797.0,-621.0,-1255.0
2855.0,2759.0,2829.0,3071.0,2955.0,0.799805,0.562683,-0.192017,-0.082214,36.0,-22.0,-45.0,158.0,10399.0,575.0,-1600.0,2766.0,-1824.0,-965.0,3117.0,1699.0,0.21463,0.931646,0.292964,1992.0,23146.0,868.0,826.0,-485.0,-1013.0
2859.0,2767.0,2821.0,3057.0,2995.0,0.795715,0.568054,-0.191223,-0.087036,34.0,-19.0,-41.0,437.0,10684.0,556.0,-1245.0,3005.0,-1749.0,-666.0,2985.0,2068.0,0.205436,0.937306,0.281486,2562.0,22850.0,990.0,781.0,-429.0,-919.0
2859.0,2771.0,2853.0,3070.0,2987.0,0.788147,0.577576,-0.190002,-0.095154,31.0,-15.0,-35.0,1023.0,10879.0,600.0,-530.0,3124.0,-1534.0,-71.0,2519.0,2457.0,0.189583,0.946588,0.260535,3908.0,21912.0,1538.0,718.0,-341.0,-784.0
2855.0,2767.0,2835.0,3071.0,2979.0,0.784607,0.58197,-0.189514,-0.09845,31.0,-13.0,-33.0,1331.0,10877.0,659.0,-166.0,3090.0,-1394.0,219.0,2220.0,2557.0,0.182799,0.950551,0.250695,4464.0,21722.0,1676.0,715.0,-285.0,-735.0
2862.0,2770.0,2857.0,3055.0,2975.0,0.778259,0.589905,-0.188416,-0.103943,26.0,-8.0,-30.0,1888.0,11062.0,800.0,490.0,3219.0,-1108.0,710.0,1694.0,2907.0,0.170639,0.957367,0.233004,5364.0,23018.0,1994.0,602.0,-180.0,-681.0
2855.0,2750.0,2843.0,3071.0,2995.0,0.775696,0.593079,-0.187561,-0.106384,19.0,-6.0,-29.0,2169.0,11192.0,900.0,819.0,3327.0,-952.0,948.0,1431.0,3113.0,0.164792,0.960004,0.2261,6042.0,23096.0,2474.0,456.0,-115.0,-662.0
2863.0,2775.0,2839.0,3063.0,2991.0,0.772583,0.597168,-0.185303,-0.109985,6.0,2.0,-25.0,2673.0,11330.0,1118.0,1403.0,3437.0,-668.0,1375.0,942.0,3383.0,0.154964,0.963485,0.218035,6706.0,22860.0,2912.0,160.0,61.0,-556.0
2859.0,2767.0,2871.0,3069.0,2975.0,0.771973,0.598206,-0.18396,-0.111023,1.0,6.0,-21.0,2902.0,11265.0,1241.0,1663.0,3364.0,-533.0,1567.0,692.0,3380.0,0.151195,0.964444,0.216577,7166.0,21942.0,3286.0,44.0,142.0,-473.0
2863.0,2755.0,2853.0,3047.0,2993.0,0.771912,0.59906,-0.181641,-0.110718,-1.0,13.0,-8.0,3292.0,10816.0,1594.0,2081.0,2910.0,-177.0,1829.0,97.0,3077.0,0.147768,0.965065,0.21624,7618.0,19998.0,4424.0,-7.0,300.0,-174.0
2861.0,2747.0,2846.0,3071.0,2979.0,0.772278,0.59906,-0.180908,-0.10907,1.0,15.0,0.0,3429.0,10511.0,1819.0,2210.0,2607.0,43.0,1869.0,-215.0,2853.0,0.148744,0.964745,0.216709,7600.0,19186.0,4992.0,26.0,359.0,15.0
2864.0,2770.0,2845.0,3071.0,2973.0,0.772949,0.599121,-0.181091,-0.103333,5.0,14.0,15.0,3529.0,10019.0,2192.0,2249.0,2125.0,419.0,1762.0,-665.0,2489.0,0.156131,0.963606,0.216388,7234.0,19126.0,5524.0,129.0,329.0,355.0
2851.0,2755.0,2815.0,3091.0,2971.0,0.773438,0.598755,-0.18219,-0.099976,3.0,10.0,21.0,3580.0,9913.0,2422.0,2252.0,2027.0,648.0,1668.0,-883.0,2456.0,0.162103,0.962628,0.2165,7498.0,19290.0,6352.0,72.0,240.0,490.0
2847.0,2772.0,2819.0,3059.0,2977.0,0.776062,0.595337,-0.186157,-0.092896,-14.0,3.0,31.0,3615.0,9823.0,2876.0,2154.0,1969.0,1058.0,1392.0,-1189.0,2506.0,0.178331,0.958623,0.221821,7184.0,19318.0,6938.0,-310.0,84.0,726.0
2865.0,2771.0,2832.0,3061.0,2998.0,0.778381,0.591919,-0.188721,-0.0896,-25.0,0.0,34.0,3586.0,9698.0,3022.0,2048.0,1872.0,1154.0,1250.0,-1237.0,2435.0,0.187722,0.955296,0.227922,6988.0,18460.0,6864.0,-556.0,5.0,795.0
2874.0,2775.0,2855.0,3071.0,2983.0,0.784912,0.582153,-0.194763,-0.083801,-42.0,-5.0,38.0,3526.0,9176.0,3155.0,1820.0,1422.0,1137.0,1062.0,-1215.0,2004.0,0.208174,0.946521,0.246275,6914.0,16314.0,6400.0,-962.0,-97.0,871.0
2863.0,2763.0,2803.0,3070.0,2951.0,0.788879,0.576111,-0.198059,-0.080933,-49.0,-5.0,41.0,3536.0,8743.0,3171.0,1740.0,1034.0,1059.0,1047.0,-1213.0,1627.0,0.219237,0.941023,0.25775,7178.0,14700.0,6450.0,-1101.0,-104.0,940.0
2855.0,2763.0,2859.0,3063.0,2963.0,0.797302,0.562805,-0.204956,-0.073914,-51.0,-1.0,47.0,3564.0,7598.0,3097.0,1568.0,-2.0,783.0,1098.0,-1226.0,601.0,0.243626,0.92775,0.282397,7164.0,11454.0,5808.0,-1154.0,-16.0,1093.0
2859.0,2746.0,2847.0,3056.0,2981.0,0.801392,0.556213,-0.208435,-0.069641,-48.0,1.0,50.0,3566.0,7001.0,3027.0,1463.0,-539.0,616.0,1132.0,-1234.0,60.0,0.256606,0.920521,0.29426,7118.0,10482.0,5588.0,-1082.0,39.0,1162.0
2849.0,2777.0,2832.0,3069.0,2995.0,0.808594,0.544189,-0.215515,-0.05957,-39.0,4.0,55.0,3650.0,5949.0,2845.0,1325.0,-1470.0,266.0,1285.0,-1254.0,-871.0,0.283693,0.905733,0.314784,7630.0,9046.0,5156.0,-871.0,111.0,1265.0
2859.0,2745.0,2827.0,3067.0,2991.0,0.811646,0.538696,-0.219238,-0.053894,-34.0,5.0,57.0,3733.0,5510.0,2753.0,1293.0,-1847.0,103.0,1393.0,-1270.0,-1240.0,0.297822,0.898092,0.323414,8010.0,8462.0,4994.0,-778.0,123.0,1317.0
2863.0,2783.0,2801.0,3070.0,2981.0,0.816772,0.528564,-0.227234,-0.041626,-26.0,4.0,59.0,3896.0,4818.0,2612.0,1215.0,-2410.0,-155.0,1564.0,-1298.0,-1781.0,0.327193,0.882351,0.337834,8238.0,7878.0,4846.0,-588.0,111.0,1364.0
2861.0,2751.0,2832.0,3045.0,2959.0,0.820862,0.519714,-0.234924,-0.029541,-23.0,5.0,54.0,4007.0,4444.0,2579.0,1099.0,-2659.0,-283.0,1613.0,-1302.0,-2014.0,0.354975,0.867107,0.349394,8292.0,8218.0,5298.0,-504.0,122.0,1255.0
2863.0,2774.0,2847.0,3056.0,2979.0,0.822876,0.51532,-0.238159,-0.024048,-25.0,6.0,50.0,4054.0,4356.0,2624.0,1046.0,-2685.0,-287.0,1598.0,-1313.0,-2025.0,0.367166,0.859543,0.355429,8384.0,8204.0,5514.0,-557.0,147.0,1152.0
2851.0,2771.0,2854.0,3063.0,2971.0,0.827454,0.50592,-0.243164,-0.014587,-31.0,10.0,40.0,4142.0,4225.0,2682.0,966.0,-2691.0,-347.0,1593.0,-1285.0,-2025.0,0.387654,0.844346,0.369808,8448.0,8084.0,5514.0,-699.0,240.0,923.0
2827.0,2779.0,2839.0,3054.0,2973.0,0.830017,0.500977,-0.244812,-0.010498,-34.0,13.0,35.0,4164.0,4142.0,2715.0,920.0,-2712.0,-382.0,1586.0,-1275.0,-2049.0,0.395878,0.836778,0.378128,8434.0,7686.0,5588.0,-762.0,305.0,822.0
2864.0,2767.0,2832.0,3071.0,2993.0,0.835388,0.491272,-0.24646,-0.002747,-30.0,19.0,29.0,4124.0,3687.0,2695.0,772.0,-3048.0,-547.0,1629.0,-1318.0,-2406.0,0.409081,0.822159,0.39579,8024.0,5630.0,5278.0,-672.0,444.0,678.0
2871.0,2771.0,2863.0,3070.0,2975.0,0.837524,0.487488,-0.246643,0.001343,-20.0,22.0,27.0,4059.0,3427.0,2658.0,663.0,-3256.0,-643.0,1637.0,-1340.0,-2640.0,0.414448,0.815903,0.402972,7648.0,5456.0,5048.0,-456.0,508.0,630.0
2863.0,2781.0,2827.0,3056.0,2973.0,0.839905,0.483765,-0.245667,0.009766,1.0,24.0,22.0,3793.0,3334.0,2618.0,334.0,-3283.0,-750.0,1430.0,-1206.0,-2819.0,0.422121,0.807834,0.411155,6624.0,6948.0,5418.0,41.0,571.0,511.0
2863.0,2767.0,2847.0,3071.0,2975.0,0.840393,0.483398,-0.244629,0.013916,8.0,25.0,20.0,3590.0,3477.0,2677.0,111.0,-3123.0,-705.0,1189.0,-1108.0,-2760.0,0.424623,0.805681,0.412937,5830.0,8032.0,5778.0,193.0,578.0,470.0
2854.0,2753.0,2871.0,3067.0,3007.0,0.840637,0.48407,-0.241882,0.021057,12.0,20.0,15.0,3030.0,3903.0,2873.0,-468.0,-2680.0,-520.0,510.0,-899.0,-2569.0,0.427057,0.803668,0.414284,4300.0,8876.0,6442.0,291.0,479.0,344.0
2839.0,2770.0,2822.0,3061.0,2991.0,0.840576,0.484741,-0.240417,0.023804,13.0,17.0,11.0,2710.0,4002.0,2999.0,-790.0,-2580.0,-395.0,157.0,-885.0,-2574.0,0.427256,0.803478,0.41436,3444.0,8540.0,6806.0,319.0,405.0,263.0
2861.0,2769.0,2845.0,3071.0,2979.0,0.840027,0.487183,-0.236938,0.027161,19.0,12.0,1.0,1853.0,4409.0,3235.0,-1624.0,-2190.0,-147.0,-778.0,-723.0,-2514.0,0.424534,0.805622,0.412896,602.0,10668.0,6736.0,447.0,285.0,27.0
2863.0,2768.0,2823.0,3061.0,2961.0,0.839478,0.489197,-0.234802,0.026917,16.0,5.0,-8.0,1324.0,4758.0,3224.0,-2121.0,-1866.0,-142.0,-1318.0,-460.0,-2459.0,0.420557,0.808699,0.411001,-430.0,11568.0,6318.0,387.0,119.0,-182.0
2858.0,2761.0,2813.0,3060.0,2973.0,0.837585,0.494812,-0.230347,0.021851,19.0,-8.0,-27.0,495.0,5556.0,3039.0,-2843.0,-1151.0,-271.0,-2135.0,185.0,-2210.0,0.407494,0.818828,0.404128,-1030.0,13654.0,5376.0,453.0,-162.0,-609.0
2847.0,2774.0,2835.0,3063.0,2971.0,0.836121,0.498474,-0.228149,0.017822,21.0,-11.0,-33.0,254.0,5973.0,2939.0,-3016.0,-788.0,-328.0,-2377.0,476.0,-1985.0,0.399289,0.825437,0.398887,-774.0,14446.0,5250.0,503.0,-232.0,-734.0
2865.0,2769.0,2831.0,3069.0,2983.0,0.832886,0.506348,-0.223206,0.009399,24.0,-6.0,-35.0,40.0,6732.0,2828.0,-3083.0,-143.0,-347.0,-2614.0,873.0,-1430.0,0.381328,0.839263,0.387578,-534.0,15764.0,5254.0,572.0,-122.0,-784.0
2857.0,2763.0,2847.0,3071.0,2989.0,0.829163,0.515442,-0.216248,0.001465,28.0,0.0,-39.0,-363.0,7537.0,2449.0,-3313.0,539.0,-623.0,-2901.0,1515.0,-966.0,0.360119,0.854137,0.375069,-2244.0,17694.0,3372.0,664.0,19.0,-873.0
2864.0,2739.0,2827.0,3071.0,2994.0,0.826843,0.520813,-0.212219,-0.003052,30.0,0.0,-42.0,-584.0,8018.0,2222.0,-3432.0,951.0,-787.0,-3049.0,1887.0,-662.0,0.347765,0.862557,0.367396,-2378.0,19058.0,3266.0,705.0,2.0,-956.0
2859.0,2768.0,2855.0,3063.0,2983.0,0.822083,0.531311,-0.203979,-0.01355,23.0,-4.0,-47.0,-821.0,9213.0,1915.0,-3450.0,2011.0,-969.0,-3213.0,2540.0,319.0,0.320978,0.879091,0.352104,-2030.0,22226.0,3196.0,530.0,-87.0,-1063.0
2864.0,2769.0,2839.0,3071.0,2995.0,0.820312,0.5354,-0.200012,-0.01947,12.0,-6.0,-48.0,-818.0,9757.0,1867.0,-3335.0,2497.0,-972.0,-3181.0,2730.0,851.0,0.307296,0.88618,0.346633,-1494.0,22616.0,3498.0,285.0,-121.0,-1078.0
2865.0,2767.0,2849.0,3071.0,2979.0,0.818726,0.539978,-0.192444,-0.03186,-7.0,-6.0,-48.0,-676.0,10208.0,1851.0,-2975.0,2864.0,-956.0,-2860.0,2794.0,1404.0,0.28071,0.89645,0.342716,-846.0,20744.0,3600.0,-156.0,-120.0,-1090.0
2864.0,2768.0,2847.0,3045.0,2983.0,0.818665,0.541016,-0.18866,-0.038147,-12.0,-5.0,-49.0,-571.0,10078.0,1829.0,-2763.0,2703.0,-983.0,-2596.0,2705.0,1356.0,0.267622,0.900214,0.343376,-516.0,18828.0,3420.0,-274.0,-101.0,-1119.0
2845.0,2737.0,2832.0,3055.0,2989.0,0.818298,0.543091,-0.181274,-0.049988,-2.0,-3.0,-49.0,-319.0,9104.0,1769.0,-2304.0,1674.0,-1051.0,-1964.0,2235.0,597.0,0.242377,0.906944,0.344303,54.0,14884.0,3358.0,-42.0,-58.0,-1102.0
2855.0,2771.0,2831.0,3056.0,2963.0,0.815308,0.548706,-0.174866,-0.059814,22.0,-4.0,-45.0,-146.0,8247.0,1770.0,-1944.0,746.0,-987.0,-1535.0,1716.0,-75.0,0.219498,0.915647,0.336648,146.0,14722.0,3704.0,525.0,-82.0,-1010.0
2864.0,2779.0,2851.0,3063.0,2983.0,0.812561,0.553101,-0.172119,-0.064209,32.0,-6.0,-43.0,-96.0,8124.0,1793.0,-1805.0,579.0,-900.0,-1417.0,1541.0,-139.0,0.208687,0.920959,0.328833,86.0,15868.0,3722.0,754.0,-126.0,-975.0
2863.0,2781.0,2842.0,3071.0,2987.0,0.805908,0.562927,-0.167969,-0.072998,37.0,-12.0,-42.0,49.0,8472.0,1899.0,-1495.0,838.0,-638.0,-1229.0,1319.0,301.0,0.18855,0.931858,0.309716,564.0,18734.0,4096.0,849.0,-274.0,-943.0
2863.0,2755.0,2831.0,3051.0,2991.0,0.802612,0.567505,-0.166321,-0.077881,32.0,-16.0,-43.0,145.0,8828.0,1937.0,-1317.0,1153.0,-524.0,-1115.0,1273.0,687.0,0.178587,0.936879,0.300528,956.0,19844.0,4092.0,742.0,-361.0,-974.0
2847.0,2751.0,2815.0,3055.0,2983.0,0.796875,0.574585,-0.163879,-0.088989,19.0,-22.0,-46.0,510.0,9450.0,2013.0,-791.0,1709.0,-329.0,-695.0,1106.0,1395.0,0.158919,0.944912,0.285925,2364.0,20556.0,4288.0,441.0,-493.0,-1048.0
2861.0,2787.0,2855.0,3059.0,2987.0,0.794678,0.576965,-0.162842,-0.094788,12.0,-23.0,-46.0,766.0,9693.0,2062.0,-458.0,1928.0,-240.0,-408.0,977.0,1691.0,0.149435,0.947874,0.281091,3118.0,20780.0,4414.0,279.0,-504.0,-1051.0
2867.0,2783.0,2845.0,3071.0,2991.0,0.791565,0.579834,-0.161011,-0.105835,2.0,-19.0,-43.0,1335.0,9962.0,2129.0,252.0,2162.0,-129.0,240.0,684.0,2056.0,0.132168,0.952034,0.275644,4436.0,20528.0,4406.0,66.0,-427.0,-981.0
2858.0,2764.0,2899.0,3071.0,2979.0,0.790405,0.580811,-0.160156,-0.110596,1.0,-16.0,-41.0,1642.0,9995.0,2158.0,620.0,2183.0,-86.0,581.0,508.0,2135.0,0.124706,0.953577,0.273981,5148.0,20004.0,4450.0,39.0,-355.0,-918.0
2869.0,2767.0,2833.0,3062.0,2979.0,0.788025,0.582886,-0.158997,-0.117737,8.0,-11.0,-29.0,2234.0,9815.0,2122.0,1305.0,1982.0,-88.0,1237.0,173.0,2019.0,0.113332,0.956096,0.26981,6310.0,18782.0,4144.0,185.0,-239.0,-664.0
2865.0,2773.0,2847.0,3063.0,2982.0,0.786499,0.584473,-0.159363,-0.119629,15.0,-9.0,-20.0,2539.0,9677.0,2133.0,1631.0,1833.0,-45.0,1522.0,-43.0,1923.0,0.110838,0.957503,0.265887,6896.0,18598.0,4354.0,351.0,-202.0,-446.0
2864.0,2773.0,2842.0,3069.0,2977.0,0.782593,0.588806,-0.162659,-0.119507,27.0,-9.0,2.0,3092.0,9605.0,2215.0,2159.0,1736.0,137.0,1920.0,-455.0,1947.0,0.113858,0.960469,0.253583,7820.0,19384.0,4850.0,635.0,-189.0,56.0
2835.0,2763.0,2843.0,3071.0,2975.0,0.780579,0.591064,-0.16571,-0.117798,28.0,-10.0,12.0,3352.0,9699.0,2302.0,2373.0,1820.0,283.0,2042.0,-653.0,2103.0,0.119448,0.961785,0.246362,8236.0,20050.0,5140.0,661.0,-207.0,281.0
2863.0,2763.0,2838.0,3062.0,2979.0,0.77771,0.593628,-0.173401,-0.112427,18.0,-10.0,26.0,3818.0,9899.0,2538.0,2701.0,2015.0,612.0,2160.0,-1025.0,2450.0,0.136232,0.962331,0.235011,8846.0,20292.0,5638.0,417.0,-225.0,605.0
2863.0,2768.0,2843.0,3071.0,2975.0,0.777283,0.593567,-0.177673,-0.109253,8.0,-10.0,30.0,3997.0,9946.0,2595.0,2796.0,2068.0,692.0,2186.0,-1114.0,2558.0,0.146507,0.961561,0.232215,9022.0,20048.0,5494.0,206.0,-220.0,695.0
2863.0,2766.0,2838.0,3063.0,2971.0,0.778748,0.59021,-0.186035,-0.102539,-13.0,-7.0,34.0,4310.0,9779.0,2674.0,2927.0,1935.0,757.0,2235.0,-1231.0,2523.0,0.16871,0.957401,0.234005,9486.0,18658.0,5618.0,-280.0,-157.0,795.0
2864.0,2767.0,2836.0,3069.0,2979.0,0.780762,0.586914,-0.18988,-0.09906,-23.0,-5.0,36.0,4426.0,9516.0,2705.0,2949.0,1700.0,748.0,2253.0,-1275.0,2332.0,0.180223,0.954099,0.238879,9468.0,17232.0,5560.0,-522.0,-97.0,832.0
2863.0,2757.0,2835.0,3055.0,2971.0,0.786804,0.577759,-0.196777,-0.091614,-38.0,1.0,40.0,4480.0,8621.0,2704.0,2810.0,877.0,615.0,2216.0,-1304.0,1558.0,0.203789,0.945221,0.254927,8854.0,14148.0,5200.0,-848.0,23.0,917.0
2867.0,2775.0,2828.0,3071.0,2979.0,0.790283,0.57251,-0.200012,-0.087585,-40.0,3.0,42.0,4452.0,8063.0,2659.0,2683.0,363.0,492.0,2189.0,-1294.0,1050.0,0.215846,0.939926,0.264446,8712.0,12786.0,5116.0,-900.0,72.0,973.0
2863.0,2739.0,2823.0,3070.0,2979.0,0.797424,0.561462,-0.206543,-0.078064,-39.0,6.0,50.0,4341.0,7007.0,2613.0,2360.0,-592.0,285.0,2074.0,-1298.0,102.0,0.241745,0.927695,0.284079,8174.0,11016.0,5140.0,-889.0,144.0,1147.0
2859.0,2765.0,2843.0,3070.0,2987.0,0.800903,0.555969,-0.209961,-0.072815,-38.0,6.0,52.0,4274.0,6539.0,2594.0,2182.0,-1006.0,189.0,2004.0,-1299.0,-313.0,0.255351,0.921132,0.293563,8170.0,10392.0,5092.0,-857.0,150.0,1206.0
2862.0,2759.0,2834.0,3067.0,2979.0,0.807373,0.545105,-0.217163,-0.061523,-35.0,6.0,57.0,4100.0,5795.0,2567.0,1776.0,-1634.0,16.0,1812.0,-1261.0,-973.0,0.28359,0.906927,0.311337,7610.0,9636.0,5070.0,-783.0,138.0,1311.0
2858.0,2763.0,2835.0,3063.0,2981.0,0.813232,0.534424,-0.224731,-0.049744,-32.0,5.0,59.0,3949.0,5283.0,2631.0,1390.0,-2020.0,-53.0,1586.0,-1257.0,-1384.0,0.312349,0.89158,0.327708,7486.0,9316.0,5608.0,-732.0,131.0,1367.0
2863.0,2764.0,2837.0,3067.0,2987.0,0.816101,0.529053,-0.228271,-0.043762,-32.0,7.0,58.0,3867.0,5116.0,2682.0,1194.0,-2121.0,-69.0,1454.0,-1240.0,-1507.0,0.32628,0.8835,0.335931,7202.0,9236.0,5662.0,-732.0,169.0,1346.0
2847.0,2763.0,2838.0,3067.0,2975.0,0.821838,0.518433,-0.233887,-0.03241,-33.0,12.0,51.0,3732.0,4755.0,2791.0,858.0,-2349.0,-100.0,1248.0,-1251.0,-1771.0,0.35083,0.867296,0.352993,7132.0,8304.0,5958.0,-749.0,285.0,1185.0
2855.0,2763.0,2847.0,3067.0,2979.0,0.824707,0.513306,-0.23584,-0.027039,-32.0,14.0,47.0,3659.0,4538.0,2831.0,699.0,-2502.0,-132.0,1169.0,-1270.0,-1945.0,0.361239,0.859407,0.36177,6888.0,7784.0,5906.0,-711.0,338.0,1091.0
2867.0,2763.0,2827.0,3059.0,2973.0,0.829773,0.504272,-0.238403,-0.01709,-24.0,17.0,39.0,3457.0,4229.0,2865.0,357.0,-2693.0,-229.0,981.0,-1227.0,-2227.0,0.378405,0.845012,0.377688,6196.0,7766.0,5742.0,-549.0,399.0,915.0
2863.0,2779.0,2847.0,3063.0,2979.0,0.831787,0.500671,-0.239197,-0.012512,-20.0,17.0,36.0,3331.0,4170.0,2841.0,173.0,-2702.0,-305.0,869.0,-1139.0,-2317.0,0.385393,0.83889,0.384139,5926.0,8124.0,5514.0,-450.0,402.0,836.0
2863.0,2775.0,2837.0,3063.0,2979.0,0.8349,0.495178,-0.240173,-0.004211,-11.0,16.0,30.0,3151.0,4175.0,2787.0,-100.0,-2615.0,-442.0,694.0,-943.0,-2381.0,0.396871,0.828871,0.394191,5948.0,8360.0,5528.0,-245.0,375.0,708.0
2861.0,2769.0,2836.0,3061.0,2971.0,0.835938,0.493225,-0.24054,-0.000122,-6.0,16.0,29.0,3111.0,4191.0,2807.0,-182.0,-2564.0,-450.0,627.0,-902.0,-2366.0,0.402032,0.824669,0.397661,6000.0,8476.0,5784.0,-129.0,378.0,686.0
2863.0,2763.0,2830.0,3059.0,2965.0,0.837219,0.490784,-0.240784,0.008484,3.0,17.0,29.0,2933.0,4278.0,2904.0,-438.0,-2420.0,-390.0,373.0,-834.0,-2315.0,0.411505,0.817702,0.402163,5096.0,8828.0,6138.0,81.0,406.0,686.0
2859.0,2775.0,2851.0,3071.0,2981.0,0.837524,0.490295,-0.240723,0.012756,8.0,17.0,29.0,2765.0,4311.0,2956.0,-640.0,-2366.0,-347.0,179.0,-803.0,-2334.0,0.415731,0.815127,0.403273,4434.0,8830.0,6216.0,185.0,400.0,668.0
2863.0,2783.0,2851.0,3071.0,2989.0,0.836975,0.491211,-0.240173,0.020447,17.0,11.0,22.0,2255.0,4493.0,2955.0,-1203.0,-2162.0,-337.0,-350.0,-593.0,-2399.0,0.422126,0.812441,0.401974,2734.0,9820.0,5774.0,408.0,273.0,523.0
2862.0,2766.0,2843.0,3071.0,2981.0,0.83606,0.492737,-0.239929,0.023071,21.0,6.0,16.0,1926.0,4727.0,2912.0,-1546.0,-1931.0,-358.0,-699.0,-386.0,-2367.0,0.423926,0.812844,0.399172,1778.0,11082.0,5472.0,483.0,143.0,383.0
2855.0,2769.0,2843.0,3071.0,2987.0,0.833435,0.497375,-0.239502,0.023926,18.0,-9.0,-2.0,1283.0,5527.0,2734.0,-2182.0,-1170.0,-464.0,-1429.0,233.0,-2060.0,0.423019,0.8176,0.390443,844.0,13666.0,5024.0,433.0,-202.0,-28.0
2861.0,2787.0,2853.0,3067.0,2979.0,0.832214,0.499512,-0.23938,0.021973,10.0,-16.0,-10.0,1033.0,6008.0,2682.0,-2410.0,-716.0,-482.0,-1752.0,536.0,-1787.0,0.420382,0.820882,0.386249,626.0,14976.0,5096.0,248.0,-346.0,-225.0
2850.0,2783.0,2854.0,3071.0,2987.0,0.831238,0.501953,-0.238342,0.014343,-5.0,-17.0,-25.0,718.0,6643.0,2682.0,-2645.0,-137.0,-450.0,-2135.0,880.0,-1371.0,0.410638,0.827648,0.382398,632.0,14516.0,5220.0,-103.0,-374.0,-557.0
2864.0,2767.0,2845.0,3071.0,2991.0,0.830872,0.504456,-0.234802,0.004822,1.0,-8.0,-35.0,408.0,6871.0,2500.0,-2828.0,22.0,-619.0,-2282.0,1178.0,-1334.0,0.395046,0.836011,0.380763,-154.0,14356.0,4354.0,31.0,-183.0,-800.0
2867.0,2771.0,2835.0,3061.0,2983.0,0.8302,0.506897,-0.231873,6.1e-05,8.0,-4.0,-39.0,250.0,7009.0,2376.0,-2904.0,114.0,-724.0,-2339.0,1347.0,-1296.0,0.385063,0.841624,0.378523,-444.0,14976.0,3958.0,194.0,-78.0,-881.0
2864.0,2778.0,2837.0,3063.0,2975.0,0.827637,0.51416,-0.224731,-0.009155,19.0,-1.0,-41.0,-86.0,7524.0,2081.0,-3056.0,518.0,-951.0,-2495.0,1802.0,-1017.0,0.362577,0.855191,0.370201,-1184.0,16938.0,3308.0,438.0,0.0,-928.0
2855.0,2783.0,2853.0,3071.0,2989.0,0.825928,0.518311,-0.22113,-0.013672,19.0,-2.0,-40.0,-238.0,7865.0,1978.0,-3114.0,801.0,-1010.0,-2590.0,2013.0,-771.0,0.351103,0.862221,0.364799,-1348.0,17856.0,3460.0,448.0,-26.0,-894.0
2862.0,2779.0,2847.0,3099.0,2979.0,0.822754,0.525879,-0.214294,-0.023132,15.0,-5.0,-40.0,-499.0,8518.0,1982.0,-3188.0,1347.0,-926.0,-2794.0,2232.0,-196.0,0.328294,0.875252,0.354988,-1662.0,18864.0,4172.0,351.0,-95.0,-916.0
2859.0,2775.0,2849.0,3070.0,2981.0,0.821289,0.529358,-0.210754,-0.028503,12.0,-6.0,-44.0,-590.0,8804.0,2039.0,-3178.0,1582.0,-833.0,-2855.0,2264.0,98.0,0.316004,0.881526,0.350691,-1708.0,19318.0,4442.0,295.0,-117.0,-1001.0
2861.0,2775.0,2851.0,3071.0,2971.0,0.818909,0.535156,-0.203186,-0.040588,5.0,-7.0,-51.0,-640.0,9154.0,2161.0,-3010.0,1838.0,-661.0,-2780.0,2202.0,542.0,0.289339,0.892982,0.344582,-1118.0,18702.0,4642.0,122.0,-151.0,-1148.0
2867.0,2770.0,2839.0,3071.0,2975.0,0.817932,0.537537,-0.199463,-0.046875,4.0,-7.0,-51.0,-564.0,9098.0,2202.0,-2824.0,1741.0,-603.0,-2599.0,2068.0,577.0,0.2759,0.898037,0.342479,-688.0,17530.0,4614.0,99.0,-141.0,-1155.0
2867.0,2765.0,2842.0,3070.0,2991.0,0.815491,0.542664,-0.192383,-0.058289,12.0,-5.0,-49.0,-381.0,8673.0,2153.0,-2433.0,1238.0,-607.0,-2148.0,1763.0,309.0,0.250511,0.907502,0.336928,-232.0,15936.0,4028.0,296.0,-105.0,-1100.0
2863.0,2787.0,2847.0,3071.0,2975.0,0.811035,0.550354,-0.186035,-0.068115,29.0,-5.0,-46.0,-189.0,8415.0,2157.0,-2046.0,894.0,-504.0,-1779.0,1426.0,192.0,0.226787,0.918057,0.324919,146.0,16628.0,4362.0,669.0,-104.0,-1050.0
2867.0,2770.0,2833.0,3071.0,2992.0,0.808105,0.554993,-0.183167,-0.072815,33.0,-7.0,-46.0,-100.0,8446.0,2192.0,-1863.0,879.0,-402.0,-1641.0,1275.0,283.0,0.215212,0.92366,0.31677,364.0,17204.0,4632.0,758.0,-138.0,-1039.0
2864.0,2774.0,2846.0,3063.0,2979.0,0.801941,0.564087,-0.178345,-0.082275,32.0,-11.0,-46.0,135.0,8739.0,2235.0,-1447.0,1087.0,-221.0,-1326.0,1055.0,669.0,0.193223,0.934076,0.299878,1006.0,18706.0,4490.0,734.0,-251.0,-1033.0
2863.0,2768.0,2835.0,3091.0,2991.0,0.79895,0.568176,-0.176453,-0.087402,27.0,-15.0,-46.0,276.0,8987.0,2204.0,-1220.0,1296.0,-188.0,-1132.0,1019.0,938.0,0.182634,0.938734,0.292001,1458.0,19510.0,4156.0,631.0,-337.0,-1047.0
2864.0,2799.0,2838.0,3071.0,2975.0,0.79364,0.574585,-0.173706,-0.098755,16.0,-22.0,-48.0,692.0,9403.0,2078.0,-637.0,1650.0,-209.0,-575.0,938.0,1399.0,0.162234,0.946336,0.279296,2778.0,19866.0,3722.0,377.0,-492.0,-1088.0
2855.0,2768.0,2845.0,3063.0,2983.0,0.791321,0.577026,-0.172791,-0.104675,12.0,-24.0,-48.0,955.0,9574.0,2007.0,-295.0,1796.0,-240.0,-236.0,878.0,1594.0,0.152665,0.9494,0.27433,3536.0,20232.0,3616.0,297.0,-528.0,-1084.0
2861.0,2781.0,2861.0,3063.0,2989.0,0.787231,0.580811,-0.171753,-0.115662,7.0,-23.0,-42.0,1590.0,9882.0,1904.0,475.0,2065.0,-277.0,510.0,677.0,1961.0,0.136064,0.954195,0.266271,5240.0,20286.0,3580.0,180.0,-507.0,-950.0
2866.0,2783.0,2847.0,3057.0,2987.0,0.785461,0.582336,-0.171875,-0.119995,9.0,-20.0,-35.0,1934.0,9902.0,1845.0,867.0,2070.0,-306.0,892.0,536.0,2011.0,0.130247,0.956054,0.262692,5888.0,19892.0,3324.0,207.0,-458.0,-785.0
2863.0,2771.0,2841.0,3059.0,2983.0,0.781372,0.58606,-0.173828,-0.125122,19.0,-16.0,-16.0,2554.0,9855.0,1764.0,1530.0,1995.0,-304.0,1500.0,216.0,2028.0,0.124991,0.959361,0.252516,6970.0,19474.0,3458.0,449.0,-359.0,-361.0
2871.0,2789.0,2853.0,3071.0,2992.0,0.174194,0.600769,0.108215,-1.21228,18905.0,-15267.0,-30053.0,-13365.0,-15338.0,-25859.0,-1123.0,-14903.0,30442.0,15335.0,12623.0,-28749.0,-1.494302,-0.053074,1.127333,7596.0,20220.0,3750.0,636.0,-261.0,95.0
2867.0,2763.0,2835.0,3057.0,2961.0,0.774719,0.592896,-0.18158,-0.123596,26.0,-11.0,11.0,3299.0,9979.0,1846.0,2194.0,2085.0,-46.0,1952.0,-297.0,2294.0,0.134787,0.96354,0.23097,7750.0,20442.0,4040.0,613.0,-246.0,264.0
2864.0,2769.0,2843.0,3059.0,2987.0,0.77179,0.595398,-0.18866,-0.119324,16.0,-11.0,21.0,3570.0,10082.0,2017.0,2348.0,2184.0,216.0,1931.0,-575.0,2503.0,0.149121,0.964067,0.219806,7724.0,20492.0,4534.0,369.0,-251.0,484.0
2861.0,2769.0,2839.0,3063.0,2983.0,0.771179,0.595398,-0.192322,-0.117188,7.0,-12.0,23.0,3671.0,10103.0,2120.0,2384.0,2210.0,342.0,1886.0,-693.0,2577.0,0.157083,0.963392,0.216964,7986.0,20280.0,4890.0,179.0,-272.0,528.0
2861.0,2767.0,2853.0,3071.0,2999.0,0.772217,0.592285,-0.19989,-0.11322,-13.0,-14.0,26.0,3903.0,10004.0,2279.0,2472.0,2139.0,490.0,1861.0,-860.0,2592.0,0.1746,0.960008,0.21838,8530.0,19432.0,4848.0,-296.0,-305.0,598.0
2847.0,2797.0,2839.0,3071.0,2995.0,0.776184,0.585205,-0.207336,-0.109375,-32.0,-11.0,29.0,4141.0,9558.0,2276.0,2552.0,1744.0,400.0,1964.0,-890.0,2249.0,0.193849,0.953809,0.228971,9032.0,17388.0,4526.0,-712.0,-249.0,677.0
2861.0,2757.0,2847.0,3071.0,2974.0,0.779114,0.580444,-0.210876,-0.107117,-39.0,-8.0,32.0,4256.0,9232.0,2292.0,2582.0,1452.0,349.0,2021.0,-922.0,1988.0,0.204243,0.949641,0.237108,9128.0,16456.0,4712.0,-874.0,-173.0,740.0
2870.0,2755.0,2833.0,3057.0,2975.0,0.786682,0.56897,-0.216919,-0.10144,-50.0,1.0,37.0,4354.0,8405.0,2336.0,2503.0,711.0,219.0,2053.0,-967.0,1289.0,0.225859,0.939205,0.258379,8850.0,14032.0,4854.0,-1135.0,36.0,855.0
2863.0,2739.0,2857.0,3062.0,2979.0,0.791016,0.562561,-0.219421,-0.097961,-53.0,6.0,39.0,4340.0,7904.0,2366.0,2399.0,261.0,148.0,2030.0,-998.0,851.0,0.236913,0.932979,0.270682,8530.0,12724.0,4940.0,-1200.0,138.0,913.0
2865.0,2771.0,2823.0,3051.0,2966.0,0.800354,0.54895,-0.223694,-0.089722,-54.0,12.0,45.0,4227.0,6813.0,2466.0,2100.0,-714.0,31.0,1914.0,-1115.0,-101.0,0.259563,0.918849,0.297231,8000.0,10304.0,5160.0,-1228.0,278.0,1032.0
2863.0,2775.0,2847.0,3071.0,2960.0,0.804932,0.542053,-0.225769,-0.085022,-52.0,12.0,47.0,4151.0,6283.0,2504.0,1928.0,-1180.0,-38.0,1848.0,-1173.0,-563.0,0.271284,0.911022,0.31035,7856.0,9490.0,5288.0,-1186.0,296.0,1085.0
2866.0,2774.0,2851.0,3056.0,2963.0,0.813416,0.528748,-0.230286,-0.075195,-47.0,10.0,49.0,3954.0,5370.0,2566.0,1536.0,-1960.0,-175.0,1672.0,-1259.0,-1359.0,0.295117,0.894816,0.334694,7382.0,8254.0,5344.0,-1060.0,246.0,1145.0
2879.0,2751.0,2832.0,3071.0,2991.0,0.8172,0.522461,-0.232849,-0.070251,-43.0,9.0,50.0,3876.0,4959.0,2605.0,1359.0,-2304.0,-225.0,1596.0,-1325.0,-1703.0,0.307161,0.886626,0.345567,7324.0,7470.0,5512.0,-963.0,208.0,1148.0
2845.0,2782.0,2832.0,3067.0,2975.0,0.823303,0.511658,-0.238342,-0.059753,-26.0,8.0,50.0,3790.0,4180.0,2666.0,1075.0,-2955.0,-306.0,1513.0,-1505.0,-2328.0,0.331309,0.870982,0.362798,7348.0,6168.0,5390.0,-591.0,191.0,1151.0
2851.0,2759.0,2859.0,3089.0,2967.0,0.825256,0.507812,-0.241028,-0.054077,-14.0,9.0,50.0,3750.0,3857.0,2683.0,940.0,-3222.0,-331.0,1476.0,-1586.0,-2584.0,0.342897,0.864219,0.368004,7290.0,5910.0,5480.0,-317.0,219.0,1147.0
2863.0,2778.0,2855.0,3059.0,2991.0,0.827209,0.503479,-0.245911,-0.041199,7.0,14.0,50.0,3675.0,3566.0,2773.0,682.0,-3423.0,-274.0,1334.0,-1668.0,-2773.0,0.365354,0.853228,0.37201,6968.0,6948.0,5828.0,176.0,341.0,1151.0
2863.0,2768.0,2864.0,3071.0,2991.0,0.827576,0.502319,-0.248901,-0.027527,15.0,20.0,46.0,3500.0,3898.0,2889.0,351.0,-3025.0,-153.0,992.0,-1472.0,-2478.0,0.384315,0.845117,0.371363,6464.0,9394.0,6226.0,353.0,477.0,1063.0
2843.0,2759.0,2843.0,3059.0,2995.0,0.827759,0.502075,-0.249451,-0.021057,13.0,23.0,41.0,3417.0,4212.0,2969.0,207.0,-2683.0,-72.0,790.0,-1327.0,-2203.0,0.391825,0.8417,0.371323,6340.0,10412.0,6382.0,312.0,540.0,956.0
2857.0,2743.0,2839.0,3071.0,2979.0,0.828979,0.500732,-0.248718,-0.010254,1.0,26.0,30.0,3251.0,4930.0,3103.0,-42.0,-1912.0,33.0,393.0,-968.0,-1601.0,0.402096,0.835294,0.374718,5958.0,12010.0,6526.0,25.0,602.0,710.0
2847.0,2759.0,2851.0,3071.0,2971.0,0.830261,0.499268,-0.24762,-0.006042,-8.0,25.0,25.0,3132.0,5277.0,3129.0,-186.0,-1539.0,25.0,191.0,-744.0,-1346.0,0.405144,0.832038,0.378787,5466.0,12648.0,6350.0,-164.0,586.0,589.0
2855.0,2750.0,2831.0,3095.0,3006.0,0.834045,0.494263,-0.244995,-0.000793,-27.0,20.0,15.0,2835.0,5812.0,3132.0,-506.0,-945.0,-73.0,-187.0,-299.0,-1014.0,0.40789,0.824864,0.391314,4742.0,12804.0,6184.0,-605.0,463.0,363.0
2851.0,2743.0,2850.0,3071.0,2975.0,0.836609,0.490662,-0.243591,0.000305,-35.0,17.0,10.0,2666.0,5932.0,3087.0,-675.0,-792.0,-188.0,-328.0,-95.0,-1000.0,0.407881,0.820835,0.399829,4304.0,12424.0,5866.0,-787.0,395.0,244.0
2862.0,2734.0,2811.0,3047.0,3021.0,0.842163,0.482727,-0.240234,0.0,-41.0,14.0,-2.0,2335.0,5854.0,2978.0,-979.0,-806.0,-450.0,-496.0,162.0,-1239.0,0.404633,0.81307,0.418501,3752.0,11162.0,5856.0,-923.0,335.0,-38.0
2859.0,2757.0,2815.0,3061.0,2957.0,0.844971,0.478882,-0.237915,-0.001099,-40.0,15.0,-9.0,2173.0,5721.0,2958.0,-1112.0,-912.0,-548.0,-558.0,205.0,-1419.0,0.40101,0.809805,0.428045,3308.0,10600.0,5802.0,-898.0,363.0,-189.0
2847.0,2751.0,2847.0,3087.0,2975.0,0.850098,0.472839,-0.231628,-0.004822,-30.0,18.0,-20.0,1749.0,5308.0,2906.0,-1439.0,-1296.0,-743.0,-715.0,206.0,-1935.0,0.389254,0.806153,0.44546,2210.0,9052.0,5674.0,-686.0,419.0,-447.0
2865.0,2786.0,2821.0,3059.0,3007.0,0.852112,0.471069,-0.227966,-0.006897,-21.0,18.0,-23.0,1489.0,5090.0,2861.0,-1640.0,-1512.0,-843.0,-829.0,204.0,-2226.0,0.382008,0.805952,0.452267,1310.0,8998.0,5336.0,-471.0,429.0,-515.0
2851.0,2757.0,2850.0,3071.0,2965.0,0.85376,0.471497,-0.22052,-0.011169,2.0,13.0,-24.0,871.0,4937.0,2739.0,-2127.0,-1698.0,-1013.0,-1206.0,350.0,-2617.0,0.36601,0.810016,0.458092,0.0,9888.0,5290.0,64.0,314.0,-541.0
2865.0,2783.0,2859.0,3063.0,2975.0,0.853455,0.473511,-0.217224,-0.013184,14.0,10.0,-23.0,586.0,5027.0,2731.0,-2349.0,-1641.0,-1014.0,-1437.0,445.0,-2640.0,0.358297,0.813967,0.45716,-528.0,10818.0,5534.0,322.0,233.0,-524.0
2863.0,2785.0,2859.0,3063.0,3007.0,0.850647,0.481018,-0.211365,-0.017334,31.0,3.0,-24.0,75.0,5439.0,2733.0,-2734.0,-1324.0,-935.0,-1905.0,684.0,-2449.0,0.342918,0.825681,0.447847,-1160.0,12220.0,5530.0,723.0,70.0,-544.0
2847.0,2768.0,2847.0,3087.0,2960.0,0.848511,0.485779,-0.208801,-0.019592,36.0,0.0,-25.0,-117.0,5684.0,2767.0,-2863.0,-1136.0,-843.0,-2103.0,765.0,-2277.0,0.335305,0.832559,0.440775,-1418.0,12844.0,5628.0,847.0,18.0,-568.0
2847.0,2763.0,2864.0,3051.0,2967.0,0.842712,0.49762,-0.203735,-0.024658,49.0,-4.0,-28.0,-506.0,6125.0,2747.0,-3117.0,-827.0,-707.0,-2460.0,931.0,-1993.0,0.31884,0.848748,0.421639,-2106.0,13352.0,5506.0,1145.0,-73.0,-637.0
2863.0,2789.0,2864.0,3047.0,2986.0,0.835327,0.511414,-0.199402,-0.030212,59.0,-8.0,-30.0,-762.0,6563.0,2800.0,-3237.0,-534.0,-455.0,-2726.0,953.0,-1621.0,0.302229,0.866444,0.397379,-2228.0,14664.0,5750.0,1355.0,-181.0,-665.0
2877.0,2787.0,2815.0,3055.0,2983.0,0.831177,0.518616,-0.197449,-0.033386,59.0,-12.0,-30.0,-887.0,6862.0,2829.0,-3292.0,-308.0,-316.0,-2867.0,983.0,-1357.0,0.2936,0.875307,0.384021,-2504.0,15598.0,5830.0,1364.0,-253.0,-684.0
2863.0,2772.0,2839.0,3059.0,2959.0,0.822327,0.53302,-0.194519,-0.041443,57.0,-23.0,-36.0,-1152.0,7564.0,2724.0,-3410.0,250.0,-192.0,-3104.0,1211.0,-785.0,0.275737,0.892756,0.355991,-3094.0,17638.0,4982.0,1326.0,-510.0,-802.0
2863.0,2763.0,2807.0,3063.0,2941.0,0.817627,0.5401,-0.193726,-0.046875,54.0,-30.0,-39.0,-1264.0,8170.0,2650.0,-3444.0,786.0,-147.0,-3220.0,1435.0,-258.0,0.266156,0.901363,0.341473,-3120.0,20246.0,4918.0,1237.0,-687.0,-880.0
2855.0,2745.0,2815.0,3087.0,2994.0,0.809631,0.550781,-0.193237,-0.061035,23.0,-43.0,-46.0,-1160.0,9656.0,2611.0,-3172.0,2156.0,1.0,-3157.0,1819.0,1194.0,0.245668,0.915448,0.318528,-1398.0,23524.0,5070.0,544.0,-969.0,-1034.0
2890.0,2741.0,2815.0,3071.0,2983.0,0.805237,0.554871,-0.193726,-0.078125,-4.0,-47.0,-49.0,-692.0,10258.0,2295.0,-2537.0,2689.0,-237.0,-2460.0,2069.0,1839.0,0.225291,0.923874,0.309099,374.0,20712.0,3168.0,-80.0,-1060.0,-1112.0
2859.0,2757.0,2855.0,3056.0,2973.0,0.803406,0.55603,-0.194458,-0.086487,-3.0,-46.0,-47.0,-360.0,10099.0,2061.0,-2131.0,2504.0,-445.0,-1949.0,2057.0,1724.0,0.216279,0.927072,0.305957,1354.0,18860.0,2754.0,-66.0,-1046.0,-1071.0
2854.0,2753.0,2864.0,3071.0,2995.0,0.798096,0.560547,-0.196899,-0.100098,20.0,-39.0,-37.0,339.0,9497.0,1612.0,-1316.0,1844.0,-796.0,-960.0,1829.0,1222.0,0.20207,0.934158,0.293994,2748.0,17318.0,2050.0,478.0,-880.0,-826.0
2869.0,2767.0,2845.0,3067.0,2993.0,0.789734,0.569519,-0.200684,-0.10791,47.0,-29.0,-22.0,963.0,9196.0,1342.0,-626.0,1472.0,-875.0,-261.0,1481.0,1029.0,0.194059,0.942849,0.270698,3538.0,18168.0,1956.0,1083.0,-650.0,-483.0
2863.0,2791.0,2830.0,3059.0,2987.0,0.784668,0.575317,-0.20282,-0.109863,55.0,-24.0,-16.0,1180.0,9313.0,1238.0,-391.0,1551.0,-856.0,-63.0,1380.0,1175.0,0.19188,0.947431,0.255648,3570.0,19614.0,1904.0,1278.0,-547.0,-353.0
2865.0,2758.0,2843.0,3071.0,2963.0,0.774292,0.587402,-0.206848,-0.112244,54.0,-20.0,-11.0,1500.0,9987.0,1144.0,-43.0,2154.0,-693.0,126.0,1229.0,1895.0,0.188457,0.956077,0.224299,3894.0,22404.0,2230.0,1238.0,-451.0,-238.0
2855.0,2767.0,2877.0,3071.0,2975.0,0.769836,0.592285,-0.20874,-0.113403,43.0,-20.0,-11.0,1671.0,10360.0,1157.0,138.0,2501.0,-572.0,201.0,1117.0,2304.0,0.187057,0.959269,0.211134,4420.0,22856.0,2400.0,1007.0,-442.0,-233.0
2859.0,2775.0,2853.0,3071.0,2959.0,0.763794,0.598389,-0.212036,-0.116394,19.0,-19.0,-11.0,2101.0,10766.0,1198.0,588.0,2873.0,-390.0,481.0,821.0,2800.0,0.184606,0.963451,0.1939,5578.0,22120.0,2400.0,439.0,-433.0,-238.0
2859.0,2767.0,2854.0,3071.0,2959.0,0.762085,0.59967,-0.213562,-0.118103,8.0,-19.0,-10.0,2343.0,10788.0,1190.0,836.0,2887.0,-362.0,685.0,677.0,2869.0,0.183859,0.964444,0.189508,6158.0,21584.0,2342.0,205.0,-420.0,-224.0
2863.0,2757.0,2823.0,3063.0,2975.0,0.76062,0.599854,-0.216553,-0.121277,-6.0,-16.0,-7.0,2835.0,10505.0,1153.0,1328.0,2599.0,-375.0,1146.0,384.0,2682.0,0.183932,0.965047,0.186532,7304.0,19518.0,2206.0,-115.0,-351.0,-146.0
2855.0,2769.0,2851.0,3071.0,2960.0,0.760498,0.599243,-0.21814,-0.12207,-6.0,-12.0,-3.0,3139.0,10186.0,1168.0,1619.0,2283.0,-360.0,1415.0,160.0,2435.0,0.18549,0.964703,0.186581,8130.0,18376.0,2498.0,-130.0,-260.0,-46.0
2855.0,2767.0,2833.0,3071.0,3003.0,0.760498,0.598389,-0.221375,-0.120422,2.0,-1.0,8.0,3643.0,9683.0,1234.0,2065.0,1790.0,-287.0,1794.0,-223.0,2068.0,0.192591,0.963464,0.185783,8536.0,18342.0,2610.0,47.0,-6.0,202.0
2881.0,2773.0,2827.0,3059.0,2983.0,0.760437,0.598328,-0.222961,-0.118164,4.0,4.0,14.0,3825.0,9606.0,1289.0,2205.0,1719.0,-222.0,1881.0,-354.0,2049.0,0.197695,0.962673,0.184519,8714.0,18894.0,2952.0,98.0,93.0,321.0
2863.0,2768.0,2835.0,3057.0,2983.0,0.761292,0.597229,-0.226318,-0.111694,-2.0,8.0,24.0,4172.0,9541.0,1505.0,2442.0,1677.0,-3.0,1964.0,-634.0,2124.0,0.211174,0.959888,0.184138,9388.0,18750.0,3818.0,-42.0,205.0,559.0
2859.0,2759.0,2833.0,3071.0,2981.0,0.762451,0.595764,-0.228271,-0.107788,-7.0,9.0,28.0,4332.0,9434.0,1632.0,2532.0,1588.0,109.0,1986.0,-774.0,2097.0,0.219659,0.957692,0.185907,9622.0,18166.0,3994.0,-148.0,226.0,657.0
2858.0,2759.0,2834.0,3071.0,2975.0,0.765808,0.591125,-0.232727,-0.099304,-16.0,9.0,34.0,4673.0,9168.0,1875.0,2714.0,1372.0,296.0,2057.0,-1027.0,2011.0,0.239046,0.951599,0.192732,10354.0,17418.0,4528.0,-345.0,210.0,791.0
2864.0,2763.0,2833.0,3063.0,2960.0,0.768188,0.587769,-0.235291,-0.094971,-23.0,8.0,37.0,4832.0,8990.0,2038.0,2785.0,1226.0,413.0,2070.0,-1174.0,1939.0,0.249853,0.947725,0.198299,10594.0,16892.0,5126.0,-504.0,196.0,860.0
2855.0,2763.0,2859.0,3055.0,2975.0,0.774963,0.577881,-0.240784,-0.086365,-42.0,7.0,43.0,4975.0,8501.0,2318.0,2735.0,822.0,547.0,1999.0,-1333.0,1636.0,0.27338,0.937263,0.216104,10028.0,15042.0,5252.0,-950.0,162.0,999.0
2864.0,2779.0,2851.0,3071.0,2949.0,0.779297,0.571411,-0.243713,-0.082214,-50.0,6.0,46.0,4955.0,8060.0,2390.0,2612.0,435.0,520.0,1954.0,-1359.0,1270.0,0.285894,0.930671,0.228156,9704.0,13330.0,5152.0,-1143.0,142.0,1064.0
2855.0,2767.0,2847.0,3057.0,2987.0,0.788757,0.556702,-0.249878,-0.073792,-57.0,6.0,50.0,4796.0,6944.0,2422.0,2239.0,-552.0,331.0,1866.0,-1365.0,277.0,0.312026,0.915083,0.255228,9050.0,10330.0,4924.0,-1303.0,139.0,1152.0
2867.0,2774.0,2823.0,3063.0,2967.0,0.793518,0.549011,-0.25293,-0.069397,-57.0,7.0,50.0,4711.0,6316.0,2439.0,2046.0,-1109.0,234.0,1838.0,-1418.0,-276.0,0.325209,0.906406,0.2691,8982.0,8796.0,5058.0,-1297.0,172.0,1168.0
2855.0,2755.0,2829.0,3069.0,2975.0,0.802734,0.534119,-0.258301,-0.059692,-50.0,13.0,51.0,4588.0,5073.0,2502.0,1713.0,-2204.0,77.0,1832.0,-1631.0,-1333.0,0.350928,0.888348,0.295944,8746.0,6646.0,5128.0,-1123.0,314.0,1176.0
2865.0,2754.0,2834.0,3071.0,2966.0,0.810486,0.521423,-0.262268,-0.04834,-36.0,21.0,50.0,4480.0,4132.0,2566.0,1410.0,-2999.0,-43.0,1814.0,-1814.0,-2096.0,0.374718,0.870568,0.318557,8766.0,5874.0,5416.0,-815.0,494.0,1151.0
2863.0,2767.0,2822.0,3071.0,2964.0,0.813904,0.516052,-0.26355,-0.042053,-30.0,25.0,49.0,4423.0,3839.0,2590.0,1264.0,-3224.0,-100.0,1787.0,-1843.0,-2325.0,0.385605,0.8622,0.328439,8442.0,6164.0,5248.0,-667.0,595.0,1128.0
2866.0,2765.0,2846.0,3059.0,2997.0,0.819397,0.507568,-0.264648,-0.029114,-17.0,31.0,44.0,4306.0,3502.0,2548.0,995.0,-3438.0,-274.0,1740.0,-1751.0,-2604.0,0.40415,0.84721,0.344595,8454.0,6276.0,5014.0,-373.0,731.0,1023.0
2849.0,2754.0,2851.0,3062.0,2969.0,0.821594,0.504456,-0.264526,-0.0224,-11.0,35.0,42.0,4280.0,3471.0,2559.0,904.0,-3416.0,-316.0,1706.0,-1690.0,-2610.0,0.412067,0.840766,0.351069,8392.0,6946.0,5226.0,-230.0,805.0,967.0
2870.0,2763.0,2833.0,3071.0,2965.0,0.825195,0.499817,-0.262817,-0.009399,-6.0,38.0,36.0,4101.0,3789.0,2505.0,624.0,-3008.0,-461.0,1485.0,-1299.0,-2398.0,0.424355,0.829834,0.362146,7472.0,8988.0,4700.0,-125.0,871.0,834.0
2863.0,2782.0,2835.0,3063.0,2975.0,0.826843,0.497925,-0.261475,-0.003601,-7.0,36.0,32.0,3980.0,4032.0,2458.0,467.0,-2728.0,-551.0,1337.0,-1046.0,-2253.0,0.428811,0.825295,0.367385,7248.0,9472.0,4676.0,-141.0,844.0,749.0
2858.0,2778.0,2835.0,3071.0,2987.0,0.829956,0.494202,-0.258545,0.006653,-8.0,34.0,28.0,3720.0,4361.0,2479.0,150.0,-2330.0,-615.0,1010.0,-721.0,-2070.0,0.435738,0.816891,0.377791,6482.0,9402.0,5194.0,-166.0,785.0,644.0
2851.0,2764.0,2835.0,3071.0,2963.0,0.831482,0.492371,-0.256958,0.011414,-7.0,33.0,27.0,3523.0,4402.0,2557.0,-69.0,-2257.0,-580.0,795.0,-667.0,-2087.0,0.438551,0.812929,0.383036,5810.0,8940.0,5668.0,-159.0,761.0,623.0
2847.0,2763.0,2834.0,3059.0,2963.0,0.83429,0.489136,-0.253418,0.020264,-2.0,31.0,23.0,3026.0,4296.0,2781.0,-600.0,-2305.0,-438.0,303.0,-709.0,-2295.0,0.442671,0.805891,0.392975,4336.0,8010.0,6248.0,-38.0,719.0,541.0
2861.0,2774.0,2851.0,3071.0,2979.0,0.835327,0.488281,-0.251343,0.024292,4.0,29.0,20.0,2717.0,4231.0,2912.0,-917.0,-2351.0,-338.0,6.0,-759.0,-2430.0,0.44363,0.803538,0.39677,3538.0,8136.0,6640.0,96.0,675.0,464.0
2857.0,2755.0,2838.0,3067.0,2983.0,0.835876,0.489319,-0.246765,0.030457,18.0,21.0,9.0,1965.0,4432.0,3077.0,-1658.0,-2146.0,-193.0,-751.0,-637.0,-2533.0,0.442336,0.802989,0.399291,1600.0,10150.0,6490.0,415.0,489.0,223.0
2847.0,2755.0,2821.0,3058.0,2971.0,0.835266,0.491394,-0.244446,0.032166,23.0,14.0,3.0,1622.0,4709.0,3117.0,-1982.0,-1886.0,-139.0,-1134.0,-485.0,-2445.0,0.439966,0.805164,0.397482,1250.0,11338.0,6446.0,547.0,343.0,75.0
2875.0,2771.0,2838.0,3059.0,2975.0,0.832886,0.497559,-0.240051,0.032349,28.0,3.0,-11.0,1094.0,5390.0,3011.0,-2445.0,-1272.0,-180.0,-1719.0,-35.0,-2161.0,0.432061,0.813288,0.389556,858.0,12872.0,5456.0,656.0,84.0,-247.0
2883.0,2757.0,2846.0,3063.0,2991.0,0.83136,0.50116,-0.238037,0.030945,26.0,-1.0,-17.0,922.0,5729.0,2931.0,-2574.0,-976.0,-217.0,-1914.0,181.0,-1980.0,0.426806,0.818556,0.384294,908.0,13452.0,5398.0,601.0,-20.0,-369.0
2867.0,2783.0,2825.0,3067.0,2979.0,0.828369,0.508423,-0.233643,0.025269,21.0,-7.0,-30.0,536.0,6451.0,2601.0,-2845.0,-352.0,-460.0,-2265.0,780.0,-1638.0,0.412779,0.830516,0.373751,-134.0,14896.0,3926.0,491.0,-151.0,-676.0
2862.0,2743.0,2819.0,3047.0,2963.0,0.826843,0.512146,-0.231323,0.020813,18.0,-11.0,-36.0,363.0,6805.0,2417.0,-2945.0,-54.0,-600.0,-2395.0,1084.0,-1455.0,0.403855,0.8373,0.368299,-286.0,15842.0,3712.0,420.0,-243.0,-812.0
2839.0,2739.0,2837.0,3031.0,2993.0,0.823914,0.519287,-0.226746,0.009155,9.0,-19.0,-45.0,46.0,7684.0,1987.0,-3092.0,708.0,-944.0,-2607.0,1819.0,-919.0,0.383146,0.851544,0.357845,-620.0,17896.0,2822.0,218.0,-413.0,-1030.0
2867.0,2755.0,2827.0,3055.0,2931.0,0.821899,0.524414,-0.222168,-0.004578,-3.0,-17.0,-48.0,10.0,8322.0,1827.0,-2942.0,1243.0,-1049.0,-2543.0,2168.0,-354.0,0.360398,0.864065,0.351171,18.0,18052.0,3286.0,-56.0,-379.0,-1099.0
2861.0,2757.0,2834.0,3047.0,2991.0,0.821411,0.526306,-0.21936,-0.011414,-5.0,-13.0,-50.0,1.0,8402.0,1752.0,-2852.0,1277.0,-1112.0,-2433.0,2237.0,-271.0,0.348356,0.869635,0.349729,-78.0,16990.0,3040.0,-104.0,-285.0,-1131.0
2871.0,2797.0,2827.0,3103.0,2992.0,0.819763,0.531128,-0.212646,-0.023926,8.0,-5.0,-50.0,-33.0,8177.0,1575.0,-2680.0,960.0,-1253.0,-2144.0,2206.0,-453.0,0.323224,0.880974,0.345269,-278.0,15374.0,2482.0,203.0,-110.0,-1138.0
2864.0,2719.0,2841.0,3031.0,2993.0,0.817932,0.535034,-0.209229,-0.029175,21.0,-5.0,-46.0,-84.0,8040.0,1464.0,-2632.0,769.0,-1319.0,-2039.0,2180.0,-584.0,0.31105,0.887452,0.339826,-454.0,15372.0,2388.0,483.0,-94.0,-1049.0
2845.0,2755.0,2823.0,3059.0,2994.0,0.812012,0.545471,-0.203979,-0.037231,40.0,-8.0,-34.0,-163.0,8183.0,1483.0,-2544.0,801.0,-1151.0,-2026.0,2044.0,-387.0,0.29065,0.901047,0.321603,-526.0,17594.0,3326.0,928.0,-179.0,-759.0
2859.0,2789.0,2855.0,3055.0,2983.0,0.808472,0.551086,-0.202271,-0.04071,41.0,-12.0,-30.0,-222.0,8450.0,1530.0,-2533.0,1015.0,-1015.0,-2099.0,2014.0,-108.0,0.28219,0.907545,0.310674,-774.0,18642.0,3332.0,960.0,-261.0,-665.0
2853.0,2772.0,2863.0,3088.0,2983.0,0.801697,0.561096,-0.200073,-0.048035,33.0,-18.0,-28.0,-230.0,8960.0,1707.0,-2416.0,1432.0,-670.0,-2171.0,1841.0,476.0,0.266892,0.918879,0.290167,-258.0,19120.0,4008.0,763.0,-410.0,-625.0
2861.0,2772.0,2831.0,3071.0,2969.0,0.796387,0.568359,-0.19873,-0.056885,20.0,-23.0,-31.0,-124.0,9138.0,1794.0,-2187.0,1536.0,-458.0,-2033.0,1630.0,748.0,0.251871,0.927877,0.274942,154.0,18340.0,3604.0,469.0,-522.0,-704.0
2851.0,2768.0,2821.0,3059.0,2970.0,0.794006,0.571289,-0.198242,-0.061951,18.0,-26.0,-34.0,-34.0,9070.0,1780.0,-2033.0,1436.0,-420.0,-1879.0,1518.0,729.0,0.244028,0.931777,0.268613,520.0,17664.0,3442.0,413.0,-579.0,-764.0
2863.0,2787.0,2813.0,3071.0,2959.0,0.789124,0.576843,-0.197937,-0.072937,18.0,-30.0,-37.0,246.0,8911.0,1722.0,-1623.0,1216.0,-376.0,-1467.0,1282.0,675.0,0.228247,0.939275,0.256109,1510.0,17576.0,3186.0,433.0,-680.0,-840.0
2863.0,2793.0,2831.0,3063.0,2975.0,0.786377,0.579773,-0.19812,-0.078491,20.0,-32.0,-37.0,456.0,8907.0,1689.0,-1350.0,1182.0,-352.0,-1211.0,1159.0,729.0,0.22058,0.942942,0.249161,2274.0,17800.0,3196.0,471.0,-716.0,-837.0
2853.0,2783.0,2826.0,3071.0,2973.0,0.780334,0.585999,-0.199463,-0.088318,26.0,-30.0,-31.0,1011.0,8953.0,1680.0,-691.0,1172.0,-233.0,-640.0,810.0,915.0,0.207787,0.949782,0.233542,3714.0,18228.0,3302.0,617.0,-674.0,-695.0
2867.0,2757.0,2851.0,3067.0,2992.0,0.777039,0.589417,-0.200623,-0.092163,30.0,-29.0,-26.0,1283.0,9058.0,1672.0,-381.0,1251.0,-168.0,-389.0,652.0,1077.0,0.203138,0.952979,0.224622,4190.0,18808.0,3312.0,701.0,-645.0,-580.0
2865.0,2766.0,2838.0,3071.0,2997.0,0.770081,0.596313,-0.204102,-0.098083,33.0,-29.0,-17.0,1811.0,9458.0,1702.0,194.0,1606.0,19.0,17.0,339.0,1581.0,0.197372,0.958457,0.205397,5158.0,20376.0,3650.0,776.0,-646.0,-384.0
2866.0,2771.0,2855.0,3066.0,3027.0,0.766785,0.599365,-0.20636,-0.100647,30.0,-30.0,-14.0,2048.0,9735.0,1745.0,443.0,1864.0,137.0,162.0,188.0,1904.0,0.195819,0.960707,0.196265,5522.0,21136.0,3758.0,696.0,-685.0,-313.0
2853.0,2781.0,2831.0,3069.0,2975.0,0.761597,0.603088,-0.212036,-0.105896,15.0,-35.0,-10.0,2556.0,10113.0,1846.0,956.0,2219.0,350.0,481.0,-149.0,2388.0,0.195243,0.963528,0.182569,6768.0,21028.0,4028.0,366.0,-784.0,-229.0
2883.0,2775.0,2832.0,3067.0,2975.0,0.759888,0.603638,-0.215149,-0.108704,7.0,-36.0,-9.0,2826.0,10204.0,1905.0,1222.0,2305.0,442.0,659.0,-333.0,2540.0,0.195743,0.964169,0.178578,7222.0,20876.0,4116.0,180.0,-806.0,-198.0
2850.0,2768.0,2849.0,3063.0,2963.0,0.758362,0.602234,-0.221741,-0.114014,-8.0,-34.0,-5.0,3374.0,10130.0,1976.0,1743.0,2233.0,532.0,1064.0,-670.0,2593.0,0.198994,0.963985,0.176257,8554.0,19716.0,4280.0,-166.0,-762.0,-102.0
2875.0,2767.0,2827.0,3071.0,2975.0,0.759277,0.598022,-0.228088,-0.11731,-16.0,-24.0,3.0,3926.0,9689.0,2090.0,2237.0,1811.0,610.0,1474.0,-1064.0,2312.0,0.206057,0.961644,0.180608,9282.0,17496.0,4350.0,-360.0,-534.0,76.0
2863.0,2765.0,2842.0,3071.0,2989.0,0.760254,0.595642,-0.230896,-0.117737,-15.0,-17.0,6.0,4131.0,9381.0,2122.0,2403.0,1516.0,616.0,1631.0,-1217.0,2075.0,0.210821,0.960048,0.183746,9418.0,16990.0,4450.0,-343.0,-379.0,156.0
2861.0,2773.0,2833.0,3071.0,2979.0,0.762451,0.591187,-0.235535,-0.116455,-14.0,-7.0,11.0,4388.0,8933.0,2138.0,2573.0,1098.0,582.0,1817.0,-1365.0,1730.0,0.221474,0.95636,0.189915,9456.0,16884.0,4408.0,-313.0,-146.0,274.0
2859.0,2743.0,2826.0,3069.0,2991.0,0.763916,0.588806,-0.237549,-0.115112,-17.0,-4.0,14.0,4490.0,8810.0,2210.0,2627.0,992.0,623.0,1847.0,-1445.0,1664.0,0.227377,0.954286,0.193696,9538.0,16970.0,4890.0,-372.0,-78.0,332.0
2863.0,2736.0,2827.0,3071.0,2987.0,0.768066,0.582458,-0.241333,-0.111938,-27.0,-2.0,18.0,4591.0,8504.0,2234.0,2622.0,731.0,554.0,1893.0,-1437.0,1437.0,0.240321,0.948763,0.204957,9502.0,15708.0,4492.0,-607.0,-29.0,422.0
2863.0,2775.0,2847.0,3071.0,2961.0,0.77063,0.578552,-0.243347,-0.110168,-31.0,-1.0,20.0,4667.0,8235.0,2223.0,2638.0,490.0,485.0,1962.0,-1447.0,1219.0,0.247585,0.945318,0.212067,9834.0,14758.0,4330.0,-693.0,-21.0,481.0
2863.0,2779.0,2846.0,3063.0,2981.0,0.776367,0.569763,-0.247803,-0.105591,-35.0,2.0,27.0,4845.0,7631.0,2138.0,2678.0,-45.0,271.0,2157.0,-1435.0,727.0,0.264448,0.937022,0.227859,10132.0,13478.0,3840.0,-789.0,48.0,634.0
2853.0,2763.0,2827.0,3069.0,2961.0,0.779419,0.565125,-0.250061,-0.1026,-36.0,5.0,30.0,4919.0,7315.0,2064.0,2675.0,-321.0,129.0,2258.0,-1400.0,463.0,0.273841,0.93225,0.236124,10250.0,12818.0,3700.0,-807.0,115.0,707.0
2866.0,2768.0,2850.0,3058.0,2983.0,0.785828,0.555725,-0.254089,-0.094849,-34.0,14.0,36.0,5013.0,6689.0,1941.0,2605.0,-860.0,-132.0,2402.0,-1328.0,-60.0,0.293921,0.921608,0.25313,10226.0,11486.0,3692.0,-761.0,332.0,842.0
2863.0,2775.0,2839.0,3067.0,2979.0,0.789124,0.551208,-0.255615,-0.089966,-32.0,20.0,38.0,4997.0,6389.0,1902.0,2504.0,-1114.0,-241.0,2413.0,-1281.0,-321.0,0.304244,0.915936,0.26164,9854.0,11016.0,3618.0,-715.0,467.0,893.0
2867.0,2773.0,2847.0,3071.0,2987.0,0.795471,0.542969,-0.257202,-0.078552,-26.0,30.0,41.0,4899.0,5829.0,1854.0,2245.0,-1578.0,-423.0,2372.0,-1187.0,-817.0,0.323891,0.90424,0.277977,9378.0,10186.0,3560.0,-587.0,704.0,940.0
2855.0,2767.0,2851.0,3067.0,2979.0,0.798523,0.539307,-0.257324,-0.072327,-23.0,34.0,40.0,4821.0,5627.0,1868.0,2093.0,-1733.0,-473.0,2305.0,-1139.0,-995.0,0.332946,0.89852,0.285803,9148.0,10088.0,3940.0,-514.0,785.0,939.0
2865.0,2767.0,2833.0,3071.0,2963.0,0.804382,0.53241,-0.256775,-0.059448,-21.0,37.0,41.0,4579.0,5307.0,1944.0,1713.0,-1959.0,-523.0,2072.0,-1034.0,-1296.0,0.349789,0.887051,0.301172,8356.0,9746.0,4240.0,-467.0,865.0,945.0
2861.0,2758.0,2846.0,3059.0,2975.0,0.810181,0.525513,-0.255493,-0.046509,-20.0,38.0,40.0,4263.0,5031.0,2148.0,1272.0,-2139.0,-449.0,1721.0,-1014.0,-1550.0,0.365109,0.875286,0.317115,7504.0,9236.0,4980.0,-447.0,886.0,937.0
2841.0,2779.0,2843.0,3055.0,2987.0,0.812927,0.522156,-0.254639,-0.040222,-18.0,38.0,39.0,4072.0,4895.0,2218.0,1024.0,-2227.0,-444.0,1536.0,-976.0,-1699.0,0.372001,0.869434,0.324981,7004.0,8948.0,4768.0,-404.0,880.0,905.0
2847.0,2767.0,2834.0,3067.0,2991.0,0.817505,0.516724,-0.252563,-0.028137,-11.0,36.0,36.0,3735.0,4718.0,2381.0,590.0,-2319.0,-390.0,1184.0,-933.0,-1897.0,0.383865,0.859061,0.338314,6310.0,8904.0,5032.0,-238.0,846.0,833.0
2864.0,2767.0,2853.0,3071.0,2975.0,0.819275,0.514771,-0.251404,-0.022278,-5.0,36.0,35.0,3534.0,4650.0,2385.0,347.0,-2351.0,-429.0,1012.0,-847.0,-2021.0,0.389002,0.854679,0.343515,5904.0,8948.0,4752.0,-109.0,828.0,802.0
2858.0,2755.0,2834.0,3063.0,2973.0,0.821533,0.512695,-0.248962,-0.010803,3.0,33.0,32.0,3190.0,4857.0,2454.0,-70.0,-2087.0,-414.0,608.0,-623.0,-1942.0,0.397984,0.847772,0.350195,5340.0,10778.0,5174.0,88.0,769.0,749.0
2863.0,2775.0,2842.0,3063.0,2982.0,0.822449,0.512024,-0.247681,-0.005432,3.0,32.0,31.0,3009.0,5048.0,2523.0,-282.0,-1873.0,-368.0,362.0,-507.0,-1825.0,0.401847,0.844918,0.352937,4926.0,11246.0,5478.0,83.0,741.0,724.0
2864.0,2767.0,2847.0,3071.0,2987.0,0.824097,0.510681,-0.244934,0.004395,3.0,29.0,28.0,2611.0,5233.0,2642.0,-732.0,-1644.0,-293.0,-103.0,-361.0,-1784.0,0.408187,0.839549,0.358367,4016.0,10724.0,5742.0,91.0,666.0,663.0
2863.0,2765.0,2831.0,3071.0,2985.0,0.824707,0.510315,-0.24353,0.00885,6.0,26.0,26.0,2398.0,5289.0,2690.0,-966.0,-1571.0,-263.0,-334.0,-303.0,-1807.0,0.410715,0.83741,0.360492,3508.0,11010.0,5668.0,152.0,609.0,608.0
2863.0,2771.0,2835.0,3069.0,2983.0,0.824829,0.51123,-0.240845,0.015991,13.0,17.0,18.0,1905.0,5441.0,2701.0,-1483.0,-1404.0,-258.0,-829.0,-123.0,-1879.0,0.413662,0.835653,0.361236,2428.0,11622.0,5574.0,320.0,402.0,419.0
2855.0,2773.0,2839.0,3071.0,2987.0,0.82428,0.512573,-0.239685,0.01825,16.0,11.0,12.0,1646.0,5639.0,2646.0,-1744.0,-1211.0,-299.0,-1095.0,57.0,-1841.0,0.413844,0.836259,0.35959,1914.0,12498.0,4910.0,369.0,267.0,280.0
2863.0,2779.0,2853.0,3071.0,2993.0,0.822693,0.515686,-0.238281,0.019592,12.0,-2.0,3.0,1247.0,6164.0,2525.0,-2130.0,-710.0,-379.0,-1548.0,448.0,-1608.0,0.412271,0.839166,0.354497,1510.0,13824.0,4810.0,290.0,-24.0,91.0
2855.0,2768.0,2837.0,3069.0,2979.0,0.821899,0.517151,-0.237854,0.019226,9.0,-5.0,1.0,1061.0,6398.0,2454.0,-2304.0,-491.0,-428.0,-1746.0,633.0,-1510.0,0.41087,0.840946,0.351869,936.0,14162.0,4342.0,218.0,-107.0,23.0
2863.0,2769.0,2845.0,3071.0,2986.0,0.820251,0.520264,-0.236938,0.016113,7.0,-10.0,-9.0,674.0,6859.0,2208.0,-2647.0,-70.0,-628.0,-2095.0,1091.0,-1349.0,0.405465,0.845858,0.346258,222.0,15108.0,3592.0,178.0,-209.0,-195.0
2863.0,2767.0,2837.0,3067.0,2975.0,0.819397,0.522156,-0.236023,0.013672,7.0,-9.0,-14.0,531.0,7053.0,2132.0,-2754.0,95.0,-679.0,-2218.0,1245.0,-1256.0,0.401071,0.849252,0.343245,322.0,15130.0,3932.0,179.0,-201.0,-301.0
2863.0,2767.0,2842.0,3071.0,2989.0,0.817627,0.526489,-0.232849,0.008362,11.0,-4.0,-20.0,325.0,7265.0,2043.0,-2866.0,244.0,-719.0,-2350.0,1394.0,-1149.0,0.389572,0.85705,0.337174,14.0,14918.0,3774.0,267.0,-76.0,-453.0
2863.0,2769.0,2835.0,3063.0,2975.0,0.816467,0.529236,-0.230591,0.005676,15.0,-2.0,-23.0,217.0,7299.0,1994.0,-2916.0,240.0,-737.0,-2393.0,1429.0,-1154.0,0.382548,0.86159,0.333388,-260.0,14816.0,3694.0,364.0,-25.0,-510.0
2833.0,2763.0,2843.0,3067.0,2983.0,0.813416,0.536194,-0.225281,-0.000122,23.0,-2.0,-28.0,-50.0,7483.0,1895.0,-3051.0,336.0,-754.0,-2545.0,1538.0,-1068.0,0.366363,0.872352,0.32339,-958.0,15792.0,3356.0,542.0,-45.0,-627.0
2864.0,2768.0,2833.0,3062.0,2975.0,0.811523,0.540161,-0.222656,-0.00354,24.0,-6.0,-30.0,-157.0,7646.0,1873.0,-3086.0,451.0,-725.0,-2620.0,1582.0,-937.0,0.357557,0.878283,0.317233,-846.0,16246.0,3696.0,563.0,-118.0,-671.0
2863.0,2779.0,2847.0,3063.0,2975.0,0.807617,0.547791,-0.217957,-0.011963,20.0,-13.0,-35.0,-296.0,8030.0,1828.0,-3072.0,738.0,-668.0,-2697.0,1675.0,-588.0,0.338945,0.890025,0.304809,-848.0,17004.0,3380.0,462.0,-277.0,-793.0
2859.0,2772.0,2847.0,3071.0,2987.0,-0.017578,0.497375,0.111389,-1.21228,9012.0,-24873.0,15757.0,31144.0,-27697.0,-4858.0,-24546.0,-25341.0,-14771.0,-19096.0,-22383.0,18916.0,-1.202001,-0.287556,1.210142,-378.0,16692.0,3478.0,311.0,-414.0,-917.0
2864.0,2767.0,2833.0,3062.0,2987.0,0.802368,0.557068,-0.212158,-0.028564,11.0,-21.0,-43.0,-203.0,8219.0,1785.0,-2731.0,796.0,-584.0,-2414.0,1586.0,-290.0,0.308633,0.906067,0.289275,8.0,16534.0,3508.0,270.0,-471.0,-972.0
2862.0,2759.0,2838.0,3063.0,2983.0,0.799072,0.562195,-0.208862,-0.04126,9.0,-24.0,-47.0,-8.0,8124.0,1763.0,-2362.0,622.0,-535.0,-2049.0,1408.0,-259.0,0.2874,0.915704,0.280532,706.0,15682.0,3616.0,207.0,-530.0,-1055.0
2862.0,2767.0,2834.0,3057.0,2975.0,0.795654,0.567078,-0.205933,-0.054199,11.0,-25.0,-48.0,171.0,7901.0,1699.0,-2009.0,325.0,-529.0,-1668.0,1222.0,-378.0,0.266232,0.924718,0.272018,816.0,15006.0,3082.0,263.0,-564.0,-1081.0
2862.0,2767.0,2839.0,3063.0,2983.0,0.793457,0.569885,-0.204773,-0.06073,15.0,-27.0,-48.0,246.0,7802.0,1648.0,-1849.0,189.0,-535.0,-1495.0,1145.0,-439.0,0.255739,0.929231,0.266561,906.0,15132.0,2990.0,358.0,-614.0,-1083.0
2861.0,2778.0,2849.0,3063.0,2975.0,0.787903,0.576355,-0.203613,-0.074036,21.0,-35.0,-47.0,373.0,7961.0,1549.0,-1556.0,273.0,-520.0,-1230.0,1091.0,-241.0,0.235513,0.938373,0.252629,1240.0,17072.0,2970.0,485.0,-783.0,-1067.0
2862.0,2765.0,2843.0,3071.0,2975.0,0.784851,0.57959,-0.203613,-0.081055,20.0,-39.0,-48.0,446.0,8287.0,1502.0,-1402.0,563.0,-506.0,-1119.0,1130.0,90.0,0.225655,0.942791,0.245178,1270.0,18858.0,2622.0,461.0,-872.0,-1083.0
2862.0,2770.0,2837.0,3059.0,2975.0,0.779236,0.584534,-0.204041,-0.096924,3.0,-45.0,-53.0,681.0,9385.0,1379.0,-995.0,1598.0,-532.0,-803.0,1327.0,1191.0,0.204681,0.950532,0.233291,2386.0,22172.0,2494.0,80.0,-1013.0,-1204.0
2862.0,2774.0,2815.0,3071.0,2983.0,0.777405,0.58551,-0.203979,-0.105652,-8.0,-44.0,-56.0,885.0,9861.0,1320.0,-699.0,2050.0,-573.0,-525.0,1377.0,1686.0,0.193429,0.953459,0.231091,3074.0,22336.0,2274.0,-180.0,-991.0,-1274.0
2863.0,2770.0,2855.0,3071.0,2991.0,0.775208,0.585449,-0.202759,-0.122986,-19.0,-36.0,-59.0,1428.0,10312.0,1175.0,32.0,2467.0,-727.0,246.0,1311.0,2198.0,0.170356,0.957562,0.23221,4578.0,21224.0,1972.0,-430.0,-807.0,-1337.0
2861.0,2773.0,2847.0,3067.0,2992.0,0.10498,0.627869,0.06842,-1.21228,17539.0,-21705.0,-15562.0,2064.0,-9500.0,10421.0,14652.0,-9220.0,1559.0,-21153.0,14105.0,-20514.0,-1.536671,-0.034062,1.081744,5926.0,18858.0,2300.0,-324.0,-569.0,-1093.0
2863.0,2782.0,2847.0,3063.0,2971.0,0.772827,0.5849,-0.200684,-0.142395,-5.0,-20.0,-39.0,2298.0,9805.0,1160.0,1121.0,1930.0,-766.0,1322.0,669.0,1835.0,0.143614,0.961206,0.235156,6142.0,17672.0,2674.0,-98.0,-451.0,-882.0
2863.0,2763.0,2839.0,3071.0,2992.0,0.769409,0.58783,-0.201538,-0.147766,20.0,-14.0,-19.0,2627.0,9385.0,1463.0,1509.0,1486.0,-402.0,1500.0,33.0,1547.0,0.136408,0.964124,0.227664,5946.0,18376.0,4126.0,466.0,-298.0,-428.0
2863.0,2783.0,2847.0,3069.0,2978.0,0.76709,0.590088,-0.202881,-0.148682,26.0,-13.0,-11.0,2713.0,9396.0,1715.0,1600.0,1485.0,-96.0,1427.0,-281.0,1629.0,0.135785,0.96563,0.221169,5906.0,19022.0,5026.0,612.0,-285.0,-238.0
2864.0,2783.0,2847.0,3071.0,2981.0,0.762878,0.594177,-0.206665,-0.148987,24.0,-13.0,-1.0,2801.0,9745.0,2249.0,1668.0,1813.0,541.0,1151.0,-793.0,2098.0,0.138271,0.968151,0.208424,5820.0,20924.0,6016.0,571.0,-297.0,-20.0
2867.0,2768.0,2828.0,3067.0,2995.0,0.760742,0.595459,-0.21051,-0.149353,6.0,-14.0,0.0,2934.0,10134.0,2632.0,1767.0,2197.0,975.0,994.0,-1125.0,2577.0,0.142421,0.968862,0.202149,6380.0,21286.0,6130.0,158.0,-302.0,21.0
2864.0,2759.0,2839.0,3069.0,2989.0,0.760864,0.594543,-0.21228,-0.14978,-5.0,-14.0,1.0,3027.0,10190.0,2727.0,1839.0,2257.0,1065.0,1001.0,-1219.0,2668.0,0.144931,0.968325,0.202804,6650.0,20494.0,5912.0,-99.0,-303.0,35.0
2864.0,2767.0,2839.0,3071.0,2989.0,0.763428,0.589844,-0.215698,-0.150513,-22.0,-11.0,6.0,3279.0,9832.0,2790.0,2035.0,1922.0,1061.0,1168.0,-1374.0,2388.0,0.151782,0.965537,0.211035,7274.0,18008.0,5456.0,-491.0,-250.0,140.0
2861.0,2778.0,2859.0,3071.0,2991.0,0.76532,0.586792,-0.217468,-0.150452,-25.0,-9.0,9.0,3385.0,9437.0,2695.0,2104.0,1543.0,919.0,1303.0,-1376.0,2014.0,0.156298,0.963604,0.216733,7386.0,16208.0,4710.0,-550.0,-204.0,208.0
2861.0,2774.0,2850.0,3067.0,2975.0,0.768799,0.58136,-0.221497,-0.14801,-15.0,-3.0,18.0,3651.0,8556.0,2448.0,2270.0,696.0,597.0,1620.0,-1400.0,1185.0,0.168478,0.959465,0.225919,8062.0,14858.0,4026.0,-335.0,-57.0,427.0
2853.0,2779.0,2849.0,3071.0,2981.0,0.770142,0.579285,-0.223877,-0.145325,-10.0,0.0,24.0,3776.0,8251.0,2336.0,2330.0,408.0,463.0,1745.0,-1391.0,907.0,0.176465,0.957332,0.228546,8258.0,14884.0,3984.0,-224.0,19.0,566.0
2865.0,2770.0,2831.0,3071.0,2991.0,0.772827,0.575378,-0.229492,-0.137878,-9.0,2.0,36.0,3941.0,7919.0,2113.0,2334.0,115.0,207.0,1887.0,-1250.0,615.0,0.196051,0.95262,0.232545,8348.0,14974.0,3874.0,-200.0,60.0,833.0
2861.0,2771.0,2838.0,3071.0,2991.0,0.774475,0.572876,-0.232727,-0.133423,-12.0,2.0,41.0,4003.0,7762.0,2087.0,2302.0,-15.0,159.0,1889.0,-1225.0,501.0,0.207613,0.949459,0.235265,8336.0,14544.0,4032.0,-268.0,68.0,947.0
2863.0,2779.0,2843.0,3067.0,2987.0,0.778625,0.56665,-0.239319,-0.12384,-19.0,5.0,46.0,4081.0,7440.0,2070.0,2177.0,-274.0,77.0,1842.0,-1163.0,266.0,0.232331,0.941692,0.243228,8426.0,13886.0,4158.0,-427.0,137.0,1055.0
2867.0,2773.0,2834.0,3059.0,2975.0,0.78125,0.562866,-0.242249,-0.118713,-24.0,9.0,47.0,4133.0,7228.0,2046.0,2126.0,-447.0,6.0,1852.0,-1130.0,103.0,0.244874,0.936995,0.248942,8550.0,13158.0,3810.0,-542.0,219.0,1079.0
2859.0,2768.0,2843.0,3069.0,2967.0,0.78717,0.554688,-0.247131,-0.107666,-26.0,17.0,48.0,4250.0,6660.0,1934.0,2041.0,-929.0,-216.0,1951.0,-1064.0,-367.0,0.269627,0.926482,0.262477,8952.0,11714.0,3880.0,-587.0,392.0,1121.0
2866.0,2770.0,2832.0,3070.0,2983.0,0.790283,0.550537,-0.249084,-0.101501,-27.0,21.0,50.0,4286.0,6456.0,1915.0,1976.0,-1086.0,-294.0,1962.0,-1023.0,-522.0,0.281934,0.920725,0.269716,8676.0,11938.0,3746.0,-598.0,497.0,1151.0
2863.0,2771.0,2843.0,3057.0,2990.0,0.796997,0.541809,-0.251587,-0.088562,-31.0,29.0,49.0,4272.0,6032.0,1872.0,1772.0,-1407.0,-472.0,1939.0,-905.0,-872.0,0.305061,0.908203,0.286194,8454.0,10558.0,3624.0,-691.0,682.0,1143.0
2858.0,2771.0,2847.0,3045.0,2991.0,0.800598,0.537354,-0.252197,-0.081848,-30.0,33.0,49.0,4250.0,5738.0,1866.0,1662.0,-1648.0,-553.0,1930.0,-889.0,-1124.0,0.315855,0.901692,0.295304,8338.0,9638.0,3668.0,-682.0,761.0,1129.0
2855.0,2768.0,2847.0,3061.0,2965.0,0.80719,0.529114,-0.252625,-0.067749,-23.0,37.0,49.0,4183.0,5225.0,1895.0,1429.0,-2052.0,-663.0,1875.0,-878.0,-1549.0,0.336138,0.888421,0.312365,8074.0,9338.0,4050.0,-525.0,863.0,1139.0
2855.0,2759.0,2855.0,3067.0,2991.0,0.810181,0.525391,-0.252625,-0.060364,-21.0,38.0,50.0,4119.0,5092.0,1955.0,1285.0,-2131.0,-667.0,1784.0,-858.0,-1648.0,0.345914,0.881821,0.320182,7830.0,9514.0,4302.0,-472.0,875.0,1152.0
2865.0,2791.0,2855.0,3071.0,2983.0,0.815735,0.518372,-0.252502,-0.045532,-17.0,37.0,51.0,3960.0,4873.0,2112.0,972.0,-2243.0,-632.0,1554.0,-834.0,-1805.0,0.364745,0.868702,0.33503,7390.0,8962.0,4672.0,-380.0,870.0,1182.0
2868.0,2770.0,2849.0,3058.0,2971.0,0.82019,0.512451,-0.252441,-0.030212,-8.0,37.0,52.0,3733.0,4643.0,2232.0,594.0,-2368.0,-613.0,1285.0,-797.0,-2012.0,0.383135,0.855869,0.347292,6676.0,8922.0,4790.0,-167.0,854.0,1198.0
2871.0,2761.0,2832.0,3063.0,2991.0,0.821777,0.510376,-0.252319,-0.022583,-3.0,36.0,50.0,3583.0,4661.0,2284.0,374.0,-2304.0,-596.0,1094.0,-718.0,-2022.0,0.391649,0.850227,0.351679,6196.0,9602.0,4866.0,-46.0,826.0,1166.0
2864.0,2783.0,2834.0,3095.0,2986.0,0.823853,0.50769,-0.251831,-0.008301,4.0,32.0,45.0,3286.0,4986.0,2385.0,-44.0,-1901.0,-544.0,651.0,-456.0,-1810.0,0.406515,0.840705,0.357633,5710.0,11524.0,5074.0,99.0,736.0,1047.0
2855.0,2770.0,2864.0,3071.0,3007.0,0.824524,0.506897,-0.251404,-0.002014,4.0,29.0,41.0,3121.0,5318.0,2398.0,-258.0,-1537.0,-548.0,389.0,-222.0,-1589.0,0.412535,0.83691,0.359695,5250.0,12726.0,4866.0,97.0,670.0,951.0
2879.0,2765.0,2832.0,3057.0,2982.0,0.825867,0.505066,-0.250488,0.007812,-4.0,21.0,32.0,2795.0,6015.0,2446.0,-659.0,-786.0,-538.0,-148.0,224.0,-1126.0,0.421632,0.83032,0.364281,4528.0,14118.0,5122.0,-82.0,498.0,741.0
2863.0,2782.0,2831.0,3071.0,2991.0,0.826843,0.503662,-0.249878,0.011292,-10.0,18.0,26.0,2608.0,6272.0,2490.0,-870.0,-504.0,-522.0,-415.0,392.0,-978.0,0.424594,0.827256,0.367683,4086.0,13838.0,5238.0,-224.0,420.0,614.0
2864.0,2759.0,2845.0,3067.0,2987.0,0.829651,0.499878,-0.247986,0.015442,-16.0,16.0,13.0,2256.0,6298.0,2609.0,-1241.0,-434.0,-480.0,-778.0,460.0,-1067.0,0.426921,0.82179,0.377184,3492.0,11982.0,5512.0,-366.0,371.0,305.0
2865.0,2763.0,2855.0,3059.0,2983.0,0.831055,0.498352,-0.246216,0.016541,-13.0,18.0,5.0,2098.0,6096.0,2664.0,-1389.0,-622.0,-464.0,-867.0,378.0,-1278.0,0.425724,0.820171,0.381948,3246.0,10850.0,5610.0,-296.0,420.0,124.0
2839.0,2769.0,2823.0,3059.0,2975.0,0.833496,0.497192,-0.240295,0.017944,-1.0,26.0,-7.0,1775.0,5675.0,2774.0,-1652.0,-1044.0,-421.0,-1018.0,170.0,-1711.0,0.418414,0.820192,0.390096,2360.0,10476.0,5690.0,-8.0,599.0,-160.0
2863.0,2766.0,2834.0,3055.0,2975.0,0.834229,0.497925,-0.236145,0.018372,5.0,28.0,-12.0,1531.0,5685.0,2761.0,-1846.0,-1049.0,-455.0,-1189.0,231.0,-1802.0,0.412293,0.822089,0.392581,1506.0,11710.0,5408.0,120.0,653.0,-253.0
2847.0,2821.0,2851.0,3071.0,2982.0,0.835144,0.500549,-0.227234,0.018188,6.0,25.0,-14.0,1044.0,6085.0,2742.0,-2214.0,-696.0,-498.0,-1624.0,510.0,-1653.0,0.397755,0.827796,0.395612,732.0,13678.0,5476.0,154.0,591.0,-315.0
2857.0,2762.0,2846.0,3071.0,3014.0,0.835449,0.501831,-0.223145,0.017578,4.0,21.0,-15.0,813.0,6307.0,2716.0,-2385.0,-497.0,-533.0,-1830.0,668.0,-1555.0,0.390494,0.830664,0.396657,276.0,13800.0,5362.0,105.0,489.0,-322.0
2859.0,2787.0,2875.0,3069.0,2991.0,0.835571,0.504883,-0.215881,0.01532,11.0,13.0,-17.0,471.0,6316.0,2732.0,-2611.0,-541.0,-519.0,-2055.0,678.0,-1641.0,0.376238,0.837117,0.396903,88.0,12074.0,5600.0,255.0,315.0,-385.0
2847.0,2769.0,2847.0,3087.0,2981.0,0.834961,0.507385,-0.212585,0.014099,20.0,11.0,-19.0,327.0,6229.0,2760.0,-2698.0,-662.0,-473.0,-2133.0,601.0,-1740.0,0.369308,0.841299,0.394726,-270.0,12096.0,5638.0,465.0,260.0,-419.0
2853.0,2767.0,2825.0,3071.0,2963.0,0.831726,0.515381,-0.205994,0.010864,36.0,5.0,-24.0,-23.0,6394.0,2812.0,-2921.0,-592.0,-332.0,-2425.0,576.0,-1665.0,0.353859,0.852835,0.383835,-1150.0,13924.0,5876.0,838.0,130.0,-547.0
2869.0,2781.0,2863.0,3071.0,2961.0,0.829468,0.520325,-0.202759,0.008362,38.0,1.0,-28.0,-209.0,6714.0,2843.0,-3035.0,-329.0,-239.0,-2632.0,654.0,-1420.0,0.345065,0.859794,0.376238,-1566.0,15550.0,5880.0,877.0,28.0,-632.0
2863.0,2767.0,2825.0,3038.0,2979.0,0.825012,0.529724,-0.196838,0.000732,29.0,-10.0,-36.0,-487.0,7349.0,2864.0,-3154.0,191.0,-95.0,-2918.0,820.0,-894.0,0.325564,0.873769,0.361293,-1538.0,16332.0,5798.0,671.0,-214.0,-819.0
2851.0,2750.0,2831.0,3067.0,2999.0,0.822998,0.53363,-0.194397,-0.004272,24.0,-15.0,-39.0,-545.0,7510.0,2833.0,-3128.0,300.0,-73.0,-2927.0,864.0,-748.0,0.315417,0.880015,0.354792,-1322.0,15744.0,5516.0,551.0,-331.0,-885.0
2867.0,2768.0,2835.0,3067.0,2994.0,0.819031,0.540833,-0.190674,-0.015625,23.0,-22.0,-43.0,-548.0,7501.0,2729.0,-2968.0,194.0,-74.0,-2761.0,833.0,-729.0,0.295434,0.891876,0.342199,-1074.0,14864.0,5088.0,531.0,-492.0,-966.0
2871.0,2768.0,2813.0,3070.0,2991.0,0.814087,0.548706,-0.187988,-0.028137,27.0,-29.0,-45.0,-590.0,7555.0,2511.0,-2844.0,149.0,-168.0,-2605.0,924.0,-702.0,0.275199,0.903968,0.327111,-1272.0,15600.0,4428.0,625.0,-650.0,-1025.0
2863.0,2778.0,2851.0,3071.0,2983.0,0.811218,0.552795,-0.187073,-0.034973,26.0,-33.0,-47.0,-603.0,7724.0,2404.0,-2772.0,269.0,-206.0,-2540.0,1016.0,-555.0,0.264848,0.909961,0.318719,-1286.0,16650.0,4202.0,608.0,-742.0,-1057.0
2863.0,2763.0,2855.0,3055.0,2981.0,0.805908,0.559753,-0.186035,-0.050293,14.0,-40.0,-51.0,-537.0,8183.0,2192.0,-2532.0,638.0,-299.0,-2318.0,1231.0,-120.0,0.243551,0.920932,0.304084,-694.0,17598.0,3798.0,330.0,-901.0,-1156.0
2864.0,2768.0,2837.0,3059.0,2991.0,0.803772,0.562073,-0.185669,-0.058777,6.0,-42.0,-54.0,-463.0,8405.0,2079.0,-2366.0,824.0,-371.0,-2145.0,1342.0,101.0,0.232397,0.925383,0.299105,-484.0,18126.0,3478.0,139.0,-954.0,-1218.0
2857.0,2759.0,2831.0,3071.0,3007.0,0.800476,0.56488,-0.184875,-0.077209,-7.0,-44.0,-60.0,-225.0,8657.0,1757.0,-1935.0,1014.0,-646.0,-1618.0,1563.0,352.0,0.208749,0.932895,0.293454,414.0,17868.0,2660.0,-142.0,-993.0,-1366.0
2847.0,2769.0,2859.0,3063.0,2975.0,0.797119,0.567139,-0.183716,-0.095764,-1.0,-41.0,-61.0,101.0,8429.0,1392.0,-1408.0,733.0,-976.0,-936.0,1604.0,146.0,0.184264,0.939341,0.289172,1256.0,15672.0,1822.0,-3.0,-920.0,-1393.0
2863.0,2767.0,2872.0,3071.0,2991.0,0.794495,0.569458,-0.18335,-0.104126,11.0,-38.0,-58.0,279.0,8290.0,1250.0,-1136.0,564.0,-1077.0,-617.0,1544.0,29.0,0.17275,0.943046,0.284164,1582.0,15922.0,1680.0,269.0,-854.0,-1324.0
2851.0,2753.0,2811.0,3071.0,2943.0,0.787109,0.577026,-0.183167,-0.117981,32.0,-32.0,-49.0,581.0,8439.0,1089.0,-665.0,643.0,-1097.0,-152.0,1410.0,217.0,0.152188,0.951586,0.266951,2044.0,18066.0,1886.0,748.0,-721.0,-1118.0
2869.0,2771.0,2853.0,3087.0,2967.0,0.782715,0.581665,-0.18335,-0.123657,37.0,-30.0,-45.0,735.0,8754.0,1062.0,-437.0,923.0,-1035.0,33.0,1343.0,554.0,0.143167,0.955901,0.255982,2420.0,19580.0,1994.0,851.0,-669.0,-1020.0
2854.0,2783.0,2843.0,3071.0,2990.0,0.77417,0.590698,-0.184021,-0.133484,34.0,-25.0,-39.0,1083.0,9542.0,1109.0,40.0,1647.0,-810.0,376.0,1122.0,1402.0,0.12723,0.963729,0.234369,3318.0,21484.0,2562.0,780.0,-571.0,-886.0
2871.0,2794.0,2839.0,3059.0,2983.0,0.770569,0.59436,-0.184204,-0.137817,28.0,-23.0,-37.0,1280.0,9886.0,1180.0,296.0,1966.0,-667.0,550.0,951.0,1785.0,0.120058,0.966764,0.225575,3702.0,21722.0,2770.0,656.0,-506.0,-845.0
2871.0,2733.0,2834.0,3099.0,2987.0,0.764648,0.600098,-0.184021,-0.145691,19.0,-18.0,-35.0,1612.0,10302.0,1273.0,739.0,2344.0,-463.0,873.0,628.0,2257.0,0.106565,0.971348,0.211932,4152.0,21368.0,2812.0,439.0,-392.0,-795.0
2863.0,2768.0,2862.0,3071.0,2970.0,0.762268,0.602356,-0.183838,-0.149231,16.0,-16.0,-33.0,1777.0,10353.0,1362.0,953.0,2380.0,-331.0,1012.0,404.0,2343.0,0.100487,0.973182,0.206693,4590.0,20890.0,3368.0,370.0,-354.0,-743.0
2874.0,2795.0,2855.0,3071.0,2975.0,0.758545,0.605652,-0.183838,-0.154785,13.0,-13.0,-24.0,2089.0,10293.0,1588.0,1340.0,2299.0,-40.0,1231.0,-76.0,2357.0,0.091407,0.975739,0.198738,5040.0,20142.0,3766.0,304.0,-284.0,-539.0
2843.0,2754.0,2845.0,3058.0,2971.0,0.756958,0.606934,-0.184387,-0.156677,13.0,-12.0,-18.0,2244.0,10197.0,1673.0,1515.0,2196.0,74.0,1332.0,-292.0,2293.0,0.088961,0.976625,0.195166,5444.0,19802.0,3878.0,299.0,-271.0,-408.0
