flex_1,flex_2,flex_3,flex_4,flex_5,Qw,Qx,Qy,Qz,GYRx,GYRy,GYRz,ACCx,ACCy,ACCz,ACCx_real,ACCy_real,ACCz_real,ACCx_world,ACCy_world,ACCz_world,GRAx,GRAy,GRAz,ACCx_raw,ACCy_raw,ACCz_raw,GYRx_raw,GYRy_raw,GYRz_raw
2855.0,2770.0,2863.0,3095.0,2993.0,1.0,0.0,0.0,0.0,0.0,0.0,0.0,0.0,0.0,0.0,0.0,0.0,0.0,0.0,0.0,0.0,0.0,0.0,0.0,0.0,0.0,0.0,0.0,0.0,0.0
2859.0,2759.0,2831.0,3118.0,3027.0,0.785034,0.467468,-0.39624,0.09021,15.0,79.0,55.0,6117.0,6807.0,-6241.0,329.0,1380.0,-8279.0,3965.0,7347.0,-913.0,0.706465,0.662467,0.248884,12306.0,12404.0,-11702.0,359.0,1828.0,1274.0
2845.0,2787.0,2867.0,3070.0,2999.0,0.786072,0.46698,-0.389099,0.112,14.0,93.0,57.0,6056.0,6166.0,-5817.0,187.0,865.0,-7954.0,3692.0,6963.0,-1382.0,0.716323,0.647002,0.260984,11762.0,10236.0,-10028.0,341.0,2131.0,1313.0
2871.0,2781.0,2843.0,3117.0,2965.0,0.787842,0.466003,-0.379089,0.135498,21.0,103.0,56.0,5913.0,5414.0,-5187.0,-14.0,240.0,-7465.0,3370.0,6377.0,-1935.0,0.72361,0.631542,0.278187,11718.0,8340.0,-8068.0,490.0,2368.0,1296.0
2863.0,2763.0,2853.0,3063.0,2999.0,0.788757,0.465271,-0.373169,0.148315,25.0,109.0,58.0,5935.0,5000.0,-4722.0,-18.0,-105.0,-7084.0,3241.0,5930.0,-2121.0,0.726693,0.623278,0.288403,11972.0,7550.0,-6570.0,577.0,2504.0,1340.0
2849.0,2759.0,2862.0,3093.0,2991.0,0.790771,0.463379,-0.359253,0.17572,30.0,119.0,61.0,5851.0,4347.0,-3658.0,-137.0,-622.0,-6217.0,2806.0,5032.0,-2419.0,0.731024,0.606598,0.312414,11400.0,7050.0,-3760.0,695.0,2736.0,1399.0
2863.0,2757.0,2846.0,3102.0,2961.0,0.791992,0.461609,-0.351562,0.189819,27.0,121.0,62.0,5746.0,4126.0,-3037.0,-251.0,-770.0,-5712.0,2490.0,4558.0,-2509.0,0.732114,0.597715,0.326604,10698.0,7008.0,-2368.0,620.0,2785.0,1443.0
2842.0,2771.0,2799.0,3071.0,2997.0,0.795166,0.455444,-0.336182,0.217102,13.0,117.0,63.0,5451.0,3716.0,-1763.0,-548.0,-1021.0,-4703.0,1877.0,3570.0,-2680.0,0.732396,0.578336,0.358975,10250.0,5884.0,556.0,308.0,2698.0,1457.0
2851.0,2734.0,2847.0,3051.0,2971.0,0.326782,0.208557,-0.063721,-1.21228,19125.0,12291.0,7092.0,-4994.0,808.0,-21561.0,-1192.0,-1574.0,31451.0,-16841.0,3755.0,-17357.0,-0.464014,0.2908,1.528854,10404.0,3406.0,3814.0,69.0,2535.0,1411.0
2859.0,2775.0,2871.0,3093.0,3023.0,0.801392,0.439636,-0.315308,0.255005,1.0,106.0,60.0,5309.0,2484.0,446.0,-667.0,-1971.0,-2950.0,1733.0,1512.0,-2781.0,0.729589,0.543832,0.414557,10714.0,1668.0,5448.0,41.0,2440.0,1377.0
2855.0,2762.0,2861.0,3095.0,3023.0,0.804688,0.427979,-0.302429,0.278809,10.0,97.0,53.0,5369.0,1344.0,2014.0,-573.0,-2916.0,-1677.0,2100.0,-64.0,-2688.0,0.72537,0.520138,0.450627,11058.0,-640.0,8858.0,237.0,2236.0,1229.0
2857.0,2755.0,2855.0,3057.0,3005.0,0.805786,0.422791,-0.296021,0.290222,15.0,91.0,49.0,5415.0,813.0,2808.0,-503.0,-3361.0,-1018.0,2319.0,-833.0,-2551.0,0.722465,0.509534,0.46714,11058.0,-1482.0,10344.0,359.0,2106.0,1132.0
2862.0,2737.0,2847.0,3071.0,3007.0,0.807312,0.413696,-0.283875,0.310547,19.0,74.0,37.0,5293.0,107.0,4374.0,-566.0,-3920.0,306.0,2459.0,-2231.0,-2180.0,0.715295,0.491651,0.496463,9374.0,-1198.0,13500.0,440.0,1717.0,866.0
2867.0,2781.0,2859.0,3071.0,2983.0,0.810547,0.405029,-0.275757,0.320679,-13.0,15.0,3.0,3901.0,-71.0,6224.0,-1889.0,-4000.0,1966.0,1391.0,-4063.0,-2232.0,0.706796,0.479732,0.519731,5214.0,-990.0,19374.0,-288.0,350.0,85.0
2862.0,2799.0,2849.0,3090.0,2983.0,0.813354,0.399536,-0.27655,0.319763,-35.0,-14.0,-11.0,4375.0,-512.0,7582.0,-1403.0,-4387.0,3259.0,1716.0,-5203.0,-1345.0,0.705381,0.473068,0.527685,12914.0,-4308.0,23444.0,-782.0,-314.0,-242.0
2855.0,2799.0,2869.0,3095.0,3005.0,0.819458,0.383362,-0.283386,0.318054,-55.0,-12.0,1.0,5335.0,-1995.0,8659.0,-467.0,-5665.0,4191.0,2961.0,-6384.0,-583.0,0.708306,0.448033,0.545396,11506.0,-7666.0,18032.0,-1255.0,-256.0,27.0
2859.0,2775.0,2859.0,3119.0,2989.0,0.822327,0.374268,-0.288025,0.317261,-63.0,-19.0,2.0,5106.0,-2480.0,8533.0,-720.0,-6025.0,3995.0,3043.0,-6533.0,-906.0,0.711182,0.432782,0.553841,8188.0,-7640.0,15854.0,-1427.0,-428.0,46.0
2838.0,2758.0,2855.0,3069.0,2981.0,0.827515,0.359985,-0.300781,0.308289,-60.0,-65.0,-34.0,3871.0,-3279.0,7588.0,-2025.0,-6640.0,3002.0,2724.0,-6596.0,-2501.0,0.719761,0.410331,0.559764,3870.0,-8798.0,11796.0,-1361.0,-1478.0,-777.0
2864.0,2768.0,2826.0,3047.0,2971.0,0.830078,0.357971,-0.318176,0.285522,-30.0,-116.0,-88.0,3138.0,-3636.0,6448.0,-2863.0,-7015.0,2014.0,2454.0,-6340.0,-3901.0,0.73264,0.412595,0.541173,5286.0,-7456.0,9726.0,-681.0,-2646.0,-2003.0
2864.0,2767.0,2839.0,3094.0,2975.0,0.829529,0.362671,-0.327698,0.270081,-9.0,-135.0,-107.0,3088.0,-3462.0,5862.0,-2970.0,-6940.0,1584.0,2309.0,-5960.0,-4316.0,0.73957,0.424682,0.522146,6002.0,-5408.0,7964.0,-199.0,-3082.0,-2440.0
2850.0,2795.0,2855.0,3099.0,2999.0,0.823364,0.38092,-0.348999,0.23468,18.0,-168.0,-120.0,3183.0,-2105.0,4287.0,-2989.0,-5901.0,468.0,1732.0,-4268.0,-4768.0,0.753496,0.463466,0.466103,6868.0,1626.0,3192.0,414.0,-3831.0,-2747.0
2864.0,2783.0,2851.0,3101.0,3011.0,0.811523,0.406433,-0.371582,0.19519,18.0,-174.0,-123.0,3656.0,1020.0,2099.0,-2584.0,-3195.0,-1123.0,802.0,-1030.0,-4054.0,0.761759,0.514601,0.393409,9390.0,13298.0,-3112.0,423.0,-3982.0,-2814.0
2854.0,2751.0,2849.0,3071.0,2979.0,0.805237,0.419006,-0.381897,0.173645,2.0,-164.0,-126.0,4039.0,3049.0,717.0,-2191.0,-1392.0,-2208.0,451.0,1052.0,-3209.0,0.760552,0.54217,0.357147,10454.0,18394.0,-7144.0,68.0,-3741.0,-2883.0
2854.0,2787.0,2846.0,3087.0,2999.0,0.794617,0.439392,-0.398621,0.128479,-34.0,-129.0,-124.0,4798.0,6360.0,-2330.0,-1316.0,1478.0,-4754.0,801.0,4857.0,-1508.0,0.746406,0.595868,0.295959,11596.0,20054.0,-13812.0,-758.0,-2936.0,-2828.0
2855.0,2754.0,2847.0,3071.0,2987.0,0.78418,0.453247,-0.413818,0.090881,-35.0,-106.0,-76.0,4740.0,7822.0,-5612.0,-1251.0,2614.0,-7631.0,2169.0,7785.0,-1134.0,0.731399,0.635638,0.246519,9432.0,18730.0,-20142.0,-781.0,-2412.0,-1724.0
2849.0,2753.0,2832.0,3087.0,2991.0,0.771423,0.462891,-0.431702,0.064941,-31.0,-94.0,-33.0,4842.0,9009.0,-7834.0,-1106.0,3617.0,-9461.0,3240.0,9654.0,-302.0,0.726171,0.658099,0.198677,10432.0,20724.0,-21178.0,-705.0,-2143.0,-747.0
2863.0,2782.0,2839.0,3089.0,2991.0,0.764954,0.466553,-0.440613,0.054749,-27.0,-84.0,-24.0,5133.0,9194.0,-8432.0,-807.0,3741.0,-9876.0,3812.0,9879.0,163.0,0.725183,0.665537,0.17634,12220.0,19030.0,-19786.0,-598.0,-1911.0,-538.0
2851.0,2780.0,2851.0,3107.0,2999.0,0.752441,0.473999,-0.455444,0.040955,-2.0,-56.0,-14.0,5591.0,8839.0,-8926.0,-341.0,3301.0,-10037.0,4662.0,9466.0,622.0,0.724215,0.676008,0.135741,12380.0,15968.0,-18484.0,-26.0,-1263.0,-310.0
2855.0,2767.0,2845.0,3095.0,3005.0,0.741394,0.482178,-0.465393,0.035217,10.0,-27.0,-2.0,6049.0,8489.0,-8253.0,117.0,2900.0,-9087.0,4575.0,8292.0,1137.0,0.724041,0.682188,0.101819,13004.0,16450.0,-13668.0,240.0,-612.0,-39.0
2851.0,2768.0,2839.0,3071.0,2995.0,0.73761,0.484802,-0.46875,0.033997,1.0,-17.0,4.0,6088.0,8363.0,-7761.0,153.0,2765.0,-8502.0,4288.0,7748.0,1231.0,0.724472,0.683318,0.090464,12292.0,15740.0,-12498.0,39.0,-387.0,110.0
2834.0,2766.0,2837.0,3071.0,2992.0,0.733704,0.485107,-0.474548,0.032654,-20.0,-6.0,14.0,6086.0,7486.0,-6630.0,121.0,1908.0,-7276.0,3932.0,6360.0,813.0,0.728037,0.680858,0.078862,12032.0,11376.0,-9854.0,-437.0,-128.0,332.0
2864.0,2775.0,2847.0,3093.0,3007.0,0.732971,0.483643,-0.477173,0.032654,-21.0,-2.0,16.0,6019.0,6731.0,-6106.0,29.0,1178.0,-6734.0,3913.0,5596.0,303.0,0.731093,0.677829,0.076709,11578.0,8652.0,-9136.0,-479.0,-43.0,368.0
2863.0,2777.0,2846.0,3095.0,2999.0,0.731018,0.481934,-0.481812,0.03418,-5.0,-1.0,10.0,5737.0,5172.0,-5300.0,-303.0,-330.0,-5882.0,3957.0,4287.0,-863.0,0.737371,0.671668,0.071153,10490.0,6196.0,-8510.0,-96.0,-5.0,233.0
2847.0,2770.0,2837.0,3071.0,3003.0,0.729187,0.482727,-0.483704,0.035156,6.0,-3.0,4.0,5617.0,4653.0,-4934.0,-439.0,-835.0,-5474.0,3875.0,3778.0,-1245.0,0.739363,0.669986,0.065955,10636.0,6570.0,-7576.0,143.0,-62.0,95.0
2858.0,2769.0,2844.0,3071.0,2992.0,0.724731,0.486389,-0.486633,0.036255,11.0,-5.0,-4.0,5613.0,4313.0,-4120.0,-454.0,-1173.0,-4555.0,3431.0,2948.0,-1363.0,0.740625,0.669717,0.053164,11418.0,8564.0,-5734.0,259.0,-112.0,-80.0
2847.0,2771.0,2843.0,3101.0,2995.0,0.723083,0.487915,-0.48761,0.036133,5.0,-4.0,-6.0,5650.0,4397.0,-3735.0,-415.0,-1094.0,-4130.0,3127.0,2665.0,-1240.0,0.740425,0.670369,0.048331,11520.0,9414.0,-5246.0,126.0,-82.0,-116.0
2853.0,2770.0,2847.0,3091.0,2995.0,0.721558,0.489136,-0.488708,0.034302,-12.0,-1.0,-8.0,5617.0,4545.0,-3255.0,-435.0,-962.0,-3613.0,2708.0,2358.0,-1126.0,0.738819,0.672352,0.043732,10858.0,9196.0,-5616.0,-255.0,-14.0,-173.0
2859.0,2782.0,2855.0,3095.0,2997.0,-0.000977,-6.1e-05,-0.00061,0.336548,4521.0,-3202.0,-19862.0,-9073.0,29265.0,5188.0,-9072.0,29268.0,4260.0,1046.0,-3310.0,470.0,-4.2e-05,-0.000411,0.113265,10202.0,8324.0,-6788.0,-349.0,-37.0,-249.0
2851.0,2769.0,2839.0,3067.0,2994.0,0.72052,0.489563,-0.490173,0.028931,-11.0,-3.0,-12.0,5326.0,4354.0,-3322.0,-692.0,-1192.0,-3650.0,2738.0,2363.0,-1461.0,0.734686,0.677118,0.040044,10250.0,8264.0,-7184.0,-251.0,-66.0,-265.0
2850.0,2769.0,2839.0,3067.0,2991.0,0.717834,0.49231,-0.491577,0.026123,1.0,-5.0,-12.0,5282.0,4469.0,-3565.0,-710.0,-1110.0,-3826.0,2814.0,2549.0,-1397.0,0.731463,0.681111,0.031952,10680.0,9814.0,-7876.0,43.0,-98.0,-274.0
2853.0,2771.0,2845.0,3091.0,2999.0,0.715942,0.494446,-0.492188,0.025146,5.0,-4.0,-12.0,5328.0,4704.0,-3688.0,-649.0,-893.0,-3904.0,2787.0,2697.0,-1187.0,0.729623,0.683236,0.026481,10990.0,10982.0,-8152.0,126.0,-83.0,-259.0
2854.0,2771.0,2845.0,3099.0,3003.0,0.712158,0.499023,-0.493164,0.023804,6.0,0.0,-8.0,5451.0,5280.0,-4019.0,-497.0,-350.0,-4145.0,2742.0,3095.0,-665.0,0.726179,0.687289,0.015501,11246.0,12300.0,-9202.0,147.0,12.0,-179.0
2857.0,2771.0,2843.0,3095.0,2992.0,0.708862,0.503174,-0.493652,0.023682,4.0,8.0,-3.0,5543.0,5792.0,-4439.0,-385.0,139.0,-4489.0,2764.0,3554.0,-210.0,0.723695,0.689981,0.00617,11190.0,12934.0,-10194.0,106.0,187.0,-65.0
2858.0,2771.0,2837.0,3067.0,2987.0,0.70752,0.505005,-0.493713,0.024231,4.0,11.0,0.0,5541.0,5950.0,-4668.0,-382.0,291.0,-4687.0,2809.0,3781.0,-86.0,0.723097,0.690675,0.002388,11012.0,12708.0,-10696.0,92.0,270.0,2.0
2849.0,2770.0,2845.0,3071.0,2996.0,0.705017,0.508301,-0.493774,0.026855,7.0,17.0,6.0,5541.0,5980.0,-5055.0,-386.0,325.0,-5018.0,2984.0,4065.0,-32.0,0.72354,0.6902,-0.004413,11150.0,11666.0,-11080.0,163.0,400.0,142.0
2859.0,2771.0,2846.0,3091.0,2989.0,0.703735,0.51001,-0.493713,0.029236,11.0,21.0,8.0,5571.0,5936.0,-5191.0,-365.0,292.0,-5127.0,3064.0,4136.0,-23.0,0.724708,0.688956,-0.007765,11302.0,11708.0,-11228.0,263.0,484.0,201.0
2851.0,2775.0,2851.0,3095.0,3005.0,0.700806,0.51416,-0.493164,0.035828,18.0,27.0,13.0,5564.0,6053.0,-5525.0,-400.0,438.0,-5400.0,3085.0,4470.0,90.0,0.728067,0.685315,-0.015159,11136.0,12766.0,-12036.0,418.0,627.0,319.0
2847.0,2772.0,2845.0,3071.0,2995.0,0.69928,0.516357,-0.492676,0.039795,19.0,30.0,16.0,5592.0,6175.0,-5708.0,-389.0,580.0,-5554.0,3072.0,4673.0,216.0,0.730133,0.682945,-0.018779,11442.0,13084.0,-12482.0,456.0,695.0,368.0
2855.0,2773.0,2835.0,3063.0,2995.0,0.696411,0.520996,-0.491028,0.049316,24.0,39.0,19.0,5734.0,6409.0,-6077.0,-289.0,861.0,-5871.0,3065.0,5062.0,518.0,0.735302,0.677224,-0.025125,12074.0,13386.0,-13226.0,561.0,913.0,458.0
2851.0,2779.0,2851.0,3103.0,3005.0,0.695068,0.523376,-0.489746,0.055298,27.0,46.0,23.0,5873.0,6520.0,-6219.0,-178.0,1003.0,-5992.0,3049.0,5209.0,709.0,0.738697,0.673401,-0.027596,12620.0,13778.0,-13168.0,640.0,1076.0,534.0
2859.0,2779.0,2851.0,3103.0,2997.0,0.693542,0.527344,-0.485779,0.070129,28.0,63.0,34.0,6127.0,6835.0,-6296.0,1.0,1400.0,-6065.0,2785.0,5456.0,1100.0,0.747781,0.663336,-0.028153,12766.0,14684.0,-12674.0,651.0,1448.0,788.0
2859.0,2769.0,2846.0,3071.0,2997.0,0.693481,0.528442,-0.483276,0.078674,25.0,69.0,40.0,6150.0,6975.0,-6302.0,-22.0,1593.0,-6091.0,2577.0,5619.0,1186.0,0.753436,0.656887,-0.025701,12358.0,14666.0,-12594.0,584.0,1590.0,919.0
2858.0,2768.0,2846.0,3071.0,2994.0,0.694519,0.528625,-0.478149,0.097473,20.0,78.0,50.0,6154.0,6909.0,-6165.0,-131.0,1657.0,-6032.0,2254.0,5739.0,1059.0,0.767221,0.641068,-0.016214,12426.0,12984.0,-11592.0,481.0,1790.0,1162.0
2847.0,2770.0,2843.0,3071.0,2991.0,0.696655,0.526611,-0.472229,0.119446,22.0,90.0,58.0,6175.0,6414.0,-5769.0,-245.0,1327.0,-5763.0,2057.0,5512.0,636.0,0.783765,0.620922,-0.000724,12284.0,10902.0,-10154.0,511.0,2077.0,1343.0
2859.0,2783.0,2843.0,3103.0,2993.0,0.698059,0.525024,-0.468689,0.131653,23.0,96.0,60.0,6135.0,6043.0,-5493.0,-357.0,1049.0,-5569.0,1977.0,5313.0,304.0,0.792587,0.609588,0.009299,11940.0,9768.0,-9262.0,546.0,2219.0,1397.0
2851.0,2778.0,2855.0,3107.0,2999.0,0.70105,0.521545,-0.4599,0.157898,31.0,106.0,61.0,5941.0,5178.0,-4817.0,-690.0,377.0,-5086.0,1813.0,4789.0,-504.0,0.809527,0.586024,0.032885,11346.0,7864.0,-7032.0,724.0,2434.0,1402.0
2855.0,2771.0,2832.0,3058.0,2998.0,0.702637,0.519714,-0.45459,0.171753,34.0,109.0,61.0,5864.0,4865.0,-4256.0,-831.0,161.0,-4636.0,1580.0,4366.0,-802.0,0.817348,0.574187,0.046442,11270.0,8106.0,-4968.0,792.0,2518.0,1403.0
2855.0,2771.0,2843.0,3071.0,2995.0,0.706726,0.514771,-0.442261,0.199707,30.0,114.0,61.0,5723.0,4484.0,-2825.0,-1082.0,-29.0,-3470.0,904.0,3313.0,-1188.0,0.830721,0.550958,0.078761,11216.0,7878.0,-748.0,694.0,2622.0,1411.0
2851.0,2779.0,2854.0,3111.0,2999.0,0.709534,0.510925,-0.435669,0.213623,23.0,115.0,63.0,5673.0,4283.0,-1980.0,-1179.0,-131.0,-2784.0,587.0,2653.0,-1330.0,0.836534,0.5389,0.098221,10956.0,7274.0,1086.0,546.0,2654.0,1448.0
2859.0,2782.0,2847.0,3109.0,2995.0,0.715881,0.500671,-0.422729,0.240967,15.0,111.0,64.0,5430.0,3434.0,-440.0,-1504.0,-769.0,-1596.0,380.0,1292.0,-1893.0,0.846539,0.513115,0.141179,10142.0,3302.0,3528.0,364.0,2558.0,1481.0
2863.0,2771.0,2839.0,3095.0,2998.0,0.72052,0.489746,-0.41095,0.268494,27.0,100.0,62.0,5208.0,2033.0,1126.0,-1797.0,-1940.0,-369.0,722.0,-359.0,-2545.0,0.855182,0.485069,0.182507,9818.0,320.0,7322.0,637.0,2309.0,1431.0
2853.0,2779.0,2847.0,3067.0,3005.0,0.721985,0.485046,-0.404846,0.281982,33.0,93.0,58.0,5130.0,1600.0,2033.0,-1899.0,-2267.0,381.0,720.0,-1220.0,-2622.0,0.858135,0.472073,0.201606,9826.0,978.0,9656.0,762.0,2148.0,1336.0
2853.0,2777.0,2847.0,3071.0,2995.0,0.72522,0.475708,-0.393066,0.305237,20.0,74.0,44.0,5042.0,1228.0,3991.0,-2007.0,-2458.0,2038.0,424.0,-2920.0,-2347.0,0.860526,0.450029,0.238314,9838.0,1696.0,13806.0,475.0,1710.0,1024.0
2871.0,2782.0,2852.0,3099.0,2994.0,0.727722,0.470154,-0.388184,0.313965,5.0,62.0,36.0,4987.0,1044.0,4910.0,-2059.0,-2564.0,2809.0,317.0,-3720.0,-2180.0,0.860203,0.440531,0.256422,9636.0,816.0,15194.0,122.0,1441.0,835.0
2865.0,2775.0,2847.0,3099.0,3005.0,0.73468,0.45636,-0.382324,0.325073,-28.0,35.0,20.0,4884.0,387.0,6482.0,-2148.0,-3069.0,4098.0,384.0,-5184.0,-1946.0,0.858473,0.42199,0.290991,9488.0,-1668.0,17192.0,-641.0,803.0,468.0
2847.0,2775.0,2837.0,3071.0,2999.0,0.738892,0.448364,-0.381714,0.327515,-43.0,19.0,12.0,4854.0,-151.0,7114.0,-2172.0,-3530.0,4603.0,599.0,-5861.0,-1908.0,0.857782,0.412551,0.306491,9558.0,-3728.0,17874.0,-972.0,443.0,291.0
2865.0,2778.0,2846.0,3071.0,2973.0,0.747375,0.431824,-0.385071,0.326538,-60.0,-14.0,-6.0,4721.0,-1405.0,7966.0,-2304.0,-4632.0,5258.0,1128.0,-6990.0,-2063.0,0.857599,0.393988,0.330446,8732.0,-6502.0,17696.0,-1358.0,-303.0,-127.0
2862.0,2775.0,2839.0,3071.0,3003.0,0.754456,0.41925,-0.393066,0.316956,-58.0,-52.0,-35.0,4292.0,-2432.0,8101.0,-2743.0,-5573.0,5320.0,1416.0,-7592.0,-2687.0,0.85887,0.383443,0.339392,7130.0,-7138.0,15990.0,-1309.0,-1175.0,-782.0
2851.0,2768.0,2896.0,3103.0,2995.0,0.757019,0.415771,-0.398438,0.308655,-54.0,-72.0,-50.0,4068.0,-2668.0,8018.0,-2976.0,-5809.0,5259.0,1352.0,-7702.0,-3016.0,0.859909,0.383535,0.336727,6856.0,-6546.0,15418.0,-1220.0,-1639.0,-1135.0
2859.0,2771.0,2838.0,3103.0,2991.0,0.759399,0.414917,-0.411804,0.285461,-43.0,-111.0,-75.0,3679.0,-2736.0,7474.0,-3385.0,-5972.0,4881.0,1048.0,-7476.0,-3733.0,0.862333,0.395067,0.316437,6188.0,-5250.0,12516.0,-970.0,-2528.0,-1703.0
2861.0,2787.0,2873.0,3111.0,2993.0,0.756348,0.422119,-0.429321,0.255676,-25.0,-147.0,-90.0,3335.0,-2423.0,6252.0,-3753.0,-5855.0,3999.0,774.0,-6525.0,-4601.0,0.865284,0.419003,0.274931,5918.0,-3452.0,8104.0,-551.0,-3357.0,-2058.0
2859.0,2773.0,2857.0,3071.0,2994.0,0.752319,0.429016,-0.439148,0.238953,-12.0,-160.0,-98.0,3286.0,-2041.0,5380.0,-3806.0,-5609.0,3363.0,694.0,-5714.0,-4910.0,0.865788,0.435643,0.246177,6396.0,-1418.0,5236.0,-267.0,-3656.0,-2233.0
2851.0,2775.0,2846.0,3067.0,2989.0,0.740234,0.449463,-0.45752,0.201599,5.0,-167.0,-122.0,3408.0,-43.0,3144.0,-3625.0,-3982.0,1691.0,174.0,-3077.0,-4727.0,0.858566,0.480945,0.177248,7174.0,8302.0,-1124.0,129.0,-3806.0,-2779.0
2850.0,2763.0,2845.0,3103.0,3003.0,0.726196,0.476929,-0.470032,0.155701,-2.0,-158.0,-148.0,3149.0,3802.0,-507.0,-3660.0,-673.0,-1352.0,-689.0,1613.0,-3549.0,0.831187,0.546319,0.103213,5614.0,19172.0,-13940.0,-42.0,-3617.0,-3387.0
2852.0,2779.0,2847.0,3119.0,3005.0,0.717896,0.490662,-0.476135,0.130859,-11.0,-157.0,-138.0,3332.0,5434.0,-2588.0,-3320.0,683.0,-3120.0,-415.0,3844.0,-2502.0,0.812046,0.579874,0.065045,8234.0,20166.0,-17252.0,-242.0,-3587.0,-3159.0
2851.0,2768.0,2853.0,3103.0,2994.0,0.700073,0.510132,-0.491394,0.090454,-21.0,-128.0,-64.0,4413.0,8036.0,-5952.0,-1979.0,2913.0,-5923.0,708.0,6847.0,297.0,0.780311,0.625362,-0.003418,12726.0,23678.0,-20558.0,-474.0,-2910.0,-1465.0
2865.0,2751.0,2863.0,3127.0,3007.0,0.686768,0.515869,-0.507935,0.064697,-50.0,-82.0,-9.0,5421.0,10110.0,-8176.0,-841.0,4843.0,-7780.0,1540.0,8614.0,2846.0,0.764417,0.64284,-0.048283,13044.0,24312.0,-21656.0,-1133.0,-1869.0,-206.0
2855.0,2779.0,2853.0,3093.0,2993.0,0.682556,0.51593,-0.514709,0.054749,-52.0,-63.0,-6.0,5487.0,10330.0,-9082.0,-731.0,5022.0,-8572.0,2156.0,9172.0,3232.0,0.759129,0.647943,-0.062229,10814.0,20960.0,-23838.0,-1188.0,-1424.0,-130.0
2855.0,2801.0,2839.0,3071.0,2983.0,0.673157,0.518677,-0.525452,0.040283,-17.0,-40.0,-11.0,5625.0,9185.0,-10039.0,-512.0,3811.0,-9298.0,3677.0,8885.0,2956.0,0.749211,0.655968,-0.090362,12472.0,14088.0,-20588.0,-382.0,-907.0,-233.0
2839.0,2768.0,2835.0,3103.0,2987.0,0.663147,0.524902,-0.532288,0.036316,16.0,-17.0,0.0,5924.0,8119.0,-9518.0,-171.0,2732.0,-8553.0,3980.0,7591.0,2676.0,0.744094,0.657514,-0.11777,12482.0,13706.0,-16366.0,384.0,-388.0,6.0
2847.0,2767.0,2821.0,3119.0,3023.0,0.658752,0.527954,-0.534668,0.036743,19.0,-10.0,5.0,6033.0,7732.0,-8897.0,-55.0,2355.0,-7837.0,3749.0,6823.0,2518.0,0.743225,0.656291,-0.129301,12736.0,13204.0,-13714.0,452.0,-222.0,119.0
2832.0,2759.0,2865.0,3103.0,3039.0,0.653442,0.531433,-0.537598,0.039124,7.0,3.0,8.0,6116.0,6906.0,-7191.0,19.0,1561.0,-6020.0,3015.0,5098.0,1892.0,0.744161,0.652456,-0.142915,12178.0,11288.0,-8866.0,182.0,83.0,196.0
2862.0,2768.0,2833.0,3071.0,2983.0,0.65271,0.531677,-0.538147,0.040161,-1.0,7.0,7.0,6062.0,6447.0,-6261.0,-42.0,1115.0,-5076.0,2635.0,4245.0,1428.0,0.745213,0.650837,-0.14464,11722.0,10074.0,-6972.0,-15.0,176.0,172.0
2851.0,2773.0,2844.0,3071.0,2987.0,0.653687,0.53009,-0.538513,0.040588,-17.0,7.0,2.0,5794.0,5491.0,-4736.0,-325.0,171.0,-3572.0,2119.0,2874.0,375.0,0.747069,0.649311,-0.142039,10658.0,8024.0,-5554.0,-367.0,163.0,55.0
2853.0,2768.0,2847.0,3093.0,2991.0,0.654541,0.528809,-0.538818,0.039795,-21.0,3.0,-1.0,5668.0,5004.0,-4163.0,-455.0,-315.0,-3016.0,2006.0,2314.0,-122.0,0.747445,0.649369,-0.139956,10664.0,7082.0,-5014.0,-464.0,70.0,-12.0
2842.0,2753.0,2843.0,3091.0,3002.0,0.655396,0.526917,-0.539795,0.037231,-13.0,-4.0,-8.0,5532.0,4022.0,-3430.0,-585.0,-1306.0,-2298.0,2100.0,1406.0,-969.0,0.746794,0.650483,-0.13809,10926.0,5130.0,-5194.0,-292.0,-81.0,-182.0
2860.0,2767.0,2847.0,3071.0,3003.0,0.654846,0.527222,-0.540283,0.036377,-3.0,-5.0,-11.0,5531.0,3647.0,-3176.0,-579.0,-1687.0,-2031.0,2161.0,1039.0,-1246.0,0.745962,0.651191,-0.139722,11042.0,5370.0,-4904.0,-60.0,-111.0,-245.0
2834.0,2759.0,2853.0,3109.0,2995.0,0.652222,0.530029,-0.540771,0.034912,6.0,-8.0,-14.0,5441.0,3767.0,-2910.0,-640.0,-1587.0,-1707.0,1858.0,890.0,-1261.0,0.742415,0.653634,-0.146753,10620.0,8932.0,-5322.0,159.0,-173.0,-309.0
2851.0,2767.0,2863.0,3071.0,2991.0,0.649597,0.533386,-0.540771,0.031799,0.0,-8.0,-16.0,5402.0,4405.0,-3021.0,-631.0,-990.0,-1759.0,1527.0,1192.0,-845.0,0.73649,0.65858,-0.153947,10638.0,10922.0,-6904.0,17.0,-166.0,-366.0
2829.0,2751.0,2833.0,3059.0,2999.0,0.648499,0.534973,-0.540649,0.029785,-3.0,-6.0,-16.0,5384.0,4770.0,-3250.0,-621.0,-650.0,-1963.0,1458.0,1483.0,-577.0,0.733089,0.661652,-0.157061,10696.0,11782.0,-8032.0,-59.0,-129.0,-363.0
2853.0,2737.0,2823.0,3119.0,2995.0,0.646912,0.537476,-0.540344,0.025635,-9.0,-1.0,-11.0,5345.0,5561.0,-3952.0,-607.0,91.0,-2627.0,1456.0,2270.0,44.0,0.726666,0.667695,-0.1617,10704.0,13540.0,-10260.0,-200.0,-21.0,-239.0
2851.0,2769.0,2821.0,3071.0,2999.0,0.646423,0.538208,-0.540283,0.023865,-12.0,2.0,-7.0,5399.0,5959.0,-4346.0,-533.0,470.0,-3009.0,1515.0,2662.0,419.0,0.724192,0.670033,-0.163141,11218.0,14252.0,-11076.0,-273.0,58.0,-145.0
2863.0,2783.0,2855.0,3047.0,3019.0,0.646301,0.538696,-0.539978,0.022217,-13.0,14.0,2.0,5596.0,6482.0,-5153.0,-317.0,974.0,-3813.0,1843.0,3329.0,1049.0,0.721913,0.672327,-0.163571,11952.0,14062.0,-12570.0,-281.0,340.0,48.0
2846.0,2769.0,2827.0,3088.0,2995.0,0.349548,0.405151,-0.333801,-1.21228,21602.0,-111.0,-30941.0,-11490.0,-24239.0,16673.0,-5354.0,32347.0,5890.0,18436.0,29330.0,-18433.0,-0.748955,1.092561,1.316237,12276.0,14004.0,-13054.0,-123.0,693.0,262.0
2852.0,2747.0,2822.0,3095.0,2993.0,0.647827,0.538696,-0.537903,0.027588,-3.0,36.0,15.0,5921.0,6793.0,-5949.0,-31.0,1318.0,-4645.0,2275.0,3947.0,1597.0,0.726659,0.668285,-0.159092,12336.0,13800.0,-12970.0,-59.0,831.0,365.0
2863.0,2771.0,2805.0,3071.0,2991.0,0.649475,0.538574,-0.535583,0.035583,3.0,45.0,22.0,5940.0,6827.0,-6214.0,-73.0,1408.0,-4953.0,2347.0,4280.0,1639.0,0.734025,0.661465,-0.153828,11758.0,13658.0,-13124.0,78.0,1035.0,504.0
2863.0,2768.0,2854.0,3103.0,2991.0,0.651306,0.538574,-0.532532,0.045837,8.0,53.0,26.0,5981.0,6865.0,-6277.0,-106.0,1517.0,-5069.0,2259.0,4488.0,1658.0,0.743056,0.652734,-0.147351,12258.0,13820.0,-12506.0,194.0,1219.0,607.0
2855.0,2795.0,2861.0,3095.0,3007.0,0.652527,0.538452,-0.530579,0.052124,10.0,59.0,30.0,6075.0,6856.0,-6216.0,-57.0,1552.0,-5045.0,2193.0,4496.0,1683.0,0.748566,0.647397,-0.142936,12770.0,13574.0,-11958.0,243.0,1363.0,691.0
2847.0,2783.0,2847.0,3087.0,2999.0,0.656128,0.537109,-0.525696,0.067871,13.0,75.0,41.0,6278.0,6785.0,-5967.0,29.0,1595.0,-4904.0,1995.0,4452.0,1668.0,0.762756,0.633466,-0.129732,13028.0,13384.0,-11050.0,320.0,1731.0,954.0
2863.0,2768.0,2819.0,3071.0,2975.0,0.658508,0.535828,-0.522766,0.077332,15.0,83.0,46.0,6362.0,6708.0,-5770.0,42.0,1589.0,-4780.0,1861.0,4398.0,1602.0,0.771364,0.624841,-0.120782,13250.0,12870.0,-10220.0,344.0,1902.0,1072.0
2871.0,2771.0,2863.0,3071.0,3019.0,0.664429,0.531799,-0.515686,0.098755,16.0,95.0,55.0,6417.0,6455.0,-5151.0,-57.0,1500.0,-4352.0,1480.0,4164.0,1286.0,0.790309,0.604832,-0.097525,12684.0,11934.0,-8328.0,371.0,2198.0,1263.0
2859.0,2791.0,2839.0,3069.0,2987.0,0.667725,0.529297,-0.511658,0.110474,17.0,99.0,58.0,6368.0,6246.0,-4773.0,-187.0,1381.0,-4085.0,1277.0,3996.0,1013.0,0.80024,0.5938,-0.083888,12386.0,11090.0,-7148.0,404.0,2281.0,1343.0
2851.0,2766.0,2837.0,3071.0,2982.0,0.674255,0.523254,-0.503052,0.135864,23.0,104.0,66.0,6195.0,5765.0,-3868.0,-526.0,1104.0,-3427.0,813.0,3525.0,380.0,0.820554,0.568921,-0.053777,11654.0,10026.0,-4950.0,528.0,2403.0,1517.0
2858.0,2783.0,2862.0,3099.0,2999.0,0.679871,0.516785,-0.493896,0.163452,31.0,105.0,71.0,6002.0,5131.0,-2871.0,-883.0,697.0,-2690.0,436.0,2866.0,-305.0,0.840511,0.541237,-0.022059,11808.0,8166.0,-2380.0,711.0,2420.0,1632.0
2847.0,2755.0,2838.0,3071.0,3007.0,0.682434,0.513123,-0.489136,0.178101,33.0,106.0,74.0,5978.0,4820.0,-2277.0,-988.0,510.0,-2235.0,251.0,2419.0,-560.0,0.850381,0.526114,-0.005112,11690.0,7958.0,-1018.0,757.0,2449.0,1696.0
2854.0,2771.0,2831.0,3095.0,3005.0,0.6875,0.505371,-0.478638,0.20697,31.0,105.0,70.0,5720.0,4412.0,-1204.0,-1385.0,342.0,-1457.0,-240.0,1715.0,-1076.0,0.86732,0.496758,0.030999,10660.0,7612.0,868.0,715.0,2425.0,1616.0
2862.0,2790.0,2815.0,3071.0,3007.0,0.690308,0.500977,-0.473022,0.220642,26.0,104.0,67.0,5652.0,4197.0,-576.0,-1508.0,240.0,-989.0,-445.0,1241.0,-1252.0,0.874135,0.482919,0.05048,11028.0,7130.0,2784.0,597.0,2395.0,1555.0
2846.0,2767.0,2857.0,3095.0,2979.0,0.697632,0.489441,-0.46167,0.246155,6.0,102.0,65.0,5499.0,3830.0,769.0,-1751.0,97.0,-5.0,-867.0,233.0,-1506.0,0.885108,0.455615,0.094591,10232.0,6422.0,5248.0,158.0,2352.0,1509.0
2855.0,2771.0,2865.0,3071.0,2992.0,0.701965,0.482117,-0.456543,0.257629,-5.0,97.0,65.0,5367.0,3517.0,1355.0,-1918.0,-100.0,386.0,-935.0,-241.0,-1704.0,0.88937,0.441621,0.11826,9944.0,4920.0,6122.0,-104.0,2229.0,1491.0
2851.0,2763.0,2863.0,3107.0,3007.0,0.710205,0.466064,-0.448364,0.278076,-12.0,81.0,58.0,5104.0,2251.0,2202.0,-2236.0,-1129.0,862.0,-398.0,-1198.0,-2328.0,0.896064,0.412644,0.163471,9586.0,-392.0,6542.0,-255.0,1859.0,1338.0
2859.0,2787.0,2835.0,3071.0,3007.0,0.713013,0.458801,-0.445251,0.287781,-3.0,71.0,54.0,5045.0,1368.0,2557.0,-2319.0,-1892.0,1062.0,140.0,-1753.0,-2644.0,0.899008,0.397993,0.182457,9876.0,-2582.0,7296.0,-46.0,1636.0,1243.0
2855.0,2780.0,2855.0,3091.0,3007.0,0.715515,0.448059,-0.43927,0.306946,21.0,54.0,44.0,5058.0,50.0,3331.0,-2344.0,-2993.0,1590.0,933.0,-2782.0,-2892.0,0.903668,0.371522,0.212463,10178.0,-2814.0,8972.0,496.0,1238.0,1020.0
2855.0,2778.0,2855.0,3071.0,3011.0,0.715881,0.442261,-0.433289,0.322815,24.0,31.0,26.0,4700.0,-373.0,4179.0,-2721.0,-3268.0,2267.0,871.0,-3593.0,-3091.0,0.905903,0.353468,0.233362,6528.0,-1286.0,11100.0,571.0,732.0,615.0
2846.0,2759.0,2831.0,3089.0,3005.0,0.71637,0.440674,-0.431152,0.326538,12.0,7.0,7.0,4264.0,-403.0,4807.0,-3154.0,-3268.0,2843.0,524.0,-4174.0,-3317.0,0.905522,0.349795,0.239727,6392.0,-1052.0,13784.0,297.0,165.0,161.0
2847.0,2757.0,2832.0,3111.0,2975.0,0.719116,0.43689,-0.430786,0.326111,-12.0,-14.0,-15.0,5152.0,-1132.0,6252.0,-2257.0,-3977.0,4228.0,1008.0,-5666.0,-2378.0,0.904519,0.347381,0.247027,14350.0,-5278.0,15232.0,-267.0,-311.0,-328.0
2863.0,2767.0,2835.0,3071.0,3019.0,0.720825,0.433716,-0.431274,0.32605,-16.0,-6.0,-10.0,5591.0,-1487.0,6354.0,-1819.0,-4305.0,4291.0,1424.0,-5834.0,-2046.0,0.904573,0.344033,0.25179,13306.0,-4680.0,12866.0,-345.0,-135.0,-212.0
2847.0,2769.0,2831.0,3089.0,2973.0,0.723694,0.427673,-0.432739,0.3255,-16.0,-13.0,-10.0,5424.0,-1669.0,5977.0,-1987.0,-4432.0,3851.0,1567.0,-5540.0,-2293.0,0.904757,0.337295,0.259516,8978.0,-3544.0,10302.0,-355.0,-284.0,-218.0
2843.0,2769.0,2833.0,3089.0,3003.0,0.725403,0.425781,-0.436829,0.318787,-20.0,-46.0,-33.0,4816.0,-1580.0,5776.0,-2599.0,-4358.0,3681.0,1224.0,-5426.0,-2889.0,0.90522,0.339216,0.255725,8294.0,-2668.0,11822.0,-447.0,-1043.0,-733.0
2855.0,2771.0,2839.0,3071.0,2993.0,0.726196,0.426025,-0.439941,0.312317,-25.0,-61.0,-44.0,4666.0,-1441.0,5963.0,-2748.0,-4258.0,3916.0,919.0,-5597.0,-2973.0,0.905077,0.343954,0.249857,8540.0,-1846.0,13298.0,-560.0,-1375.0,-991.0
2847.0,2769.0,2831.0,3071.0,2983.0,0.728333,0.42749,-0.448059,0.293213,-41.0,-86.0,-64.0,4335.0,-1005.0,6410.0,-3065.0,-3953.0,4501.0,86.0,-5948.0,-3143.0,0.903363,0.359957,0.232937,7510.0,-992.0,13624.0,-921.0,-1968.0,-1448.0
2847.0,2779.0,2843.0,3102.0,2975.0,0.728638,0.431824,-0.460022,0.266479,-38.0,-119.0,-83.0,3907.0,-1072.0,6058.0,-3470.0,-4218.0,4388.0,-126.0,-5851.0,-3850.0,0.900523,0.384113,0.203832,6498.0,-3172.0,9702.0,-859.0,-2725.0,-1893.0
2854.0,2759.0,2847.0,3095.0,3003.0,0.726135,0.437012,-0.467468,0.251282,-21.0,-137.0,-92.0,3760.0,-1285.0,5472.0,-3600.0,-4559.0,3989.0,122.0,-5553.0,-4335.0,0.898516,0.399727,0.180909,6832.0,-3808.0,7138.0,-471.0,-3132.0,-2098.0
2864.0,2778.0,2831.0,3099.0,2997.0,0.714172,0.456787,-0.482666,0.219666,25.0,-159.0,-110.0,3720.0,-660.0,3728.0,-3571.0,-4267.0,2772.0,303.0,-4016.0,-4734.0,0.890094,0.440399,0.116674,7446.0,3192.0,1240.0,594.0,-3620.0,-2505.0
2839.0,2803.0,2818.0,3071.0,3015.0,0.696289,0.486755,-0.494446,0.183533,34.0,-161.0,-126.0,3777.0,2360.0,1156.0,-3327.0,-1706.0,852.0,-653.0,-763.0,-3700.0,0.867225,0.496351,0.037095,7566.0,16616.0,-6596.0,790.0,-3676.0,-2871.0
2859.0,2761.0,2832.0,3063.0,2983.0,0.687378,0.501892,-0.499329,0.16217,12.0,-158.0,-127.0,3858.0,4568.0,-464.0,-3098.0,242.0,-444.0,-1332.0,1347.0,-2502.0,0.849239,0.528026,-0.002437,8474.0,22506.0,-10760.0,293.0,-3609.0,-2898.0
2846.0,2758.0,2858.0,3071.0,3003.0,0.673767,0.521606,-0.510254,0.116394,-55.0,-135.0,-95.0,4690.0,8058.0,-3637.0,-1937.0,3273.0,-3105.0,-1373.0,4681.0,546.0,0.809008,0.584101,-0.064923,11754.0,24530.0,-16906.0,-1248.0,-3091.0,-2161.0
2831.0,2767.0,2862.0,3089.0,2973.0,0.666077,0.527161,-0.521973,0.077148,-84.0,-92.0,-51.0,5399.0,10037.0,-6573.0,-963.0,4943.0,-5747.0,-126.0,7066.0,2904.0,0.776687,0.62172,-0.100744,12854.0,24798.0,-20868.0,-1913.0,-2090.0,-1164.0
2859.0,2779.0,2858.0,3101.0,3013.0,0.664429,0.526062,-0.527283,0.061035,-95.0,-71.0,-33.0,5567.0,10808.0,-7695.0,-699.0,5608.0,-6797.0,455.0,7982.0,3769.0,0.7649,0.634696,-0.109578,11810.0,26080.0,-22060.0,-2157.0,-1623.0,-746.0
2863.0,2767.0,2835.0,3099.0,2991.0,0.663635,0.519531,-0.537048,0.034241,-96.0,-46.0,-9.0,5679.0,10968.0,-9241.0,-451.0,5620.0,-8284.0,2028.0,8820.0,4298.0,0.748387,0.652781,-0.116749,11474.0,20270.0,-21874.0,-2190.0,-1052.0,-192.0
2849.0,2789.0,2838.0,3102.0,2995.0,0.660767,0.51532,-0.54541,0.018921,-41.0,-24.0,0.0,6021.0,9752.0,-9699.0,-43.0,4342.0,-8666.0,3510.0,8136.0,3927.0,0.740278,0.660373,-0.126056,14202.0,15254.0,-18602.0,-933.0,-540.0,0.0
2837.0,2770.0,2849.0,3088.0,3023.0,0.658508,0.515137,-0.548279,0.01709,-13.0,-8.0,8.0,6413.0,9136.0,-9307.0,353.0,3731.0,-8225.0,3743.0,7291.0,3808.0,0.739699,0.659704,-0.13205,15112.0,14874.0,-15806.0,-292.0,-172.0,194.0
2865.0,2775.0,2833.0,3071.0,2995.0,0.655396,0.515503,-0.551514,0.02124,5.0,17.0,25.0,6841.0,8301.0,-7878.0,739.0,2957.0,-6731.0,3243.0,5688.0,3421.0,0.744818,0.652288,-0.139916,14390.0,14088.0,-10678.0,135.0,396.0,589.0
2863.0,2768.0,2835.0,3071.0,2975.0,0.655334,0.514648,-0.552307,0.024963,2.0,23.0,29.0,6856.0,7789.0,-6986.0,715.0,2489.0,-5840.0,2858.0,4884.0,2962.0,0.749587,0.646959,-0.13982,13606.0,12252.0,-8616.0,55.0,543.0,682.0
2855.0,2795.0,2843.0,3119.0,2999.0,0.657043,0.511353,-0.552917,0.03302,-1.0,26.0,27.0,6608.0,6304.0,-5154.0,379.0,1098.0,-4052.0,2285.0,3194.0,1530.0,0.760351,0.635447,-0.134403,12204.0,7796.0,-4826.0,-16.0,609.0,640.0
2863.0,2768.0,2847.0,3091.0,2995.0,0.658081,0.509583,-0.552979,0.037109,1.0,24.0,24.0,6442.0,5537.0,-4275.0,169.0,378.0,-3201.0,2042.0,2371.0,786.0,0.76563,0.629652,-0.131012,11916.0,6562.0,-3360.0,31.0,568.0,568.0
2835.0,2779.0,2822.0,3071.0,3011.0,0.660034,0.506775,-0.552734,0.044312,4.0,19.0,15.0,6182.0,4258.0,-2721.0,-163.0,-820.0,-1699.0,1607.0,906.0,-422.0,0.774559,0.619992,-0.124727,11542.0,5004.0,-1400.0,106.0,436.0,363.0
2861.0,2767.0,2855.0,3101.0,2995.0,0.660706,0.506042,-0.552429,0.047363,7.0,15.0,10.0,6072.0,3709.0,-2118.0,-300.0,-1340.0,-1114.0,1477.0,304.0,-922.0,0.777922,0.61636,-0.122482,11542.0,4212.0,-742.0,179.0,360.0,244.0
2847.0,2789.0,2841.0,3071.0,3003.0,0.660828,0.506165,-0.551636,0.052673,14.0,9.0,2.0,5916.0,3090.0,-1310.0,-493.0,-1914.0,-318.0,1226.0,-450.0,-1516.0,0.782395,0.610862,-0.121037,11458.0,5276.0,-768.0,333.0,218.0,52.0
2851.0,2794.0,2857.0,3094.0,3007.0,0.660461,0.507019,-0.551086,0.054626,15.0,6.0,-2.0,5829.0,3086.0,-1101.0,-588.0,-1907.0,-105.0,1046.0,-552.0,-1610.0,0.783336,0.609525,-0.121571,11058.0,6420.0,-1144.0,352.0,159.0,-40.0
2839.0,2789.0,2843.0,3067.0,2983.0,0.659241,0.509583,-0.550049,0.056152,10.0,-1.0,-8.0,5621.0,3464.0,-1090.0,-788.0,-1533.0,-70.0,713.0,-292.0,-1543.0,0.782458,0.610102,-0.124477,10720.0,8464.0,-2716.0,244.0,-5.0,-164.0
2849.0,2787.0,2851.0,3091.0,3003.0,0.658386,0.510986,-0.549805,0.055725,7.0,-4.0,-9.0,5566.0,3758.0,-1252.0,-831.0,-1252.0,-213.0,614.0,-28.0,-1387.0,0.780917,0.611577,-0.126815,10896.0,9342.0,-3578.0,163.0,-76.0,-206.0
2853.0,2778.0,2847.0,3103.0,2999.0,0.656555,0.513977,-0.549438,0.053772,4.0,-5.0,-12.0,5600.0,4426.0,-1813.0,-763.0,-618.0,-730.0,581.0,624.0,-876.0,0.776748,0.61582,-0.132099,11468.0,10934.0,-5634.0,108.0,-92.0,-256.0
2859.0,2787.0,2851.0,3095.0,2993.0,0.654358,0.517517,-0.548828,0.052246,7.0,1.0,-9.0,5756.0,5120.0,-2570.0,-570.0,41.0,-1438.0,705.0,1360.0,-216.0,0.772337,0.619935,-0.138122,11900.0,12338.0,-7580.0,161.0,37.0,-187.0
2847.0,2765.0,2846.0,3059.0,3015.0,0.653137,0.519409,-0.548462,0.052063,9.0,4.0,-6.0,5819.0,5445.0,-2996.0,-493.0,354.0,-1838.0,797.0,1760.0,99.0,0.770526,0.621382,-0.141298,12024.0,12782.0,-8524.0,217.0,98.0,-124.0
2850.0,2768.0,2839.0,3057.0,2999.0,0.650146,0.523621,-0.547913,0.053955,18.0,10.0,2.0,6050.0,5936.0,-3769.0,-249.0,842.0,-2550.0,1032.0,2387.0,711.0,0.768951,0.621735,-0.148785,12986.0,13128.0,-9582.0,414.0,241.0,67.0
2859.0,2783.0,2851.0,3111.0,2996.0,0.648376,0.525818,-0.547607,0.056335,23.0,15.0,7.0,6193.0,6101.0,-4087.0,-109.0,1020.0,-2835.0,1140.0,2612.0,981.0,0.769356,0.620156,-0.152793,13218.0,13096.0,-9994.0,542.0,347.0,169.0
2855.0,2783.0,2845.0,3095.0,2991.0,0.644714,0.530518,-0.54657,0.064148,32.0,25.0,15.0,6438.0,6367.0,-4517.0,107.0,1337.0,-3202.0,1194.0,2935.0,1417.0,0.772826,0.613942,-0.160416,13386.0,13668.0,-10096.0,755.0,575.0,350.0
2863.0,2781.0,2835.0,3071.0,2991.0,0.643066,0.532776,-0.545715,0.069092,34.0,29.0,18.0,6502.0,6501.0,-4670.0,149.0,1505.0,-3331.0,1142.0,3096.0,1577.0,0.775483,0.609812,-0.163347,13348.0,13750.0,-10168.0,786.0,665.0,428.0
2843.0,2759.0,2835.0,3069.0,2992.0,0.64032,0.536377,-0.543823,0.080322,32.0,36.0,25.0,6614.0,6670.0,-4809.0,202.0,1758.0,-3441.0,973.0,3290.0,1786.0,0.782608,0.599543,-0.166983,13592.0,13628.0,-9810.0,753.0,827.0,585.0
2859.0,2782.0,2847.0,3091.0,2993.0,0.639465,0.537659,-0.542664,0.086609,32.0,40.0,28.0,6716.0,6680.0,-4787.0,267.0,1816.0,-3417.0,898.0,3283.0,1859.0,0.787161,0.593629,-0.167144,14112.0,13362.0,-9308.0,753.0,933.0,642.0
2857.0,2770.0,2847.0,3090.0,3003.0,0.63855,0.539429,-0.539368,0.101562,36.0,52.0,35.0,6881.0,6556.0,-4636.0,340.0,1810.0,-3293.0,754.0,3194.0,1859.0,0.798398,0.579345,-0.16384,14180.0,12456.0,-8774.0,827.0,1197.0,816.0
2862.0,2766.0,2837.0,3071.0,2999.0,0.638306,0.539795,-0.537537,0.110352,38.0,57.0,41.0,6936.0,6465.0,-4495.0,338.0,1791.0,-3178.0,644.0,3122.0,1804.0,0.80536,0.570472,-0.160713,14178.0,12468.0,-8066.0,873.0,1309.0,953.0
2850.0,2770.0,2839.0,3071.0,2992.0,0.638611,0.539062,-0.533447,0.130249,37.0,67.0,52.0,7019.0,6369.0,-4052.0,287.0,1867.0,-2820.0,254.0,2934.0,1685.0,0.821755,0.54954,-0.150366,14114.0,12524.0,-6594.0,866.0,1542.0,1195.0
2851.0,2775.0,2851.0,2995.0,2997.0,0.639343,0.537842,-0.531067,0.14093,35.0,71.0,55.0,6987.0,6290.0,-3816.0,182.0,1882.0,-2647.0,54.0,2863.0,1541.0,0.830664,0.538044,-0.142685,13722.0,11998.0,-6236.0,816.0,1634.0,1272.0
2853.0,2771.0,2837.0,3103.0,2999.0,0.641235,0.53418,-0.526062,0.163208,35.0,75.0,60.0,6820.0,5802.0,-3319.0,-135.0,1596.0,-2300.0,-133.0,2618.0,990.0,0.849024,0.513355,-0.12427,13020.0,9820.0,-5102.0,806.0,1731.0,1388.0
2859.0,2783.0,2847.0,3103.0,3005.0,0.6427,0.529358,-0.520996,0.187622,39.0,79.0,66.0,6744.0,5040.0,-2619.0,-369.0,1067.0,-1772.0,-153.0,2060.0,380.0,0.868327,0.484936,-0.103391,13360.0,7718.0,-2814.0,903.0,1816.0,1527.0
2855.0,2783.0,2846.0,3068.0,2995.0,0.643494,0.526489,-0.518127,0.200684,40.0,82.0,67.0,6677.0,4648.0,-2232.0,-516.0,800.0,-1484.0,-164.0,1754.0,58.0,0.878139,0.469626,-0.091289,12814.0,6972.0,-2174.0,934.0,1883.0,1555.0
2847.0,2769.0,2849.0,3063.0,2995.0,0.645081,0.520325,-0.511353,0.227173,41.0,85.0,65.0,6450.0,3833.0,-1434.0,-891.0,236.0,-905.0,-144.0,1114.0,-636.0,0.896134,0.438972,-0.064483,12262.0,5178.0,-190.0,956.0,1948.0,1507.0
2854.0,2785.0,2851.0,3103.0,3015.0,0.646057,0.516846,-0.507568,0.240417,40.0,85.0,64.0,6304.0,3445.0,-991.0,-1104.0,-26.0,-584.0,-147.0,759.0,-980.0,0.904354,0.423767,-0.049565,11602.0,4660.0,586.0,922.0,1954.0,1485.0
2859.0,2783.0,2853.0,3101.0,2966.0,0.648132,0.509155,-0.500061,0.265564,32.0,78.0,61.0,5966.0,2716.0,-120.0,-1559.0,-514.0,33.0,-133.0,51.0,-1635.0,0.918638,0.394404,-0.0187,11162.0,2950.0,2484.0,753.0,1809.0,1411.0
2851.0,2771.0,2843.0,3071.0,2999.0,0.649231,0.504822,-0.496643,0.277344,29.0,74.0,59.0,5871.0,2215.0,340.0,-1705.0,-898.0,365.0,39.0,-400.0,-1919.0,0.92489,0.38001,-0.003079,11180.0,1260.0,3464.0,685.0,1712.0,1360.0
2853.0,2775.0,2847.0,3063.0,2992.0,0.650513,0.496643,-0.490051,0.299866,34.0,65.0,50.0,5640.0,1109.0,1178.0,-2022.0,-1776.0,962.0,543.0,-1289.0,-2491.0,0.935422,0.352246,0.026282,10762.0,-1112.0,4864.0,784.0,1495.0,1149.0
2859.0,2779.0,2847.0,3101.0,2995.0,0.650574,0.493469,-0.486511,0.310608,39.0,60.0,43.0,5593.0,582.0,1620.0,-2103.0,-2202.0,1296.0,822.0,-1768.0,-2673.0,0.939574,0.339848,0.039518,10916.0,-1930.0,5890.0,902.0,1390.0,998.0
2855.0,2783.0,2847.0,3095.0,2993.0,0.650208,0.48938,-0.47821,0.330078,43.0,50.0,27.0,5464.0,64.0,2564.0,-2276.0,-2563.0,2043.0,950.0,-2633.0,-2842.0,0.944939,0.320703,0.063543,10570.0,-344.0,8222.0,1004.0,1161.0,639.0
2847.0,2774.0,2847.0,3071.0,2991.0,0.650574,0.487854,-0.473755,0.337891,35.0,44.0,20.0,5422.0,121.0,3137.0,-2328.0,-2456.0,2522.0,740.0,-3081.0,-2786.0,0.946108,0.314615,0.074971,10596.0,836.0,9788.0,822.0,1021.0,466.0
2851.0,2770.0,2839.0,3063.0,2993.0,0.654297,0.483398,-0.466187,0.347595,2.0,26.0,4.0,5104.0,386.0,4314.0,-2646.0,-2141.0,3511.0,120.0,-3992.0,-2820.0,0.946103,0.308484,0.097923,8784.0,912.0,12156.0,51.0,618.0,97.0
2851.0,2781.0,2851.0,3103.0,2991.0,0.657288,0.480286,-0.464111,0.348999,-13.0,11.0,-4.0,5000.0,257.0,4928.0,-2744.0,-2261.0,4045.0,40.0,-4566.0,-2853.0,0.945348,0.307423,0.107754,9754.0,-512.0,13606.0,-293.0,271.0,-85.0
2857.0,2778.0,2851.0,3101.0,2995.0,0.663696,0.473633,-0.462341,0.348328,-24.0,-3.0,-13.0,5301.0,36.0,6040.0,-2429.0,-2475.0,5026.0,1.0,-5601.0,-2429.0,0.943667,0.306604,0.123737,11162.0,-70.0,14490.0,-528.0,-46.0,-293.0
2851.0,2770.0,2839.0,3067.0,2999.0,0.667114,0.470642,-0.461731,0.346619,-28.0,-8.0,-18.0,5217.0,77.0,6281.0,-2502.0,-2444.0,5212.0,-151.0,-5784.0,-2429.0,0.942321,0.307855,0.130486,9598.0,576.0,13748.0,-620.0,-164.0,-411.0
2847.0,2775.0,2847.0,3071.0,2997.0,0.673401,0.466248,-0.463379,0.338074,-39.0,-39.0,-30.0,4664.0,194.0,6419.0,-3031.0,-2383.0,5307.0,-560.0,-5867.0,-2876.0,0.939332,0.314631,0.135656,7518.0,546.0,12904.0,-877.0,-886.0,-669.0
2859.0,2768.0,2843.0,3071.0,2999.0,0.676758,0.465637,-0.470459,0.322205,-40.0,-79.0,-44.0,4204.0,129.0,6323.0,-3470.0,-2550.0,5309.0,-771.0,-5863.0,-3428.0,0.936834,0.327079,0.123667,7336.0,-8.0,12252.0,-912.0,-1802.0,-992.0
2859.0,2781.0,2847.0,3106.0,2999.0,0.67688,0.467163,-0.475708,0.311829,-38.0,-97.0,-51.0,4084.0,82.0,6199.0,-3578.0,-2668.0,5290.0,-815.0,-5819.0,-3655.0,0.935344,0.335748,0.110864,7562.0,-138.0,11510.0,-852.0,-2215.0,-1149.0
2859.0,2777.0,2851.0,3089.0,2999.0,0.673279,0.47406,-0.489258,0.287231,-28.0,-131.0,-61.0,3957.0,-149.0,5552.0,-3670.0,-3075.0,4964.0,-609.0,-5466.0,-4160.0,0.931144,0.357289,0.0717,7484.0,-1126.0,8368.0,-630.0,-3000.0,-1391.0
2861.0,2779.0,2855.0,3111.0,3007.0,0.662598,0.486816,-0.506775,0.258972,-10.0,-164.0,-65.0,3731.0,-217.0,4310.0,-3836.0,-3351.0,4209.0,-312.0,-4556.0,-4773.0,0.92372,0.382646,0.012291,6828.0,-26.0,4218.0,-209.0,-3736.0,-1486.0
2855.0,2777.0,2842.0,3063.0,2991.0,0.654419,0.495239,-0.516602,0.243835,-1.0,-175.0,-65.0,3674.0,94.0,3500.0,-3843.0,-3152.0,3700.0,-323.0,-3821.0,-4865.0,0.917661,0.396256,-0.024419,7118.0,2688.0,2034.0,-20.0,-4000.0,-1488.0
2851.0,2775.0,2847.0,3071.0,2991.0,0.635803,0.513855,-0.536072,0.210266,-9.0,-179.0,-67.0,3810.0,2248.0,1509.0,-3544.0,-1258.0,2352.0,-1258.0,-1544.0,-3962.0,0.897765,0.427986,-0.102962,8572.0,13510.0,-3822.0,-197.0,-4096.0,-1534.0
2855.0,2773.0,2843.0,3063.0,2995.0,0.621155,0.528076,-0.553955,0.168335,-63.0,-163.0,-71.0,4273.0,5424.0,-1566.0,-2821.0,1577.0,-160.0,-2100.0,1803.0,-1674.0,0.865971,0.469534,-0.171561,9682.0,18494.0,-14366.0,-1427.0,-3714.0,-1608.0
2855.0,2783.0,2849.0,3103.0,2995.0,0.614746,0.53302,-0.562744,0.145935,-70.0,-152.0,-68.0,4491.0,6124.0,-3615.0,-2451.0,2100.0,-1963.0,-1378.0,3456.0,-650.0,0.847462,0.491096,-0.201582,10524.0,15200.0,-19746.0,-1594.0,-3480.0,-1549.0
2861.0,2783.0,2855.0,3111.0,2999.0,0.598206,0.542419,-0.579346,0.110657,-28.0,-119.0,-44.0,5344.0,6804.0,-7160.0,-1317.0,2538.0,-5032.0,552.0,5546.0,1557.0,0.81318,0.52074,-0.259765,13752.0,16904.0,-23340.0,-637.0,-2722.0,-993.0
2862.0,2781.0,2847.0,3121.0,2995.0,0.580078,0.555115,-0.589294,0.089783,13.0,-75.0,-31.0,6070.0,8194.0,-9529.0,-347.0,3785.0,-6982.0,1106.0,6817.0,3935.0,0.783353,0.538203,-0.310869,13586.0,20434.0,-25320.0,317.0,-1701.0,-701.0
2862.0,2769.0,2838.0,3067.0,2995.0,0.571838,0.561035,-0.592712,0.08313,18.0,-58.0,-20.0,6327.0,8687.0,-10141.0,9.0,4237.0,-7419.0,1118.0,6997.0,4772.0,0.771149,0.543099,-0.332159,14120.0,20022.0,-23324.0,416.0,-1313.0,-446.0
2855.0,2768.0,2841.0,3067.0,2983.0,0.559814,0.568237,-0.598389,0.075134,7.0,-30.0,1.0,6610.0,8835.0,-10538.0,422.0,4359.0,-7573.0,1211.0,6742.0,5440.0,0.755361,0.546296,-0.361925,13888.0,16518.0,-21026.0,174.0,-673.0,28.0
2858.0,2787.0,2839.0,3071.0,2999.0,0.552856,0.570801,-0.602661,0.072876,4.0,-6.0,9.0,6918.0,7708.0,-9855.0,777.0,3257.0,-6757.0,1641.0,5486.0,4906.0,0.749565,0.543303,-0.378053,14700.0,11130.0,-16658.0,96.0,-125.0,215.0
2859.0,2768.0,2863.0,3131.0,3005.0,0.551147,0.570923,-0.603943,0.074036,4.0,6.0,12.0,7010.0,6952.0,-9215.0,863.0,2529.0,-6090.0,1812.0,4704.0,4335.0,0.75026,0.539899,-0.381455,14428.0,9398.0,-14434.0,112.0,139.0,282.0
2867.0,2795.0,2851.0,3095.0,3011.0,0.550476,0.569885,-0.604919,0.078735,1.0,20.0,12.0,6948.0,5556.0,-7727.0,757.0,1196.0,-4601.0,1916.0,3272.0,2963.0,0.755728,0.532159,-0.381474,13362.0,7176.0,-10742.0,34.0,473.0,292.0
2850.0,2775.0,2847.0,3071.0,3011.0,0.55127,0.569031,-0.604736,0.081299,-2.0,23.0,10.0,6820.0,4950.0,-6946.0,600.0,616.0,-3841.0,1879.0,2637.0,2237.0,0.759269,0.52905,-0.378994,12848.0,6334.0,-9176.0,-31.0,543.0,240.0
2851.0,2779.0,2859.0,3063.0,3005.0,0.55426,0.566833,-0.603394,0.085754,-7.0,23.0,4.0,6529.0,3915.0,-5453.0,253.0,-384.0,-2415.0,1744.0,1486.0,887.0,0.766091,0.524859,-0.370826,12072.0,5038.0,-6866.0,-138.0,536.0,110.0
2850.0,2775.0,2846.0,3095.0,2983.0,0.555908,0.565796,-0.6026,0.087341,-8.0,20.0,1.0,6402.0,3502.0,-4797.0,103.0,-788.0,-1793.0,1664.0,985.0,323.0,0.768815,0.523797,-0.366589,12088.0,4666.0,-5684.0,-177.0,462.0,44.0
2859.0,2797.0,2867.0,3127.0,2985.0,0.559326,0.563965,-0.600891,0.089294,-9.0,14.0,-4.0,6228.0,2975.0,-3676.0,-103.0,-1314.0,-740.0,1417.0,148.0,-502.0,0.772906,0.523568,-0.358307,11976.0,4730.0,-4446.0,-192.0,342.0,-79.0
2854.0,2789.0,2845.0,3071.0,3006.0,0.560913,0.563293,-0.599976,0.089783,-9.0,12.0,-5.0,6147.0,2831.0,-3256.0,-195.0,-1463.0,-351.0,1285.0,-139.0,-793.0,0.774216,0.524182,-0.354586,11812.0,4950.0,-4098.0,-188.0,283.0,-114.0
2861.0,2771.0,2843.0,3069.0,2997.0,0.56366,0.5625,-0.598145,0.089844,-8.0,7.0,-9.0,5944.0,2882.0,-2694.0,-407.0,-1432.0,160.0,907.0,-388.0,-1125.0,0.775374,0.526638,-0.348399,11116.0,6456.0,-4256.0,-182.0,181.0,-185.0
2859.0,2768.0,2846.0,3103.0,2979.0,0.56488,0.562378,-0.597229,0.089111,-10.0,4.0,-10.0,5825.0,3064.0,-2574.0,-523.0,-1268.0,259.0,689.0,-339.0,-1165.0,0.774954,0.528913,-0.345921,10966.0,7300.0,-4556.0,-221.0,111.0,-221.0
2863.0,2775.0,2875.0,3119.0,3014.0,0.567017,0.562256,-0.595764,0.085754,-15.0,-1.0,-13.0,5680.0,3480.0,-2659.0,-644.0,-906.0,144.0,434.0,-57.0,-1031.0,0.772048,0.535438,-0.342205,11128.0,8134.0,-6056.0,-324.0,-15.0,-279.0
2859.0,2783.0,2815.0,3089.0,2983.0,0.568237,0.562744,-0.594727,0.081787,-11.0,-2.0,-13.0,5714.0,3811.0,-3131.0,-576.0,-631.0,-339.0,518.0,358.0,-668.0,0.767942,0.542262,-0.340798,11502.0,8776.0,-8164.0,-237.0,-23.0,-290.0
2859.0,2779.0,2839.0,3094.0,2994.0,0.568237,0.563416,-0.594299,0.080139,-7.0,-1.0,-12.0,5710.0,4072.0,-3504.0,-562.0,-393.0,-707.0,554.0,706.0,-403.0,0.765709,0.545054,-0.341313,11422.0,9800.0,-9324.0,-150.0,-12.0,-264.0
2849.0,2781.0,2853.0,3071.0,3007.0,0.567261,0.565491,-0.593567,0.077698,-1.0,1.0,-8.0,5821.0,4691.0,-4330.0,-415.0,190.0,-1509.0,621.0,1415.0,307.0,0.761289,0.549324,-0.34428,12248.0,11314.0,-11058.0,-8.0,28.0,-166.0
2859.0,2787.0,2815.0,3099.0,2991.0,0.56665,0.566528,-0.593262,0.077148,1.0,4.0,-4.0,5953.0,5013.0,-4721.0,-270.0,503.0,-1887.0,644.0,1716.0,724.0,0.759758,0.550509,-0.345869,12766.0,11926.0,-11800.0,35.0,96.0,-81.0
2861.0,2751.0,2859.0,3119.0,3007.0,0.565796,0.567932,-0.59259,0.078369,5.0,15.0,4.0,6316.0,5478.0,-5346.0,93.0,974.0,-2499.0,737.0,2117.0,1474.0,0.759587,0.549786,-0.347443,13652.0,12192.0,-12442.0,124.0,360.0,103.0
2859.0,2774.0,2846.0,3102.0,2979.0,0.565735,0.56842,-0.591919,0.080383,8.0,22.0,8.0,6471.0,5636.0,-5589.0,235.0,1146.0,-2746.0,780.0,2281.0,1759.0,0.761121,0.54799,-0.346952,13858.0,12130.0,-12500.0,184.0,521.0,186.0
2861.0,2751.0,2842.0,3089.0,3023.0,0.566528,0.568604,-0.590027,0.086792,10.0,34.0,16.0,6641.0,5819.0,-5855.0,355.0,1380.0,-3045.0,775.0,2537.0,2064.0,0.767234,0.541841,-0.342954,13554.0,11984.0,-12192.0,235.0,782.0,374.0
2847.0,2785.0,2863.0,3111.0,2989.0,0.567322,0.568176,-0.58905,0.090881,9.0,37.0,20.0,6677.0,5882.0,-5859.0,355.0,1477.0,-3076.0,700.0,2610.0,2112.0,0.771635,0.53761,-0.339691,13542.0,12146.0,-11580.0,221.0,864.0,468.0
2864.0,2773.0,2838.0,3088.0,3007.0,0.570251,0.565979,-0.586914,0.100037,5.0,45.0,26.0,6745.0,5929.0,-5716.0,333.0,1603.0,-3015.0,525.0,2660.0,2100.0,0.782614,0.528075,-0.329606,13720.0,11688.0,-10894.0,135.0,1036.0,611.0
2854.0,2767.0,2839.0,3071.0,2993.0,0.572205,0.564331,-0.585632,0.105286,5.0,49.0,29.0,6813.0,5809.0,-5601.0,349.0,1528.0,-2955.0,537.0,2604.0,2028.0,0.789035,0.522508,-0.322932,14096.0,10732.0,-10472.0,134.0,1145.0,670.0
2864.0,2777.0,2835.0,3099.0,2991.0,0.576599,0.560303,-0.582642,0.118591,13.0,61.0,37.0,6867.0,5457.0,-5352.0,274.0,1295.0,-2838.0,587.0,2529.0,1749.0,0.804795,0.507948,-0.30688,13570.0,9776.0,-10170.0,301.0,1403.0,848.0
2865.0,2779.0,2822.0,3125.0,3010.0,0.578552,0.558167,-0.581055,0.126709,18.0,65.0,42.0,6874.0,5278.0,-5215.0,207.0,1193.0,-2770.0,582.0,2504.0,1589.0,0.81379,0.498607,-0.298397,13940.0,9496.0,-9440.0,428.0,1494.0,968.0
2845.0,2765.0,2847.0,3121.0,2967.0,0.582214,0.553406,-0.577332,0.146362,29.0,74.0,54.0,6896.0,5146.0,-4813.0,61.0,1251.0,-2526.0,294.0,2457.0,1350.0,0.834257,0.475402,-0.279174,13710.0,10356.0,-8288.0,682.0,1709.0,1237.0
2859.0,2747.0,2865.0,3071.0,3003.0,0.58606,0.547546,-0.573059,0.168335,28.0,80.0,62.0,6767.0,5335.0,-4330.0,-245.0,1657.0,-2229.0,-350.0,2535.0,1105.0,0.856036,0.448858,-0.256401,12964.0,11324.0,-7196.0,658.0,1837.0,1437.0
2861.0,2787.0,2869.0,3071.0,2991.0,0.58844,0.543701,-0.570862,0.17926,23.0,81.0,65.0,6716.0,5423.0,-4032.0,-384.0,1857.0,-2040.0,-680.0,2519.0,971.0,0.866764,0.435205,-0.243098,13176.0,11390.0,-6146.0,535.0,1863.0,1503.0
2864.0,2783.0,2867.0,3057.0,3007.0,0.595215,0.533508,-0.566467,0.200439,7.0,87.0,70.0,6691.0,5460.0,-3345.0,-585.0,2117.0,-1615.0,-1203.0,2348.0,685.0,0.888212,0.408019,-0.21106,13536.0,10510.0,-4522.0,164.0,2002.0,1618.0
2847.0,2747.0,2831.0,3088.0,3015.0,0.59967,0.526733,-0.564209,0.21106,-1.0,92.0,73.0,6720.0,5227.0,-2970.0,-644.0,2002.0,-1400.0,-1237.0,2150.0,477.0,0.899023,0.393569,-0.191629,13590.0,8716.0,-3694.0,-2.0,2112.0,1682.0
2838.0,2768.0,2847.0,3071.0,3007.0,0.609131,0.511719,-0.55896,0.233704,2.0,100.0,72.0,6584.0,4271.0,-2256.0,-953.0,1304.0,-1038.0,-912.0,1670.0,-250.0,0.920141,0.362145,-0.148635,12430.0,5372.0,-2252.0,48.0,2299.0,1667.0
2871.0,2787.0,2859.0,3071.0,3007.0,0.613525,0.504456,-0.555603,0.245667,8.0,101.0,70.0,6430.0,3724.0,-1841.0,-1185.0,889.0,-805.0,-727.0,1354.0,-692.0,0.929609,0.346006,-0.126405,11886.0,4194.0,-1096.0,188.0,2314.0,1619.0
2835.0,2755.0,2832.0,3071.0,3007.0,0.621033,0.490967,-0.547913,0.270264,18.0,95.0,66.0,6051.0,2787.0,-806.0,-1698.0,217.0,-129.0,-566.0,541.0,-1527.0,0.945924,0.313651,-0.082533,10872.0,3206.0,1714.0,417.0,2198.0,1517.0
2867.0,2783.0,2846.0,3071.0,2966.0,0.627441,0.47876,-0.539551,0.293152,16.0,83.0,57.0,5663.0,2146.0,349.0,-2183.0,-184.0,682.0,-644.0,-368.0,-2170.0,0.957772,0.284447,-0.040705,10370.0,2402.0,4370.0,387.0,1923.0,1325.0
2861.0,2774.0,2825.0,3119.0,2983.0,0.630615,0.472595,-0.535645,0.303223,10.0,77.0,53.0,5515.0,1819.0,971.0,-2367.0,-402.0,1140.0,-659.0,-905.0,-2410.0,0.962174,0.271212,-0.020642,10134.0,1640.0,5678.0,249.0,1769.0,1232.0
2864.0,2797.0,2841.0,3091.0,3007.0,0.637085,0.459778,-0.529358,0.320129,-2.0,60.0,43.0,5164.0,895.0,2041.0,-2772.0,-1127.0,1903.0,-365.0,-1960.0,-2932.0,0.968869,0.246909,0.016745,9314.0,-1460.0,7166.0,-42.0,1385.0,991.0
2865.0,2799.0,2837.0,3069.0,3019.0,0.640015,0.453552,-0.526978,0.326965,-5.0,51.0,36.0,5029.0,319.0,2558.0,-2926.0,-1613.0,2286.0,-92.0,-2545.0,-3146.0,0.971138,0.235953,0.03311,9318.0,-2828.0,8210.0,-98.0,1182.0,829.0
2864.0,2798.0,2855.0,3063.0,3003.0,0.645325,0.442932,-0.522583,0.337952,-4.0,35.0,18.0,4853.0,-789.0,3527.0,-3124.0,-2578.0,3024.0,479.0,-3690.0,-3419.0,0.973851,0.218455,0.061373,9232.0,-4702.0,9784.0,-69.0,823.0,428.0
2843.0,2774.0,2849.0,3088.0,3007.0,0.647705,0.438782,-0.520508,0.342041,-3.0,27.0,9.0,4777.0,-1256.0,3956.0,-3205.0,-2995.0,3357.0,720.0,-4200.0,-3513.0,0.974434,0.212332,0.073056,9112.0,-5210.0,10470.0,-46.0,628.0,221.0
2864.0,2783.0,2832.0,3071.0,3005.0,0.651794,0.432983,-0.517029,0.346985,-3.0,7.0,-7.0,4662.0,-1989.0,4770.0,-3320.0,-3673.0,4029.0,1055.0,-5146.0,-3626.0,0.97447,0.20563,0.090441,9062.0,-5710.0,11828.0,-60.0,178.0,-149.0
2849.0,2767.0,2847.0,3091.0,2992.0,0.653503,0.431152,-0.51593,0.347595,-5.0,-4.0,-15.0,4611.0,-2203.0,5093.0,-3368.0,-3881.0,4308.0,1115.0,-5504.0,-3662.0,0.974057,0.204849,0.095813,8900.0,-5562.0,12012.0,-113.0,-84.0,-324.0
2855.0,2783.0,2833.0,3062.0,3018.0,0.656006,0.430176,-0.515869,0.344116,-11.0,-31.0,-32.0,4519.0,-2428.0,5492.0,-3450.0,-4143.0,4692.0,1126.0,-5968.0,-3765.0,0.972887,0.209358,0.097587,8866.0,-5264.0,11900.0,-244.0,-701.0,-726.0
2851.0,2768.0,2848.0,3059.0,2983.0,0.657043,0.433044,-0.51886,0.333984,-16.0,-60.0,-50.0,4467.0,-2474.0,5604.0,-3488.0,-4296.0,4895.0,1062.0,-6171.0,-3919.0,0.971087,0.222476,0.086509,8726.0,-4950.0,11096.0,-356.0,-1358.0,-1134.0
2858.0,2767.0,2847.0,3095.0,2999.0,0.656677,0.436035,-0.521545,0.326416,-17.0,-75.0,-59.0,4437.0,-2430.0,5509.0,-3506.0,-4332.0,4889.0,1019.0,-6134.0,-4035.0,0.969632,0.232187,0.075636,8708.0,-4504.0,10340.0,-385.0,-1699.0,-1341.0
2851.0,2771.0,2834.0,3095.0,2989.0,0.65387,0.445679,-0.529175,0.306213,-17.0,-104.0,-77.0,4457.0,-2210.0,5074.0,-3448.0,-4329.0,4724.0,925.0,-5835.0,-4245.0,0.964968,0.258751,0.042657,9182.0,-3580.0,8458.0,-389.0,-2375.0,-1746.0
2863.0,2781.0,2827.0,3071.0,3013.0,0.647644,0.460144,-0.538818,0.280151,-13.0,-127.0,-93.0,4598.0,-1807.0,4314.0,-3231.0,-4216.0,4347.0,859.0,-5242.0,-4345.0,0.955745,0.294118,-0.00413,9610.0,-2010.0,6008.0,-280.0,-2892.0,-2126.0
2861.0,2775.0,2846.0,3090.0,3007.0,0.643372,0.469177,-0.54364,0.265259,-9.0,-134.0,-102.0,4609.0,-1470.0,3783.0,-3160.0,-4052.0,4040.0,782.0,-4768.0,-4401.0,0.948432,0.3153,-0.031383,9138.0,-720.0,4130.0,-191.0,-3062.0,-2335.0
2861.0,2774.0,2832.0,3087.0,3019.0,0.63208,0.491516,-0.552368,0.231689,0.0,-148.0,-119.0,4382.0,-86.0,2174.0,-3204.0,-3079.0,2939.0,286.0,-3037.0,-4366.0,0.92604,0.365399,-0.093493,8086.0,5612.0,-1330.0,10.0,-3373.0,-2706.0
2847.0,2783.0,2859.0,3088.0,3003.0,0.618225,0.516602,-0.560486,0.19165,-14.0,-153.0,-121.0,4416.0,2785.0,-189.0,-2883.0,-687.0,1138.0,-862.0,-254.0,-3044.0,0.891027,0.423917,-0.162089,9508.0,15494.0,-8326.0,-319.0,-3494.0,-2752.0
2863.0,2773.0,2849.0,3071.0,3006.0,0.605835,0.536438,-0.568726,0.147217,-46.0,-137.0,-103.0,5074.0,5474.0,-3049.0,-1865.0,1521.0,-1226.0,-1125.0,2387.0,-573.0,0.847053,0.482534,-0.222506,12424.0,16738.0,-14848.0,-1049.0,-3122.0,-2357.0
2851.0,2767.0,2837.0,3093.0,2997.0,0.599915,0.543762,-0.572876,0.127502,-40.0,-119.0,-88.0,5331.0,6130.0,-4599.0,-1435.0,1982.0,-2569.0,-574.0,3471.0,454.0,0.826015,0.506336,-0.24771,11848.0,15802.0,-18738.0,-903.0,-2709.0,-2008.0
2847.0,2756.0,2847.0,3103.0,3006.0,0.583496,0.559998,-0.579529,0.100281,20.0,-84.0,-59.0,5719.0,6878.0,-7481.0,-741.0,2476.0,-5032.0,712.0,5140.0,2250.0,0.78862,0.537282,-0.298927,13384.0,16158.0,-20982.0,481.0,-1910.0,-1348.0
2859.0,2779.0,2833.0,3095.0,2983.0,0.565186,0.577637,-0.582153,0.088867,47.0,-50.0,-29.0,6054.0,8706.0,-8798.0,-177.0,4204.0,-5969.0,11.0,5948.0,4236.0,0.760715,0.549475,-0.345235,13154.0,23364.0,-19644.0,1090.0,-1127.0,-656.0
2846.0,2761.0,2837.0,3103.0,2993.0,0.558533,0.583618,-0.583313,0.084534,26.0,-40.0,-14.0,6214.0,9616.0,-8972.0,67.0,5083.0,-6008.0,-598.0,6017.0,5036.0,0.75027,0.55332,-0.361759,13424.0,24302.0,-18450.0,615.0,-903.0,-302.0
2839.0,2807.0,2827.0,3099.0,2983.0,0.553589,0.586853,-0.585938,0.076233,-21.0,-15.0,4.0,6667.0,9954.0,-8466.0,619.0,5363.0,-5390.0,-939.0,5216.0,5486.0,0.738212,0.560415,-0.375447,14580.0,18262.0,-14826.0,-471.0,-337.0,96.0
2870.0,2769.0,2851.0,3071.0,2998.0,0.556091,0.582581,-0.588501,0.070862,-36.0,4.0,12.0,6763.0,8270.0,-7632.0,724.0,3645.0,-4588.0,52.0,4050.0,4295.0,0.737086,0.564532,-0.371475,13328.0,10026.0,-12514.0,-809.0,103.0,277.0
2826.0,2739.0,2863.0,3071.0,3024.0,0.557617,0.579956,-0.589661,0.07019,-28.0,9.0,12.0,6679.0,7147.0,-7122.0,624.0,2526.0,-4105.0,623.0,3418.0,3397.0,0.739025,0.56401,-0.368185,12784.0,7570.0,-11086.0,-629.0,218.0,297.0
2865.0,2775.0,2834.0,3095.0,2951.0,0.559143,0.576721,-0.591187,0.072083,-5.0,10.0,9.0,6439.0,5251.0,-5955.0,342.0,665.0,-2970.0,1308.0,2178.0,1708.0,0.744259,0.559711,-0.364272,12164.0,5758.0,-8254.0,-109.0,250.0,209.0
2849.0,2775.0,2847.0,3087.0,2999.0,0.559082,0.576294,-0.591431,0.073792,3.0,9.0,6.0,6328.0,4662.0,-5353.0,213.0,98.0,-2372.0,1353.0,1639.0,1076.0,0.746368,0.557106,-0.363887,12000.0,6144.0,-7204.0,88.0,212.0,141.0
2864.0,2783.0,2851.0,3103.0,2999.0,0.558289,0.576538,-0.591614,0.07666,6.0,2.0,1.0,6226.0,4142.0,-4225.0,90.0,-388.0,-1236.0,1031.0,728.0,303.0,0.748977,0.553043,-0.36484,12432.0,7562.0,-5086.0,150.0,57.0,36.0
2858.0,2741.0,2833.0,3043.0,2967.0,0.558228,0.576599,-0.591553,0.077209,2.0,1.0,-1.0,6231.0,4116.0,-3733.0,91.0,-409.0,-744.0,765.0,360.0,113.0,0.74948,0.5524,-0.364822,12508.0,8208.0,-4628.0,54.0,25.0,-9.0
2871.0,2762.0,2834.0,3111.0,2995.0,0.559692,0.575928,-0.590881,0.076721,-10.0,2.0,-4.0,6176.0,4197.0,-3023.0,33.0,-341.0,-60.0,305.0,-86.0,-142.0,0.749795,0.554018,-0.361692,11958.0,8764.0,-4402.0,-221.0,57.0,-86.0
2843.0,2783.0,2847.0,3091.0,3007.0,0.561157,0.575073,-0.590454,0.075623,-16.0,2.0,-5.0,6075.0,4235.0,-2858.0,-66.0,-320.0,80.0,179.0,-124.0,-256.0,0.749652,0.55611,-0.358729,11482.0,8576.0,-4974.0,-363.0,67.0,-99.0
2843.0,2779.0,2854.0,3088.0,2983.0,0.563904,0.573303,-0.589966,0.072815,-16.0,0.0,-5.0,5827.0,4054.0,-2899.0,-307.0,-538.0,-3.0,319.0,6.0,-530.0,0.748858,0.560659,-0.353447,10936.0,7284.0,-6306.0,-357.0,21.0,-111.0
2851.0,2761.0,2839.0,3087.0,2967.0,0.564331,0.573059,-0.589844,0.071777,-8.0,-1.0,-7.0,5718.0,3917.0,-3031.0,-409.0,-687.0,-141.0,482.0,117.0,-642.0,0.748,0.562115,-0.352691,10798.0,7038.0,-6948.0,-176.0,-19.0,-138.0
2847.0,2762.0,2833.0,3071.0,2971.0,0.562439,0.575195,-0.589722,0.070984,11.0,-6.0,-9.0,5594.0,3984.0,-3370.0,-509.0,-630.0,-443.0,585.0,421.0,-575.0,0.745024,0.563303,-0.357245,11146.0,8872.0,-7640.0,254.0,-119.0,-191.0
2847.0,2781.0,2862.0,3099.0,2991.0,0.560669,0.577087,-0.589539,0.070862,15.0,-7.0,-9.0,5628.0,4247.0,-3502.0,-457.0,-369.0,-542.0,459.0,551.0,-351.0,0.742859,0.563558,-0.361215,11568.0,10260.0,-7788.0,351.0,-140.0,-189.0
2861.0,2751.0,2850.0,3095.0,2995.0,0.557739,0.580505,-0.588989,0.070557,10.0,-3.0,-5.0,5869.0,4977.0,-3746.0,-184.0,353.0,-732.0,97.0,757.0,332.0,0.738922,0.564427,-0.367844,12720.0,12112.0,-8146.0,235.0,-58.0,-113.0
2863.0,2765.0,2833.0,3088.0,2993.0,0.557251,0.581482,-0.588562,0.070496,5.0,2.0,-3.0,6018.0,5273.0,-3887.0,-27.0,643.0,-863.0,-3.0,849.0,661.0,0.737937,0.565081,-0.369028,12866.0,12118.0,-8744.0,116.0,68.0,-65.0
2851.0,2751.0,2829.0,3095.0,3019.0,0.557556,0.582275,-0.58728,0.07135,1.0,13.0,1.0,6127.0,5474.0,-4309.0,81.0,841.0,-1294.0,122.0,1161.0,1011.0,0.737974,0.565497,-0.367983,12260.0,11124.0,-9950.0,26.0,299.0,35.0
2863.0,2778.0,2855.0,3095.0,3023.0,0.557861,0.58252,-0.58667,0.072449,2.0,15.0,3.0,6089.0,5500.0,-4522.0,35.0,872.0,-1515.0,207.0,1363.0,1074.0,0.738967,0.564923,-0.367053,11888.0,11212.0,-10316.0,60.0,362.0,82.0
2863.0,2775.0,2847.0,3089.0,2999.0,0.558105,0.58313,-0.585449,0.075684,7.0,18.0,7.0,6041.0,5511.0,-4859.0,-35.0,904.0,-1864.0,349.0,1678.0,1163.0,0.741752,0.562278,-0.365582,12104.0,10908.0,-10546.0,163.0,423.0,169.0
2859.0,2750.0,2838.0,3071.0,2995.0,0.558044,0.583496,-0.584839,0.078003,11.0,20.0,8.0,6053.0,5483.0,-4975.0,-39.0,895.0,-1984.0,413.0,1770.0,1196.0,0.743761,0.559995,-0.365006,12216.0,10764.0,-10592.0,253.0,467.0,197.0
2845.0,2775.0,2851.0,3047.0,2971.0,0.557495,0.584839,-0.58313,0.084351,19.0,26.0,10.0,6175.0,5535.0,-5086.0,40.0,998.0,-2102.0,396.0,1855.0,1348.0,0.748847,0.553715,-0.364161,12922.0,11552.0,-10234.0,441.0,606.0,243.0
2864.0,2773.0,2843.0,3071.0,3023.0,0.557495,0.58551,-0.581848,0.088318,20.0,31.0,12.0,6272.0,5651.0,-5075.0,110.0,1144.0,-2103.0,288.0,1866.0,1474.0,0.752177,0.550063,-0.362769,13168.0,12022.0,-10034.0,465.0,714.0,286.0
2857.0,2774.0,2859.0,3099.0,3007.0,0.55896,0.585693,-0.578796,0.097351,15.0,40.0,18.0,6401.0,5932.0,-5008.0,166.0,1491.0,-2090.0,-7.0,1949.0,1678.0,0.761084,0.542065,-0.356129,12844.0,12738.0,-10040.0,350.0,934.0,432.0
2869.0,2770.0,2845.0,3071.0,2989.0,0.560303,0.585205,-0.577209,0.102051,12.0,43.0,20.0,6381.0,6034.0,-5037.0,103.0,1626.0,-2159.0,-113.0,2090.0,1712.0,0.766265,0.537975,-0.351282,12654.0,12576.0,-10232.0,279.0,996.0,479.0
2855.0,2757.0,2833.0,3071.0,2993.0,0.563721,0.583008,-0.574158,0.112,8.0,48.0,26.0,6375.0,6069.0,-5076.0,2.0,1737.0,-2297.0,-194.0,2316.0,1699.0,0.777922,0.528696,-0.33923,12602.0,12024.0,-10408.0,197.0,1108.0,612.0
2854.0,2771.0,2851.0,3071.0,2995.0,0.56543,0.581726,-0.572693,0.117493,10.0,50.0,28.0,6359.0,6015.0,-5153.0,-66.0,1728.0,-2426.0,-162.0,2468.0,1659.0,0.784332,0.523276,-0.332867,12718.0,11590.0,-10744.0,239.0,1156.0,654.0
2859.0,2775.0,2843.0,3103.0,2991.0,0.568604,0.579163,-0.569519,0.130066,16.0,56.0,32.0,6407.0,5925.0,-5204.0,-132.0,1743.0,-2586.0,-164.0,2668.0,1610.0,0.79832,0.510478,-0.319554,13048.0,11638.0,-10372.0,377.0,1294.0,739.0
2859.0,2775.0,2839.0,3089.0,2987.0,0.572632,0.575562,-0.565613,0.14447,12.0,66.0,39.0,6482.0,6009.0,-5010.0,-186.0,1947.0,-2532.0,-429.0,2748.0,1579.0,0.814079,0.495741,-0.30241,13114.0,12172.0,-9320.0,295.0,1517.0,904.0
2855.0,2771.0,2838.0,3062.0,3007.0,0.575623,0.572632,-0.563538,0.152222,7.0,72.0,44.0,6502.0,5949.0,-4836.0,-240.0,1953.0,-2452.0,-515.0,2731.0,1468.0,0.823104,0.487674,-0.290969,13092.0,11370.0,-8528.0,175.0,1652.0,1024.0
2863.0,2779.0,2851.0,3063.0,3003.0,0.583496,0.563782,-0.559448,0.169373,-3.0,82.0,56.0,6322.0,5669.0,-4368.0,-590.0,1831.0,-2224.0,-676.0,2702.0,941.0,0.84385,0.468419,-0.261677,11778.0,10104.0,-7394.0,-49.0,1895.0,1290.0
2859.0,2783.0,2850.0,3095.0,3015.0,0.58783,0.558228,-0.557678,0.178528,-4.0,84.0,61.0,6264.0,5277.0,-4034.0,-739.0,1531.0,-2025.0,-582.0,2516.0,564.0,0.854958,0.457163,-0.245207,12346.0,7848.0,-5784.0,-85.0,1934.0,1409.0
2863.0,2775.0,2837.0,3103.0,2994.0,0.595703,0.545837,-0.554138,0.200134,9.0,89.0,68.0,6171.0,4122.0,-3187.0,-1027.0,611.0,-1465.0,-182.0,1851.0,-332.0,0.878685,0.42851,-0.210092,11844.0,4540.0,-3738.0,218.0,2051.0,1569.0
2858.0,2767.0,2839.0,3087.0,2983.0,0.598633,0.540283,-0.55188,0.212524,21.0,89.0,68.0,6064.0,3555.0,-2709.0,-1230.0,177.0,-1128.0,-33.0,1472.0,-804.0,0.890394,0.412287,-0.192949,11490.0,3816.0,-2468.0,488.0,2055.0,1563.0
2864.0,2768.0,2847.0,3067.0,2547.0,0.602722,0.530823,-0.545959,0.238525,35.0,86.0,64.0,5874.0,2750.0,-1536.0,-1591.0,-358.0,-227.0,-59.0,553.0,-1549.0,0.911353,0.379427,-0.159676,11040.0,3808.0,738.0,819.0,1973.0,1467.0
2865.0,2770.0,2843.0,3067.0,2995.0,0.002014,0.005005,0.003601,0.350098,2561.0,-881.0,-19862.0,-23354.0,10817.0,4702.0,-23382.0,10796.0,3698.0,2863.0,-1347.0,398.0,0.00349,0.002542,0.122534,10552.0,3922.0,3712.0,603.0,1774.0,1198.0
2855.0,2768.0,2837.0,3103.0,2999.0,0.610046,0.517334,-0.535034,0.271912,15.0,72.0,45.0,5545.0,2246.0,500.0,-2107.0,-541.0,1383.0,-623.0,-979.0,-2301.0,0.93413,0.340231,-0.107804,10740.0,3468.0,5224.0,351.0,1670.0,1034.0
2859.0,2774.0,2837.0,3089.0,2987.0,0.618652,0.506042,-0.527954,0.286987,-10.0,64.0,29.0,5575.0,1624.0,1843.0,-2155.0,-1022.0,2414.0,-565.0,-2186.0,-2532.0,0.943696,0.323096,-0.069722,11450.0,666.0,7536.0,-229.0,1483.0,675.0
2851.0,2768.0,2841.0,3063.0,2991.0,0.62384,0.499756,-0.524719,0.292725,-18.0,61.0,21.0,5614.0,1085.0,2414.0,-2145.0,-1506.0,2825.0,-279.0,-2783.0,-2650.0,0.947264,0.316339,-0.050222,11432.0,-1284.0,8100.0,-409.0,1399.0,495.0
2855.0,2767.0,2835.0,3071.0,2993.0,0.63385,0.487976,-0.518555,0.301941,-16.0,48.0,6.0,5529.0,-305.0,3330.0,-2270.0,-2807.0,3445.0,610.0,-3888.0,-3067.0,0.952052,0.305462,-0.014085,10438.0,-4868.0,9196.0,-353.0,1110.0,158.0
2854.0,2779.0,2845.0,3071.0,2999.0,0.640564,0.480347,-0.513062,0.309265,0.0,24.0,-3.0,5202.0,-1352.0,4123.0,-2616.0,-3793.0,4024.0,1184.0,-4817.0,-3578.0,0.954406,0.298041,0.012002,9336.0,-5002.0,10628.0,4.0,558.0,-55.0
2853.0,2774.0,2847.0,3102.0,2999.0,0.642456,0.478333,-0.511108,0.311768,4.0,9.0,-7.0,5022.0,-1566.0,4498.0,-2801.0,-3990.0,4334.0,1202.0,-5185.0,-3769.0,0.954987,0.295921,0.019915,8964.0,-4068.0,11166.0,105.0,222.0,-138.0
2859.0,2775.0,2847.0,3091.0,2999.0,0.644104,0.47699,-0.509766,0.312561,2.0,-22.0,-17.0,4748.0,-1710.0,5026.0,-3074.0,-4133.0,4819.0,1070.0,-5684.0,-4036.0,0.954861,0.295796,0.025184,8912.0,-3954.0,11364.0,48.0,-501.0,-371.0
2831.0,2775.0,2845.0,3067.0,2991.0,0.643982,0.477539,-0.510315,0.311035,3.0,-35.0,-22.0,4674.0,-1797.0,5163.0,-3143.0,-4234.0,4974.0,1070.0,-5848.0,-4145.0,0.95433,0.297601,0.022991,8870.0,-4082.0,10970.0,70.0,-799.0,-497.0
2855.0,2769.0,2837.0,3067.0,2990.0,0.641541,0.48175,-0.513123,0.304871,7.0,-58.0,-34.0,4568.0,-1865.0,5248.0,-3231.0,-4365.0,5173.0,1050.0,-6009.0,-4361.0,0.952121,0.305253,0.009142,8974.0,-3924.0,10458.0,162.0,-1325.0,-768.0
2855.0,2767.0,2843.0,3071.0,2999.0,0.636658,0.48938,-0.517517,0.29541,12.0,-75.0,-42.0,4573.0,-1883.0,5128.0,-3193.0,-4482.0,5248.0,1090.0,-6011.0,-4526.0,0.948098,0.317375,-0.014716,9228.0,-3280.0,9834.0,297.0,-1715.0,-950.0
2855.0,2783.0,2849.0,3099.0,2999.0,0.633423,0.494263,-0.520081,0.289734,14.0,-82.0,-45.0,4545.0,-1652.0,5016.0,-3198.0,-4312.0,5258.0,910.0,-5887.0,-4579.0,0.945271,0.324785,-0.029609,8814.0,-1614.0,9212.0,329.0,-1875.0,-1027.0
2855.0,2783.0,2847.0,3089.0,2999.0,0.626282,0.505981,-0.526123,0.273682,3.0,-103.0,-57.0,4381.0,-721.0,4592.0,-3286.0,-3553.0,5130.0,175.0,-5306.0,-4641.0,0.935958,0.345793,-0.065692,8258.0,1700.0,7584.0,90.0,-2345.0,-1298.0
2859.0,2785.0,2847.0,3095.0,2995.0,0.618408,0.519592,-0.534302,0.249268,-11.0,-125.0,-76.0,4367.0,141.0,3752.0,-3168.0,-2941.0,4660.0,-298.0,-4441.0,-4537.0,0.919868,0.376272,-0.110891,9192.0,2324.0,4456.0,-245.0,-2863.0,-1727.0
2851.0,2778.0,2847.0,3069.0,2995.0,0.613831,0.527222,-0.538696,0.234558,-12.0,-131.0,-86.0,4492.0,446.0,3121.0,-2951.0,-2786.0,4237.0,-282.0,-3917.0,-4358.0,0.908665,0.394538,-0.136351,9754.0,2672.0,2176.0,-263.0,-2998.0,-1952.0
2853.0,2769.0,2838.0,3063.0,2995.0,0.6026,0.546326,-0.545227,0.202698,2.0,-130.0,-106.0,4527.0,1422.0,1099.0,-2670.0,-2161.0,2668.0,-209.0,-2101.0,-3802.0,0.878586,0.437399,-0.191531,8610.0,6690.0,-5036.0,58.0,-2968.0,-2423.0
2853.0,2783.0,2850.0,3061.0,2993.0,0.58667,0.571533,-0.548279,0.169006,24.0,-130.0,-112.0,4179.0,3119.0,-1783.0,-2673.0,-856.0,301.0,-342.0,639.0,-2727.0,0.836503,0.485277,-0.254515,7384.0,12070.0,-12456.0,550.0,-2967.0,-2561.0
2855.0,2787.0,2855.0,3103.0,2997.0,0.576782,0.584839,-0.549622,0.152283,28.0,-130.0,-104.0,3974.0,4312.0,-3343.0,-2679.0,156.0,-981.0,-616.0,2119.0,-1813.0,0.812146,0.507254,-0.288253,6666.0,16240.0,-16266.0,648.0,-2967.0,-2373.0
2855.0,2783.0,2851.0,3107.0,2995.0,0.55658,0.608826,-0.552795,0.118103,8.0,-122.0,-87.0,4123.0,7311.0,-6408.0,-2096.0,2828.0,-3520.0,-1372.0,4633.0,1197.0,0.759158,0.547146,-0.352522,9664.0,23478.0,-21300.0,196.0,-2780.0,-1983.0
2863.0,2783.0,2843.0,3107.0,2997.0,0.542358,0.625854,-0.553955,0.085144,-13.0,-86.0,-81.0,4998.0,9084.0,-8498.0,-797.0,4295.0,-5244.0,-1078.0,5401.0,4029.0,0.70746,0.584543,-0.397158,12788.0,20992.0,-21776.0,-294.0,-1953.0,-1843.0
2851.0,2781.0,2848.0,3063.0,2995.0,0.537537,0.632202,-0.553223,0.072327,-15.0,-65.0,-70.0,5279.0,9154.0,-9179.0,-342.0,4241.0,-5807.0,-502.0,5430.0,4698.0,0.686205,0.599638,-0.411558,11816.0,17964.0,-22364.0,-327.0,-1467.0,-1595.0
2853.0,2779.0,2847.0,3071.0,2999.0,0.528809,0.641174,-0.553284,0.055969,-3.0,-38.0,-29.0,5446.0,8758.0,-9710.0,64.0,3710.0,-6150.0,329.0,5146.0,4999.0,0.656934,0.616183,-0.434456,11584.0,16706.0,-18966.0,-68.0,-852.0,-643.0
2853.0,2775.0,2847.0,3071.0,2997.0,0.524719,0.643616,-0.554993,0.048767,-13.0,-12.0,1.0,5694.0,8738.0,-8874.0,408.0,3648.0,-5232.0,80.0,4154.0,4855.0,0.645205,0.621304,-0.44455,11934.0,16948.0,-14526.0,-290.0,-273.0,27.0
2863.0,2782.0,2853.0,3107.0,3007.0,0.525208,0.642578,-0.555908,0.046631,-22.0,-3.0,7.0,5700.0,8420.0,-8314.0,425.0,3315.0,-4677.0,80.0,3679.0,4415.0,0.643862,0.623129,-0.443923,11254.0,14448.0,-13314.0,-497.0,-62.0,181.0
2862.0,2773.0,2845.0,3119.0,3006.0,0.527039,0.639587,-0.5578,0.044434,-18.0,2.0,7.0,5497.0,7080.0,-7309.0,214.0,1963.0,-3700.0,552.0,2884.0,2993.0,0.644803,0.624604,-0.440469,10340.0,9792.0,-11744.0,-400.0,52.0,179.0
2855.0,2775.0,2838.0,3071.0,2998.0,0.5271,0.638977,-0.558533,0.044189,-8.0,1.0,3.0,5443.0,6396.0,-6821.0,156.0,1282.0,-3212.0,793.0,2448.0,2315.0,0.645277,0.624247,-0.440464,10730.0,8804.0,-10654.0,-170.0,36.0,89.0
2867.0,2771.0,2854.0,3071.0,2995.0,0.525818,0.63916,-0.559387,0.045532,6.0,1.0,3.0,5578.0,5579.0,-5818.0,282.0,489.0,-2189.0,891.0,1482.0,1455.0,0.646476,0.621223,-0.442882,11766.0,9720.0,-8820.0,139.0,42.0,75.0
2863.0,2781.0,2864.0,3103.0,2997.0,0.52533,0.63916,-0.559753,0.04657,4.0,2.0,5.0,5686.0,5449.0,-5386.0,380.0,374.0,-1751.0,779.0,1080.0,1254.0,0.647641,0.619404,-0.44371,12036.0,10270.0,-8238.0,101.0,66.0,123.0
2865.0,2779.0,2834.0,3088.0,3007.0,0.525879,0.638062,-0.560303,0.04834,-4.0,5.0,6.0,5736.0,5326.0,-4783.0,403.0,272.0,-1160.0,551.0,622.0,943.0,0.65099,0.616916,-0.442176,11364.0,10342.0,-8152.0,-83.0,131.0,150.0
2847.0,2791.0,2855.0,3071.0,2991.0,0.526672,0.637207,-0.560547,0.048828,-8.0,5.0,6.0,5712.0,5284.0,-4577.0,365.0,233.0,-968.0,466.0,503.0,808.0,0.652676,0.616458,-0.440478,11238.0,10306.0,-7924.0,-182.0,137.0,149.0
2849.0,2778.0,2849.0,3071.0,2992.0,0.52887,0.634766,-0.561218,0.049011,-14.0,4.0,7.0,5509.0,5121.0,-4437.0,136.0,71.0,-867.0,456.0,553.0,510.0,0.655844,0.616405,-0.435788,10258.0,9622.0,-8882.0,-304.0,112.0,173.0
2863.0,2795.0,2864.0,3107.0,2987.0,0.529663,0.633606,-0.561768,0.04895,-12.0,4.0,7.0,5425.0,5037.0,-4454.0,41.0,-10.0,-897.0,500.0,622.0,410.0,0.657125,0.616198,-0.4341,10500.0,9644.0,-9012.0,-259.0,104.0,167.0
2858.0,2771.0,2855.0,3111.0,2999.0,0.53125,0.631714,-0.562317,0.049805,-9.0,10.0,7.0,5397.0,5081.0,-4505.0,-12.0,41.0,-977.0,486.0,726.0,437.0,0.660386,0.615184,-0.430556,10646.0,10644.0,-9302.0,-185.0,238.0,178.0
2851.0,2768.0,2846.0,3067.0,2995.0,0.532349,0.630737,-0.562317,0.050659,-9.0,13.0,9.0,5371.0,5193.0,-4583.0,-57.0,158.0,-1076.0,434.0,852.0,519.0,0.662603,0.614571,-0.428068,10604.0,11110.0,-9666.0,-197.0,320.0,208.0
2863.0,2767.0,2847.0,3063.0,2995.0,0.535095,0.628601,-0.56189,0.052917,-9.0,19.0,10.0,5242.0,5371.0,-4874.0,-229.0,347.0,-1419.0,410.0,1258.0,658.0,0.667857,0.613255,-0.421732,9852.0,11084.0,-10954.0,-194.0,450.0,243.0
2863.0,2759.0,2857.0,3119.0,3007.0,0.536133,0.627808,-0.561584,0.054321,-6.0,20.0,10.0,5124.0,5423.0,-5078.0,-367.0,408.0,-1644.0,433.0,1528.0,692.0,0.670374,0.612165,-0.41913,9592.0,11186.0,-11320.0,-122.0,469.0,247.0
2861.0,2766.0,2844.0,3103.0,2975.0,0.53772,0.626892,-0.56073,0.058105,0.0,24.0,12.0,5027.0,5721.0,-5389.0,-509.0,731.0,-1990.0,310.0,1948.0,926.0,0.675883,0.609022,-0.414893,9866.0,12672.0,-11698.0,15.0,559.0,276.0
2858.0,2767.0,2847.0,3063.0,2981.0,0.538574,0.626709,-0.559937,0.060425,2.0,28.0,12.0,4987.0,5962.0,-5588.0,-574.0,986.0,-2208.0,198.0,2209.0,1120.0,0.678872,0.607391,-0.41258,9716.0,13416.0,-12470.0,59.0,642.0,275.0
2859.0,2779.0,2841.0,3063.0,3007.0,0.540161,0.626953,-0.557434,0.065857,6.0,35.0,11.0,4893.0,6458.0,-6108.0,-716.0,1510.0,-2768.0,10.0,2837.0,1550.0,0.684787,0.60389,-0.407692,9594.0,14354.0,-13852.0,155.0,814.0,270.0
2863.0,2773.0,2863.0,3119.0,2993.0,0.541016,0.627136,-0.555969,0.069275,8.0,39.0,14.0,4941.0,6643.0,-6339.0,-698.0,1715.0,-3022.0,-28.0,3067.0,1774.0,0.688466,0.601552,-0.404905,10332.0,14314.0,-13990.0,189.0,911.0,343.0
2864.0,2767.0,2851.0,3101.0,2991.0,0.54364,0.626282,-0.553101,0.079102,10.0,53.0,27.0,5222.0,6950.0,-6564.0,-516.0,2088.0,-3317.0,-153.0,3285.0,2192.0,0.700455,0.593442,-0.396347,11204.0,14928.0,-13596.0,240.0,1228.0,623.0
2853.0,2790.0,2839.0,3135.0,2999.0,0.547913,0.623413,-0.550049,0.092285,8.0,65.0,38.0,5379.0,7187.0,-6653.0,-501.0,2422.0,-3519.0,-379.0,3552.0,2394.0,0.717821,0.581629,-0.382473,11112.0,14822.0,-13354.0,185.0,1500.0,889.0
2869.0,2763.0,2855.0,3057.0,2987.0,0.55072,0.621094,-0.548645,0.099731,5.0,70.0,43.0,5469.0,7249.0,-6557.0,-496.0,2541.0,-3497.0,-518.0,3588.0,2405.0,0.728185,0.574663,-0.37353,11536.0,14860.0,-12304.0,123.0,1609.0,1003.0
2851.0,2758.0,2851.0,3047.0,2987.0,0.55835,0.614136,-0.54541,0.116211,-2.0,81.0,51.0,5706.0,7081.0,-6061.0,-452.0,2501.0,-3198.0,-679.0,3389.0,2175.0,0.751798,0.55904,-0.349376,12072.0,13064.0,-10352.0,-44.0,1875.0,1181.0
2851.0,2752.0,2862.0,3127.0,2997.0,0.562988,0.609802,-0.543518,0.125427,-3.0,87.0,53.0,5794.0,6816.0,-5713.0,-472.0,2308.0,-2972.0,-669.0,3210.0,1903.0,0.76496,0.550279,-0.334583,12034.0,11914.0,-9260.0,-47.0,2015.0,1236.0
2861.0,2773.0,2821.0,3099.0,3003.0,0.572327,0.600281,-0.539185,0.145996,3.0,94.0,58.0,5827.0,5935.0,-4892.0,-664.0,1595.0,-2416.0,-480.0,2736.0,1048.0,0.792457,0.529676,-0.302184,11670.0,8720.0,-7074.0,74.0,2158.0,1338.0
2871.0,2768.0,2805.0,3065.0,3006.0,0.576538,0.595459,-0.536865,0.157471,9.0,95.0,59.0,5827.0,5384.0,-4383.0,-780.0,1144.0,-2043.0,-349.0,2381.0,546.0,0.806581,0.517528,-0.285603,11654.0,7424.0,-5608.0,219.0,2191.0,1367.0
2863.0,2771.0,2859.0,3071.0,3003.0,0.584106,0.586121,-0.531006,0.182434,21.0,98.0,59.0,5932.0,4513.0,-3041.0,-901.0,491.0,-984.0,-343.0,1354.0,-263.0,0.834185,0.490966,-0.251042,12278.0,7080.0,-1540.0,488.0,2265.0,1367.0
2851.0,2789.0,2847.0,3067.0,2991.0,0.592896,0.575623,-0.52356,0.207275,10.0,98.0,58.0,5842.0,4289.0,-1434.0,-1198.0,475.0,294.0,-953.0,282.0,-870.0,0.859457,0.465526,-0.210968,11088.0,8584.0,2040.0,242.0,2249.0,1343.0
2870.0,2770.0,2831.0,3121.0,3003.0,0.598572,0.569031,-0.519897,0.218018,-6.0,93.0,57.0,5781.0,4289.0,-542.0,-1350.0,565.0,1000.0,-1347.0,-316.0,-1106.0,0.870509,0.454518,-0.18827,11298.0,8492.0,4402.0,-119.0,2143.0,1321.0
2847.0,2779.0,2847.0,3102.0,3025.0,0.613159,0.551819,-0.513855,0.235413,-38.0,85.0,53.0,5702.0,3848.0,1195.0,-1588.0,286.0,2318.0,-1676.0,-1607.0,-1606.0,0.88996,0.43477,-0.137168,11144.0,5400.0,7164.0,-858.0,1960.0,1227.0
2835.0,2762.0,2853.0,3057.0,3007.0,0.621155,0.541748,-0.511597,0.242676,-47.0,79.0,51.0,5663.0,3223.0,1912.0,-1697.0,-256.0,2817.0,-1439.0,-2241.0,-1944.0,0.8985,0.424715,-0.110497,11100.0,2230.0,7996.0,-1056.0,1830.0,1174.0
2838.0,2711.0,2859.0,3095.0,2995.0,0.635071,0.521729,-0.50824,0.257263,-34.0,68.0,47.0,5664.0,1399.0,3195.0,-1823.0,-1887.0,3694.0,-415.0,-3652.0,-2648.0,0.91398,0.401166,-0.061009,11336.0,-2736.0,10060.0,-757.0,1565.0,1083.0
2847.0,2769.0,2851.0,3071.0,2993.0,0.644043,0.505737,-0.504517,0.273621,-5.0,53.0,41.0,5582.0,-24.0,4255.0,-2008.0,-3098.0,4424.0,337.0,-4835.0,-3114.0,0.926621,0.375341,-0.020648,10750.0,-3364.0,11372.0,-112.0,1234.0,961.0
2853.0,2787.0,2869.0,3107.0,2983.0,0.646729,0.499817,-0.502625,0.281494,4.0,42.0,37.0,5454.0,-393.0,4658.0,-2176.0,-3370.0,4698.0,456.0,-5217.0,-3275.0,0.931514,0.36352,-0.004952,10030.0,-2642.0,11630.0,112.0,984.0,856.0
2855.0,2765.0,2847.0,3063.0,2999.0,0.649658,0.491821,-0.500122,0.293091,6.0,12.0,22.0,5164.0,-605.0,5246.0,-2521.0,-3438.0,5115.0,324.0,-5672.0,-3472.0,0.938113,0.345869,0.015948,9948.0,-1618.0,11880.0,160.0,279.0,511.0
2853.0,2803.0,2839.0,3091.0,3003.0,0.650269,0.489136,-0.5,0.296448,4.0,-2.0,14.0,5197.0,-705.0,5394.0,-2505.0,-3487.0,5218.0,357.0,-5812.0,-3427.0,0.940275,0.339691,0.021477,10690.0,-2026.0,11410.0,107.0,-41.0,343.0
2863.0,2803.0,2847.0,3061.0,3023.0,0.650024,0.485962,-0.501892,0.299011,0.0,-24.0,1.0,5338.0,-845.0,5277.0,-2387.0,-3561.0,5081.0,525.0,-5740.0,-3310.0,0.9431,0.331631,0.023885,11070.0,-1952.0,9726.0,12.0,-548.0,30.0
2847.0,2768.0,2863.0,3071.0,2991.0,0.649353,0.485474,-0.503662,0.298218,-2.0,-34.0,-7.0,5406.0,-863.0,5135.0,-2324.0,-3567.0,4961.0,585.0,-5632.0,-3265.0,0.943663,0.330086,0.021233,11220.0,-1786.0,9364.0,-41.0,-772.0,-147.0
2839.0,2749.0,2846.0,3057.0,2991.0,0.647461,0.486755,-0.508057,0.292786,-5.0,-50.0,-23.0,5463.0,-879.0,4724.0,-2261.0,-3605.0,4643.0,712.0,-5325.0,-3285.0,0.942924,0.332807,0.009877,10884.0,-1790.0,7974.0,-92.0,-1140.0,-514.0
2862.0,2791.0,2829.0,3123.0,2975.0,0.644043,0.491089,-0.513611,0.283264,-3.0,-66.0,-33.0,5380.0,-869.0,4198.0,-2318.0,-3667.0,4279.0,824.0,-4938.0,-3473.0,0.939791,0.34159,-0.009934,10400.0,-1748.0,6772.0,-63.0,-1508.0,-745.0
2858.0,2765.0,2851.0,3102.0,2971.0,0.641541,0.494141,-0.516968,0.277344,-2.0,-74.0,-36.0,5328.0,-897.0,3957.0,-2351.0,-3741.0,4144.0,897.0,-4789.0,-3598.0,0.937405,0.347267,-0.022937,10362.0,-1960.0,6512.0,-40.0,-1693.0,-813.0
2858.0,2781.0,2873.0,3101.0,2991.0,0.635193,0.501404,-0.524719,0.264099,-1.0,-86.0,-39.0,5284.0,-675.0,3660.0,-2346.0,-3622.0,4098.0,747.0,-4594.0,-3707.0,0.931436,0.35982,-0.053518,10414.0,146.0,6682.0,-12.0,-1954.0,-886.0
2859.0,2787.0,2879.0,3071.0,2983.0,0.631958,0.505493,-0.528564,0.256226,-5.0,-90.0,-44.0,5202.0,-318.0,3504.0,-2392.0,-3332.0,4076.0,451.0,-4396.0,-3728.0,0.927102,0.368037,-0.069881,9802.0,1686.0,5868.0,-104.0,-2049.0,-995.0
2853.0,2771.0,2831.0,3071.0,2994.0,0.625488,0.515381,-0.53656,0.234985,-15.0,-106.0,-65.0,4787.0,499.0,2618.0,-2695.0,-2716.0,3495.0,-44.0,-3409.0,-3902.0,0.913438,0.392562,-0.10706,8030.0,3406.0,1390.0,-328.0,-2416.0,-1482.0
2843.0,2755.0,2839.0,3103.0,2995.0,0.616516,0.53064,-0.544128,0.205505,-13.0,-123.0,-94.0,4651.0,1520.0,1029.0,-2631.0,-2007.0,2301.0,-225.0,-1874.0,-3560.0,0.889026,0.430653,-0.15533,9554.0,6976.0,-3152.0,-282.0,-2811.0,-2149.0
2863.0,2775.0,2835.0,3071.0,3007.0,0.611328,0.539917,-0.546997,0.188477,-13.0,-124.0,-103.0,4673.0,2431.0,22.0,-2472.0,-1287.0,1508.0,-461.0,-861.0,-3014.0,0.872313,0.453941,-0.181471,9472.0,10762.0,-6304.0,-282.0,-2833.0,-2338.0
2861.0,2783.0,2847.0,3071.0,2992.0,0.601135,0.557251,-0.552246,0.151855,-33.0,-116.0,-92.0,5146.0,4709.0,-2229.0,-1679.0,594.0,-335.0,-885.0,1205.0,-1023.0,0.833192,0.502243,-0.231081,12710.0,16090.0,-10742.0,-753.0,-2652.0,-2093.0
2851.0,2769.0,2835.0,3069.0,3001.0,0.594238,0.5672,-0.557739,0.11853,-45.0,-85.0,-65.0,5599.0,6304.0,-4601.0,-932.0,1864.0,-2425.0,-486.0,3025.0,911.0,0.797321,0.541886,-0.26562,12078.0,15852.0,-16596.0,-1019.0,-1945.0,-1483.0
2859.0,2771.0,2857.0,3071.0,2998.0,0.590698,0.571106,-0.560181,0.105164,-35.0,-71.0,-55.0,5700.0,6580.0,-5682.0,-705.0,2018.0,-3388.0,46.0,3705.0,1521.0,0.781915,0.556881,-0.279981,11818.0,14228.0,-17538.0,-790.0,-1619.0,-1251.0
2866.0,2783.0,2831.0,3071.0,3002.0,0.580444,0.581299,-0.563538,0.087158,12.0,-50.0,-43.0,5459.0,6696.0,-7405.0,-730.0,1972.0,-4857.0,938.0,4768.0,2095.0,0.755534,0.576589,-0.310971,9674.0,14330.0,-19190.0,286.0,-1142.0,-964.0
2854.0,2775.0,2839.0,3088.0,2991.0,-1.21228,-1.269775,-0.000427,0.400208,13493.0,11491.0,26836.0,7022.0,-10151.0,3871.0,15356.0,30168.0,3727.0,4852.0,30040.0,11772.0,-1.017383,3.078305,0.01746,10032.0,19092.0,-18842.0,737.0,-1113.0,-616.0
2864.0,2783.0,2842.0,3101.0,2971.0,0.559143,0.60022,-0.567383,0.071472,27.0,-45.0,-21.0,5387.0,8243.0,-8343.0,-513.0,3408.0,-5357.0,168.0,5256.0,3593.0,0.720294,0.590113,-0.364438,12332.0,19684.0,-16224.0,641.0,-1028.0,-479.0
2855.0,2783.0,2843.0,3098.0,2992.0,0.551025,0.606934,-0.569031,0.06427,4.0,-21.0,-9.0,6008.0,8852.0,-7860.0,231.0,3971.0,-4710.0,-358.0,4364.0,4339.0,0.705116,0.595728,-0.384405,14018.0,18496.0,-13456.0,100.0,-480.0,-195.0
2863.0,2789.0,2832.0,3091.0,2993.0,0.552124,0.605835,-0.569702,0.059631,-31.0,5.0,5.0,6492.0,8523.0,-6820.0,746.0,3599.0,-3680.0,-415.0,3177.0,4096.0,0.701346,0.601048,-0.3832,13730.0,15026.0,-10278.0,-689.0,124.0,118.0
2855.0,2773.0,2837.0,3071.0,2991.0,0.555481,0.602905,-0.569702,0.057617,-44.0,12.0,7.0,6478.0,7971.0,-6336.0,723.0,3021.0,-3254.0,-186.0,2747.0,3557.0,0.702393,0.604156,-0.376176,12676.0,12102.0,-9848.0,-1007.0,284.0,175.0
2841.0,2773.0,2855.0,3071.0,2989.0,0.562378,0.596313,-0.57019,0.05481,-36.0,12.0,4.0,6244.0,5901.0,-5525.0,454.0,918.0,-2564.0,951.0,1858.0,1805.0,0.706692,0.608203,-0.361434,11624.0,4818.0,-8846.0,-823.0,297.0,112.0
2871.0,2757.0,2849.0,3089.0,2999.0,0.563782,0.594666,-0.570496,0.055176,-14.0,10.0,1.0,6130.0,4854.0,-5111.0,322.0,-123.0,-2176.0,1458.0,1362.0,932.0,0.708892,0.607568,-0.358198,11668.0,3858.0,-7658.0,-311.0,247.0,44.0
2845.0,2773.0,2853.0,3107.0,2999.0,0.5625,0.596008,-0.569946,0.059204,20.0,7.0,-4.0,6058.0,4092.0,-4131.0,227.0,-847.0,-1180.0,1383.0,492.0,75.0,0.711762,0.603023,-0.360153,12132.0,8026.0,-5116.0,478.0,172.0,-80.0
2853.0,2753.0,2859.0,3071.0,3015.0,0.561584,0.597534,-0.569031,0.061157,20.0,6.0,-5.0,6053.0,4295.0,-3631.0,218.0,-632.0,-667.0,925.0,184.0,16.0,0.712205,0.601531,-0.361726,12054.0,10176.0,-4324.0,481.0,153.0,-106.0
2847.0,2769.0,2832.0,3087.0,3013.0,0.56189,0.599365,-0.56665,0.062561,2.0,7.0,-6.0,6001.0,5015.0,-2912.0,170.0,78.0,42.0,-22.0,-113.0,152.0,0.711784,0.602654,-0.360698,11824.0,12050.0,-4166.0,50.0,163.0,-128.0
2870.0,2783.0,2839.0,3101.0,2997.0,0.563354,0.599182,-0.56543,0.062073,-9.0,8.0,-6.0,5922.0,5257.0,-2742.0,93.0,301.0,186.0,-296.0,-112.0,181.0,0.71146,0.604908,-0.357509,11236.0,11818.0,-4710.0,-195.0,189.0,-132.0
2859.0,2782.0,2854.0,3111.0,2993.0,0.5672,0.5979,-0.563232,0.059692,-18.0,7.0,-6.0,5680.0,5397.0,-2752.0,-138.0,391.0,110.0,-401.0,110.0,102.0,0.710311,0.611017,-0.349437,10738.0,10678.0,-5790.0,-402.0,175.0,-127.0
2855.0,2790.0,2837.0,3101.0,2969.0,0.568848,0.597229,-0.562378,0.058655,-15.0,7.0,-5.0,5575.0,5342.0,-2876.0,-240.0,316.0,-42.0,-295.0,264.0,38.0,0.709875,0.613492,-0.345923,10480.0,10316.0,-6666.0,-336.0,174.0,-97.0
2871.0,2751.0,2843.0,3071.0,3003.0,0.570007,0.596985,-0.561523,0.057922,-2.0,5.0,0.0,5426.0,5327.0,-3270.0,-384.0,284.0,-456.0,-88.0,651.0,59.0,0.709302,0.615522,-0.343436,10746.0,10930.0,-7644.0,-29.0,119.0,1.0
2858.0,2774.0,2846.0,3095.0,2994.0,0.569763,0.597412,-0.561279,0.058411,5.0,5.0,2.0,5429.0,5462.0,-3465.0,-382.0,422.0,-647.0,-81.0,831.0,211.0,0.709383,0.615197,-0.343894,10898.0,11924.0,-8146.0,123.0,133.0,51.0
2851.0,2799.0,2847.0,3071.0,2993.0,0.568665,0.598938,-0.560547,0.060486,10.0,10.0,5.0,5491.0,6020.0,-3915.0,-325.0,995.0,-1081.0,-244.0,1279.0,753.0,0.709981,0.613379,-0.345902,11222.0,13982.0,-9210.0,237.0,241.0,130.0
2864.0,2751.0,2832.0,3091.0,2981.0,0.568359,0.599609,-0.559937,0.061951,9.0,14.0,8.0,5528.0,6332.0,-4169.0,-294.0,1316.0,-1333.0,-334.0,1537.0,1058.0,0.710783,0.61221,-0.34619,11284.0,14472.0,-9854.0,218.0,342.0,184.0
2835.0,2777.0,2855.0,3071.0,2987.0,0.568665,0.599976,-0.558777,0.06604,6.0,23.0,15.0,5584.0,6827.0,-4758.0,-271.0,1841.0,-1936.0,-395.0,2124.0,1593.0,0.714758,0.608566,-0.344462,11340.0,14906.0,-11346.0,141.0,537.0,365.0
2865.0,2789.0,2847.0,3069.0,2989.0,0.569214,0.599548,-0.55835,0.068909,4.0,27.0,21.0,5674.0,6976.0,-5013.0,-210.0,2014.0,-2207.0,-362.0,2347.0,1824.0,0.718269,0.605592,-0.34246,12010.0,14754.0,-11398.0,109.0,637.0,487.0
2861.0,2799.0,2843.0,3071.0,3005.0,0.571289,0.596924,-0.557922,0.077026,3.0,38.0,33.0,5929.0,7056.0,-5392.0,-46.0,2172.0,-2645.0,-211.0,2656.0,2147.0,0.729428,0.596083,-0.335291,12472.0,14066.0,-11932.0,79.0,887.0,763.0
2864.0,2785.0,2849.0,3071.0,2999.0,0.572632,0.595154,-0.557739,0.082153,4.0,43.0,36.0,6021.0,7030.0,-5550.0,-12.0,2196.0,-2841.0,-131.0,2814.0,2226.0,0.736546,0.589968,-0.330625,12558.0,13872.0,-12000.0,109.0,998.0,835.0
2847.0,2767.0,2859.0,3063.0,2979.0,0.575256,0.591614,-0.556885,0.094543,10.0,51.0,42.0,6197.0,6905.0,-5746.0,31.0,2191.0,-3122.0,-19.0,3054.0,2283.0,0.752569,0.57536,-0.320269,13226.0,13380.0,-11426.0,243.0,1187.0,969.0
2855.0,2783.0,2849.0,3095.0,2999.0,0.576782,0.589417,-0.556274,0.10199,13.0,57.0,47.0,6287.0,6872.0,-5719.0,45.0,2231.0,-3148.0,-67.0,3107.0,2285.0,0.761927,0.566461,-0.313773,12990.0,13618.0,-11328.0,300.0,1325.0,1080.0
2863.0,2773.0,2845.0,3117.0,3019.0,0.580566,0.583862,-0.554749,0.119324,14.0,69.0,58.0,6521.0,6676.0,-5400.0,102.0,2206.0,-2964.0,-202.0,2988.0,2164.0,0.783474,0.545552,-0.297346,13930.0,12384.0,-9066.0,333.0,1584.0,1338.0
2843.0,2773.0,2850.0,3071.0,2983.0,0.58313,0.580017,-0.553772,0.1297,15.0,77.0,65.0,6610.0,6493.0,-5044.0,86.0,2128.0,-2699.0,-321.0,2795.0,1974.0,0.796298,0.532802,-0.286221,13576.0,11876.0,-7892.0,344.0,1765.0,1495.0
2855.0,2768.0,2844.0,3069.0,2989.0,0.589417,0.570312,-0.551453,0.152466,13.0,85.0,75.0,6483.0,6001.0,-4211.0,-267.0,1871.0,-2091.0,-609.0,2444.0,1264.0,0.823977,0.504148,-0.258699,12344.0,10062.0,-5646.0,301.0,1963.0,1737.0
2863.0,2774.0,2845.0,3071.0,2995.0,0.595764,0.558655,-0.549011,0.177368,16.0,88.0,80.0,6253.0,5079.0,-3164.0,-729.0,1221.0,-1303.0,-656.0,1796.0,249.0,0.852338,0.470899,-0.227114,11630.0,7076.0,-3068.0,388.0,2018.0,1852.0
2864.0,2768.0,2846.0,3099.0,3011.0,0.598572,0.552734,-0.547546,0.190613,21.0,88.0,81.0,6143.0,4597.0,-2558.0,-952.0,886.0,-831.0,-680.0,1362.0,-248.0,0.866208,0.452964,-0.210701,11726.0,6402.0,-1330.0,490.0,2020.0,1861.0
2864.0,2768.0,2847.0,3103.0,2999.0,0.604431,0.540161,-0.543579,0.217651,20.0,90.0,81.0,6076.0,3907.0,-1138.0,-1233.0,496.0,291.0,-932.0,300.0,-944.0,0.892246,0.416359,-0.174543,11904.0,6190.0,2122.0,468.0,2072.0,1859.0
2851.0,2754.0,2831.0,3063.0,2995.0,0.608032,0.533081,-0.541077,0.230713,13.0,90.0,79.0,5953.0,3699.0,-469.0,-1452.0,433.0,792.0,-1144.0,-140.0,-1261.0,0.903961,0.398594,-0.154008,10988.0,6256.0,2924.0,304.0,2072.0,1820.0
2851.0,2749.0,2855.0,3071.0,2987.0,0.616638,0.517395,-0.536499,0.253418,-7.0,81.0,72.0,5692.0,3128.0,755.0,-1876.0,128.0,1664.0,-1330.0,-1016.0,-1871.0,0.923886,0.366174,-0.111065,10828.0,4036.0,5208.0,-152.0,1878.0,1662.0
2859.0,2782.0,2847.0,3095.0,2995.0,0.621399,0.508484,-0.534729,0.263306,-16.0,77.0,70.0,5608.0,2672.0,1318.0,-2029.0,-198.0,2047.0,-1227.0,-1498.0,-2143.0,0.932333,0.350348,-0.089024,10696.0,2426.0,5866.0,-361.0,1767.0,1608.0
2863.0,2774.0,2839.0,3110.0,3004.0,0.630493,0.48999,-0.532471,0.280701,-22.0,63.0,61.0,5445.0,1431.0,2159.0,-2308.0,-1181.0,2546.0,-610.0,-2374.0,-2681.0,0.946519,0.318941,-0.047301,10728.0,-1348.0,6640.0,-503.0,1464.0,1411.0
2851.0,2771.0,2843.0,3093.0,2999.0,0.637268,0.473206,-0.530823,0.296692,-11.0,52.0,50.0,5507.0,-92.0,2872.0,-2335.0,-2452.0,2966.0,377.0,-3354.0,-2976.0,0.957345,0.288136,-0.01156,11104.0,-4728.0,7688.0,-239.0,1204.0,1163.0
2863.0,2768.0,2839.0,3071.0,2991.0,0.639587,0.466431,-0.529602,0.304626,-1.0,47.0,43.0,5507.0,-726.0,3207.0,-2370.0,-2970.0,3175.0,775.0,-3797.0,-3080.0,0.961628,0.273985,0.003833,10972.0,-4970.0,8504.0,-2.0,1082.0,989.0
2851.0,2783.0,2843.0,3067.0,2987.0,0.643066,0.456726,-0.525696,0.318481,9.0,33.0,24.0,5361.0,-1295.0,4022.0,-2560.0,-3363.0,3776.0,912.0,-4579.0,-3211.0,0.967032,0.252562,0.03001,10028.0,-3240.0,10724.0,220.0,764.0,563.0
2863.0,2779.0,2855.0,3095.0,2994.0,0.644836,0.453186,-0.523682,0.323303,4.0,22.0,15.0,5186.0,-1337.0,4437.0,-2747.0,-3350.0,4103.0,752.0,-4902.0,-3316.0,0.968411,0.245846,0.040719,9218.0,-2852.0,11296.0,99.0,526.0,362.0
2853.0,2775.0,2851.0,3091.0,3190.0,0.648132,0.447021,-0.522583,0.326965,-15.0,-8.0,1.0,4639.0,-1500.0,4914.0,-3305.0,-3447.0,4471.0,556.0,-5307.0,-3782.0,0.969727,0.237725,0.054061,7550.0,-3928.0,10670.0,-331.0,-180.0,33.0
2854.0,2771.0,2847.0,3098.0,3003.0,0.649292,0.443176,-0.5271,0.322693,-26.0,-45.0,-16.0,4220.0,-1928.0,4945.0,-3730.0,-3855.0,4523.0,733.0,-5499.0,-4294.0,0.970503,0.235319,0.051472,7678.0,-5132.0,9798.0,-584.0,-1016.0,-345.0
2851.0,2771.0,2846.0,3071.0,2987.0,0.648926,0.442749,-0.530884,0.31781,-28.0,-60.0,-26.0,4177.0,-2126.0,4912.0,-3772.0,-4068.0,4549.0,852.0,-5582.0,-4424.0,0.970429,0.237182,0.044244,8208.0,-5444.0,9590.0,-638.0,-1369.0,-594.0
2857.0,2775.0,2846.0,3071.0,2995.0,0.646729,0.445496,-0.539673,0.303223,-26.0,-84.0,-50.0,4283.0,-2498.0,4724.0,-3648.0,-4537.0,4556.0,1159.0,-5694.0,-4568.0,0.968212,0.248947,0.020489,9110.0,-6044.0,8756.0,-583.0,-1908.0,-1133.0
2855.0,2768.0,2836.0,3071.0,2991.0,0.64209,0.453552,-0.548645,0.284424,-14.0,-100.0,-68.0,4561.0,-2663.0,4389.0,-3324.0,-4877.0,4499.0,1414.0,-5665.0,-4578.0,0.962561,0.270347,-0.013545,10188.0,-5296.0,7742.0,-320.0,-2273.0,-1546.0
2859.0,2783.0,2855.0,3099.0,2997.0,0.638855,0.459351,-0.552856,0.274109,-9.0,-105.0,-74.0,4732.0,-2518.0,4202.0,-3117.0,-4843.0,4475.0,1378.0,-5562.0,-4510.0,0.958214,0.283831,-0.033382,10442.0,-3870.0,7222.0,-196.0,-2395.0,-1680.0
2855.0,2783.0,2857.0,3095.0,2998.0,0.63092,0.473511,-0.561157,0.250671,-8.0,-119.0,-84.0,4900.0,-1744.0,3591.0,-2845.0,-4334.0,4231.0,986.0,-4952.0,-4391.0,0.945482,0.316163,-0.078213,10066.0,-626.0,4774.0,-169.0,-2712.0,-1915.0
2859.0,2773.0,2832.0,3091.0,2997.0,0.620728,0.490784,-0.569824,0.22168,-10.0,-133.0,-98.0,4867.0,-310.0,2318.0,-2710.0,-3231.0,3392.0,351.0,-3510.0,-4103.0,0.925005,0.356649,-0.131124,9538.0,4926.0,-196.0,-218.0,-3028.0,-2238.0
2855.0,2767.0,2833.0,3063.0,2999.0,0.614868,0.501038,-0.573608,0.204529,-12.0,-136.0,-109.0,4905.0,834.0,1293.0,-2552.0,-2291.0,2605.0,-69.0,-2340.0,-3614.0,0.91034,0.381505,-0.16017,10214.0,8948.0,-4080.0,-255.0,-3105.0,-2478.0
2851.0,2769.0,2837.0,3059.0,2993.0,0.602234,0.525452,-0.577637,0.165649,-5.0,-124.0,-136.0,5232.0,3539.0,-1765.0,-1893.0,-77.0,34.0,-481.0,713.0,-1688.0,0.869826,0.441519,-0.219638,11414.0,15674.0,-13956.0,-103.0,-2830.0,-3112.0
2847.0,2765.0,2839.0,3071.0,2995.0,0.58667,0.554871,-0.575378,0.129822,27.0,-95.0,-123.0,5639.0,6051.0,-5332.0,-1071.0,1941.0,-3055.0,-238.0,3646.0,945.0,0.819183,0.501658,-0.277906,12788.0,19096.0,-20906.0,640.0,-2158.0,-2806.0
2855.0,2775.0,2843.0,3103.0,2999.0,0.577393,0.56781,-0.574707,0.117676,40.0,-79.0,-83.0,5875.0,7360.0,-6982.0,-656.0,3096.0,-4479.0,-271.0,4895.0,2456.0,0.797298,0.52044,-0.305467,13150.0,22732.0,-23742.0,918.0,-1790.0,-1882.0
2855.0,2783.0,2847.0,3103.0,2999.0,0.559814,0.584534,-0.577698,0.10553,39.0,-42.0,-6.0,6787.0,9709.0,-9096.0,477.0,5346.0,-6221.0,-837.0,6137.0,5397.0,0.770179,0.532532,-0.350886,16494.0,25356.0,-22152.0,901.0,-948.0,-134.0
2855.0,2759.0,2847.0,3103.0,2999.0,0.550049,0.591125,-0.580566,0.104248,21.0,-4.0,16.0,7159.0,10397.0,-9577.0,917.0,6061.0,-6520.0,-1215.0,6197.0,6338.0,0.761927,0.52925,-0.373065,14208.0,20924.0,-19102.0,492.0,-79.0,386.0
2854.0,2768.0,2843.0,3071.0,2999.0,0.547791,0.592407,-0.58136,0.104553,10.0,5.0,16.0,7059.0,10164.0,-9260.0,826.0,5843.0,-6164.0,-1281.0,5889.0,6039.0,0.760803,0.527464,-0.37792,13324.0,18564.0,-16144.0,245.0,122.0,381.0
2853.0,2771.0,2838.0,3063.0,2990.0,0.547668,0.592041,-0.58197,0.10437,-12.0,11.0,11.0,6786.0,8934.0,-7965.0,551.0,4616.0,-4865.0,-1042.0,4708.0,4692.0,0.761036,0.527004,-0.378368,13006.0,12976.0,-11208.0,-270.0,261.0,266.0
2855.0,2771.0,2844.0,3071.0,2992.0,0.551208,0.58844,-0.582275,0.104248,-22.0,14.0,9.0,6544.0,6945.0,-6344.0,280.0,2625.0,-3307.0,-299.0,3137.0,2823.0,0.764598,0.527304,-0.370608,12072.0,7328.0,-8128.0,-483.0,343.0,229.0
2855.0,2789.0,2851.0,3101.0,2995.0,0.552856,0.586548,-0.58252,0.104736,-16.0,13.0,8.0,6365.0,5858.0,-5612.0,82.0,1544.0,-2607.0,149.0,2410.0,1831.0,0.766965,0.526532,-0.366747,11710.0,5310.0,-6898.0,-362.0,303.0,193.0
2891.0,2779.0,2846.0,3107.0,2995.0,0.554443,0.584534,-0.58252,0.107239,1.0,10.0,2.0,6172.0,4239.0,-4172.0,-146.0,-47.0,-1205.0,621.0,999.0,299.0,0.771317,0.523244,-0.362101,11952.0,4696.0,-4240.0,32.0,230.0,56.0
2855.0,2750.0,2847.0,3071.0,2997.0,0.554749,0.584473,-0.582031,0.108826,6.0,8.0,-1.0,6080.0,3798.0,-3590.0,-252.0,-476.0,-634.0,634.0,492.0,-214.0,0.772973,0.521791,-0.36078,11580.0,5308.0,-3836.0,150.0,197.0,-13.0
2859.0,2771.0,2839.0,3071.0,2995.0,0.554688,0.585632,-0.580505,0.110901,8.0,3.0,-7.0,5865.0,3519.0,-2799.0,-474.0,-748.0,149.0,381.0,-68.0,-810.0,0.773892,0.520929,-0.359974,11110.0,7040.0,-3740.0,200.0,80.0,-157.0
2855.0,2779.0,2853.0,3091.0,2999.0,0.554749,0.586548,-0.579529,0.110962,5.0,1.0,-10.0,5776.0,3658.0,-2539.0,-557.0,-619.0,408.0,118.0,-185.0,-900.0,0.773154,0.522162,-0.359834,11002.0,8424.0,-3676.0,124.0,39.0,-222.0
2855.0,2783.0,2846.0,3103.0,2997.0,0.556213,0.587891,-0.577209,0.108459,-9.0,-1.0,-14.0,5630.0,4192.0,-2318.0,-674.0,-139.0,611.0,-412.0,-139.0,-810.0,0.769628,0.528778,-0.357649,11048.0,9948.0,-4310.0,-206.0,-13.0,-309.0
2847.0,2779.0,2847.0,3071.0,3007.0,0.557678,0.588013,-0.576172,0.10614,-16.0,-1.0,-14.0,5602.0,4378.0,-2343.0,-685.0,7.0,568.0,-514.0,-56.0,-723.0,0.767461,0.533534,-0.355462,11044.0,9706.0,-5038.0,-354.0,-17.0,-318.0
2854.0,2779.0,2846.0,3071.0,2991.0,0.560425,0.587585,-0.574829,0.101196,-18.0,-2.0,-11.0,5617.0,4516.0,-2661.0,-635.0,73.0,217.0,-373.0,209.0,-521.0,0.76322,0.542254,-0.351369,11436.0,9274.0,-6440.0,-408.0,-37.0,-245.0
2859.0,2779.0,2841.0,3111.0,3003.0,0.56134,0.587341,-0.574524,0.099182,-15.0,-3.0,-9.0,5661.0,4524.0,-2896.0,-577.0,55.0,-27.0,-213.0,362.0,-399.0,0.761514,0.545432,-0.350107,11622.0,8974.0,-7318.0,-325.0,-48.0,-192.0
2851.0,2777.0,2847.0,3103.0,3003.0,0.560974,0.588135,-0.574341,0.097351,3.0,-2.0,-6.0,5813.0,4436.0,-3443.0,-403.0,-53.0,-562.0,209.0,646.0,-137.0,0.758892,0.548031,-0.351601,11968.0,8960.0,-8622.0,80.0,-27.0,-116.0
2854.0,2769.0,2847.0,3071.0,3003.0,0.559631,0.589478,-0.57428,0.097534,12.0,-1.0,-4.0,5868.0,4501.0,-3745.0,-339.0,13.0,-840.0,324.0,844.0,48.0,0.757758,0.547756,-0.354581,12088.0,9502.0,-9246.0,285.0,-18.0,-79.0
2851.0,2787.0,2849.0,3071.0,2986.0,0.555786,0.592896,-0.574097,0.09967,21.0,2.0,2.0,6026.0,4899.0,-4259.0,-169.0,437.0,-1291.0,271.0,1215.0,577.0,0.756338,0.544605,-0.36228,12660.0,11384.0,-9952.0,483.0,49.0,47.0
2859.0,2781.0,2845.0,3107.0,2993.0,0.554138,0.59436,-0.573914,0.101135,18.0,6.0,4.0,6134.0,5203.0,-4479.0,-61.0,757.0,-1486.0,145.0,1392.0,907.0,0.756276,0.54263,-0.365344,12926.0,12210.0,-10244.0,421.0,141.0,114.0
2858.0,2773.0,2839.0,3095.0,3007.0,0.552856,0.595703,-0.573181,0.104614,8.0,16.0,8.0,6302.0,5524.0,-4914.0,89.0,1110.0,-1909.0,114.0,1733.0,1365.0,0.758412,0.538751,-0.366804,12996.0,11474.0,-11026.0,189.0,386.0,205.0
2853.0,2783.0,2859.0,3071.0,2993.0,0.552979,0.595642,-0.572693,0.10675,5.0,21.0,10.0,6343.0,5513.0,-5129.0,112.0,1118.0,-2134.0,221.0,1902.0,1465.0,0.760544,0.536484,-0.365586,12876.0,10854.0,-11570.0,131.0,498.0,243.0
2839.0,2783.0,2847.0,3071.0,2999.0,0.553589,0.595276,-0.571411,0.112366,8.0,29.0,13.0,6386.0,5383.0,-5521.0,107.0,1035.0,-2557.0,477.0,2229.0,1556.0,0.766431,0.530662,-0.361777,12900.0,10384.0,-12092.0,190.0,674.0,309.0
2863.0,2778.0,2843.0,3071.0,3011.0,0.553833,0.595215,-0.570496,0.115967,11.0,32.0,14.0,6426.0,5338.0,-5659.0,118.0,1020.0,-2713.0,554.0,2352.0,1603.0,0.769969,0.526982,-0.359567,13116.0,10486.0,-12040.0,272.0,751.0,339.0
2864.0,2759.0,2851.0,3087.0,2995.0,0.554504,0.595032,-0.568237,0.124695,15.0,39.0,19.0,6504.0,5526.0,-5777.0,125.0,1281.0,-2877.0,383.0,2573.0,1779.0,0.778575,0.518183,-0.353932,13428.0,11964.0,-11562.0,351.0,898.0,446.0
2854.0,2771.0,2847.0,3063.0,2992.0,0.555237,0.594543,-0.566895,0.129517,14.0,43.0,22.0,6586.0,5683.0,-5764.0,167.0,1477.0,-2898.0,224.0,2633.0,1902.0,0.783528,0.51338,-0.349789,13668.0,12328.0,-11434.0,332.0,987.0,513.0
2861.0,2787.0,2834.0,3071.0,2991.0,0.557617,0.592834,-0.563599,0.141052,17.0,54.0,28.0,6839.0,5890.0,-5607.0,319.0,1776.0,-2835.0,-54.0,2618.0,2104.0,0.795786,0.502156,-0.338263,14728.0,12214.0,-10220.0,402.0,1250.0,664.0
2869.0,2771.0,2835.0,3111.0,2999.0,0.559387,0.591187,-0.561646,0.148438,18.0,62.0,36.0,7002.0,5947.0,-5371.0,416.0,1894.0,-2667.0,-229.0,2487.0,2151.0,0.803863,0.494666,-0.329999,14892.0,12238.0,-9228.0,424.0,1440.0,833.0
2863.0,2786.0,2841.0,3099.0,3006.0,0.564514,0.585205,-0.557678,0.166626,16.0,78.0,54.0,7163.0,5902.0,-4718.0,407.0,2011.0,-2202.0,-602.0,2196.0,1966.0,0.824655,0.474866,-0.30703,14456.0,11210.0,-7140.0,376.0,1790.0,1238.0
2855.0,2766.0,2850.0,3071.0,3014.0,0.567627,0.580994,-0.555725,0.177124,16.0,83.0,60.0,7105.0,5709.0,-4317.0,250.0,1918.0,-1918.0,-729.0,2034.0,1658.0,0.836705,0.462711,-0.292811,13782.0,10052.0,-6174.0,372.0,1912.0,1390.0
2843.0,2779.0,2846.0,3091.0,2973.0,0.573914,0.570496,-0.552185,0.200378,17.0,88.0,71.0,6893.0,5027.0,-3355.0,-172.0,1475.0,-1218.0,-828.0,1532.0,808.0,0.862443,0.433538,-0.260845,13088.0,7822.0,-3594.0,400.0,2023.0,1645.0
2841.0,2761.0,2859.0,3071.0,2993.0,0.580566,0.557861,-0.548462,0.225586,14.0,92.0,78.0,6673.0,4474.0,-2211.0,-605.0,1194.0,-375.0,-1078.0,876.0,24.0,0.888528,0.400301,-0.224073,12788.0,7560.0,-872.0,322.0,2130.0,1792.0
2863.0,2768.0,2869.0,3111.0,3031.0,0.584656,0.550415,-0.546326,0.238159,7.0,96.0,78.0,6624.0,4175.0,-1593.0,-756.0,1034.0,69.0,-1154.0,471.0,-298.0,0.900998,0.383382,-0.202886,13048.0,6346.0,596.0,166.0,2206.0,1799.0
2867.0,2775.0,2855.0,3102.0,3005.0,0.594666,0.533447,-0.540894,0.262939,-3.0,102.0,72.0,6377.0,3238.0,-462.0,-1191.0,370.0,802.0,-949.0,-313.0,-1094.0,0.92383,0.350001,-0.154368,11730.0,3136.0,2266.0,-61.0,2349.0,1655.0
2867.0,2775.0,2831.0,3099.0,2993.0,0.599915,0.52478,-0.53772,0.27478,-4.0,101.0,65.0,6138.0,2573.0,18.0,-1509.0,-164.0,1075.0,-645.0,-689.0,-1602.0,0.93357,0.334137,-0.129135,10702.0,964.0,2840.0,-77.0,2315.0,1504.0
2863.0,2763.0,2835.0,3059.0,3015.0,0.609131,0.509521,-0.530518,0.296326,2.0,85.0,48.0,5553.0,1417.0,1076.0,-2215.0,-1092.0,1749.0,-196.0,-1570.0,-2578.0,0.948278,0.306319,-0.082212,9578.0,26.0,5756.0,60.0,1955.0,1110.0
2847.0,2751.0,2864.0,3131.0,2991.0,0.613281,0.502991,-0.526794,0.30542,2.0,74.0,40.0,5377.0,1051.0,1751.0,-2433.0,-1366.0,2251.0,-155.0,-2155.0,-2860.0,0.953393,0.295163,-0.061117,9832.0,72.0,7640.0,51.0,1706.0,928.0
2827.0,2751.0,2842.0,3119.0,3015.0,0.621094,0.491028,-0.520325,0.319824,-6.0,52.0,29.0,5257.0,545.0,3078.0,-2610.0,-1725.0,3272.0,-182.0,-3328.0,-3062.0,0.960426,0.277124,-0.023801,10468.0,-330.0,9856.0,-119.0,1205.0,673.0
2855.0,2783.0,2851.0,3071.0,2983.0,0.624695,0.485474,-0.517883,0.325256,-9.0,42.0,24.0,5301.0,296.0,3657.0,-2586.0,-1913.0,3721.0,-144.0,-3867.0,-3034.0,0.962845,0.269656,-0.007852,10962.0,-930.0,10700.0,-191.0,970.0,557.0
2843.0,2768.0,2827.0,3095.0,3007.0,0.631042,0.475708,-0.514099,0.333374,-10.0,24.0,13.0,5450.0,-157.0,4638.0,-2463.0,-2267.0,4484.0,-37.0,-4797.0,-2879.0,0.966014,0.257609,0.018757,11342.0,-1490.0,11992.0,-225.0,572.0,302.0
2843.0,2797.0,2834.0,3111.0,3007.0,0.63385,0.47168,-0.512634,0.33606,-12.0,16.0,7.0,5477.0,-322.0,5031.0,-2443.0,-2397.0,4789.0,-20.0,-5161.0,-2828.0,0.966892,0.253397,0.029426,11000.0,-1608.0,12230.0,-256.0,373.0,168.0
2867.0,2787.0,2846.0,3107.0,2998.0,0.638672,0.465637,-0.51123,0.337463,-16.0,-8.0,-7.0,5286.0,-556.0,5487.0,-2638.0,-2601.0,5129.0,-36.0,-5582.0,-2977.0,0.967288,0.249736,0.043609,9680.0,-1682.0,11956.0,-365.0,-165.0,-149.0
2854.0,2755.0,2862.0,3071.0,3007.0,0.641479,0.46283,-0.51355,0.332397,-24.0,-40.0,-20.0,5031.0,-799.0,5621.0,-2886.0,-2866.0,5260.0,11.0,-5782.0,-3281.0,0.96655,0.252386,0.044039,9578.0,-2590.0,11502.0,-536.0,-898.0,-457.0
2843.0,2768.0,2838.0,3110.0,3023.0,0.642029,0.462463,-0.516235,0.327698,-26.0,-53.0,-27.0,5001.0,-967.0,5677.0,-2912.0,-3059.0,5355.0,86.0,-5920.0,-3384.0,0.965972,0.255491,0.039215,9876.0,-2910.0,11724.0,-583.0,-1210.0,-609.0
2863.0,2769.0,2855.0,3099.0,2997.0,0.642273,0.463806,-0.52301,0.314331,-30.0,-74.0,-43.0,4958.0,-1276.0,5799.0,-2934.0,-3463.0,5613.0,194.0,-6239.0,-3623.0,0.963408,0.266984,0.022663,9520.0,-3314.0,11644.0,-675.0,-1681.0,-976.0
2858.0,2783.0,2851.0,3071.0,3007.0,0.641174,0.468262,-0.531555,0.294922,-36.0,-97.0,-62.0,4774.0,-1462.0,5521.0,-3072.0,-3812.0,5551.0,287.0,-6182.0,-4057.0,0.95784,0.28694,-0.003737,9218.0,-3358.0,9750.0,-807.0,-2218.0,-1406.0
2855.0,2765.0,2863.0,3151.0,3038.0,0.639954,0.471741,-0.53656,0.282776,-38.0,-107.0,-71.0,4763.0,-1530.0,5225.0,-3048.0,-3990.0,5396.0,392.0,-6031.0,-4217.0,0.953541,0.300332,-0.020933,9504.0,-3482.0,8478.0,-852.0,-2441.0,-1617.0
2847.0,2779.0,2854.0,3071.0,2982.0,0.63501,0.482056,-0.547058,0.255188,-27.0,-124.0,-89.0,4679.0,-1720.0,4053.0,-3028.0,-4448.0,4571.0,915.0,-5260.0,-4619.0,0.940804,0.333015,-0.063292,8834.0,-3868.0,3764.0,-609.0,-2820.0,-2023.0
2854.0,2768.0,2835.0,3091.0,2983.0,0.624268,0.499512,-0.556641,0.225708,3.0,-132.0,-103.0,4672.0,-1396.0,2162.0,-2868.0,-4446.0,3134.0,1455.0,-3729.0,-4667.0,0.920473,0.372381,-0.118707,9408.0,-374.0,-2086.0,80.0,-3011.0,-2353.0
2862.0,2786.0,2847.0,3071.0,3007.0,0.616577,0.511597,-0.559875,0.211182,24.0,-130.0,-110.0,4563.0,-550.0,837.0,-2862.0,-3780.0,2069.0,1356.0,-2364.0,-4396.0,0.906493,0.394407,-0.150427,8254.0,4948.0,-6756.0,554.0,-2955.0,-2503.0
2845.0,2768.0,2811.0,3067.0,3011.0,0.597107,0.541626,-0.563293,0.18103,43.0,-127.0,-105.0,4251.0,3058.0,-2470.0,-2866.0,-569.0,-656.0,-76.0,1489.0,-2596.0,0.868794,0.442871,-0.22135,7848.0,19552.0,-15642.0,988.0,-2904.0,-2386.0
2859.0,2783.0,2835.0,3099.0,2987.0,0.576965,0.566467,-0.569031,0.149597,8.0,-116.0,-58.0,4681.0,7497.0,-6303.0,-2086.0,3536.0,-3932.0,-1616.0,5332.0,1124.0,0.826106,0.483413,-0.289413,11456.0,27230.0,-24406.0,199.0,-2638.0,-1324.0
2843.0,2759.0,2832.0,3071.0,3024.0,0.568115,0.57489,-0.573059,0.135376,-1.0,-99.0,-41.0,5135.0,9048.0,-8201.0,-1474.0,4967.0,-5597.0,-1715.0,6770.0,3063.0,0.80678,0.498051,-0.317814,13418.0,26416.0,-27500.0,-4.0,-2254.0,-930.0
2855.0,2779.0,2849.0,3103.0,2999.0,0.553955,0.58606,-0.579529,0.117615,9.0,-45.0,-11.0,6506.0,10251.0,-10247.0,116.0,6048.0,-7309.0,-1176.0,7404.0,5814.0,0.779924,0.512979,-0.35862,16124.0,22104.0,-24788.0,220.0,-1012.0,-241.0
2847.0,2755.0,2837.0,3101.0,2999.0,0.544861,0.591248,-0.58374,0.112915,9.0,-11.0,15.0,7016.0,9910.0,-10507.0,711.0,5711.0,-7388.0,-723.0,6902.0,6286.0,0.769636,0.512469,-0.380703,14956.0,17644.0,-19342.0,218.0,-234.0,361.0
2855.0,2768.0,2835.0,3089.0,2995.0,0.542664,0.591431,-0.585571,0.113159,3.0,1.0,23.0,7090.0,9356.0,-9924.0,787.0,5183.0,-6766.0,-605.0,6215.0,5853.0,0.769388,0.50937,-0.385395,14440.0,15060.0,-15946.0,90.0,40.0,527.0
2863.0,2787.0,2853.0,3099.0,2987.0,0.542542,0.588196,-0.588501,0.115295,-15.0,13.0,26.0,6912.0,7754.0,-8172.0,569.0,3637.0,-5020.0,-288.0,4585.0,4199.0,0.774205,0.502538,-0.384663,13126.0,10106.0,-10550.0,-331.0,306.0,603.0
2841.0,2769.0,2834.0,3071.0,2979.0,-0.439026,-1.21228,1.975098,-0.595032,28991.0,-5311.0,-15328.0,-15445.0,-3459.0,2462.0,24066.0,7076.0,-23558.0,-27573.0,-6160.0,-15613.0,3.176929,-1.286047,-4.823828,12926.0,4544.0,-7050.0,-578.0,384.0,434.0
2851.0,2791.0,2854.0,3095.0,3005.0,0.548645,0.578918,-0.591431,0.118347,-21.0,17.0,12.0,6632.0,4555.0,-5443.0,193.0,497.0,-2412.0,882.0,1912.0,1290.0,0.785998,0.495253,-0.369919,12684.0,2612.0,-6180.0,-460.0,408.0,292.0
2847.0,2778.0,2833.0,3115.0,2992.0,0.55127,0.575867,-0.591248,0.122009,-1.0,15.0,0.0,6434.0,2851.0,-4121.0,-57.0,-1168.0,-1152.0,1526.0,570.0,-200.0,0.792396,0.49064,-0.362412,12254.0,1560.0,-4598.0,-13.0,351.0,7.0
2853.0,2778.0,2861.0,3071.0,2990.0,0.551636,0.575867,-0.590454,0.124146,9.0,12.0,-5.0,6308.0,2422.0,-3585.0,-199.0,-1581.0,-631.0,1558.0,117.0,-703.0,0.794414,0.488733,-0.360544,11822.0,2772.0,-4100.0,207.0,290.0,-101.0
2847.0,2765.0,2855.0,3071.0,2995.0,0.551147,0.577942,-0.588196,0.127136,13.0,4.0,-10.0,6056.0,2470.0,-2753.0,-459.0,-1523.0,196.0,1024.0,-362.0,-1178.0,0.79532,0.4875,-0.360064,11522.0,6154.0,-3212.0,309.0,114.0,-220.0
2849.0,2778.0,2831.0,3095.0,2975.0,0.551636,0.580444,-0.585388,0.127075,2.0,2.0,-15.0,5911.0,3239.0,-2300.0,-588.0,-788.0,642.0,160.0,-421.0,-1084.0,0.793362,0.491611,-0.359145,11400.0,9090.0,-3794.0,65.0,55.0,-334.0
2849.0,2767.0,2864.0,3088.0,2997.0,0.552551,0.581482,-0.583801,0.125671,-4.0,2.0,-17.0,5838.0,3647.0,-2293.0,-644.0,-415.0,638.0,-163.0,-277.0,-943.0,0.791312,0.495863,-0.357839,11264.0,9666.0,-4782.0,-78.0,54.0,-384.0
2867.0,2783.0,2847.0,3071.0,2991.0,0.555054,0.582825,-0.580811,0.121521,-13.0,2.0,-16.0,5802.0,4336.0,-2587.0,-640.0,192.0,314.0,-503.0,155.0,-517.0,0.786413,0.505837,-0.354174,11748.0,10492.0,-6356.0,-293.0,67.0,-358.0
2855.0,2778.0,2871.0,3093.0,3003.0,0.556519,0.583069,-0.579712,0.119324,-15.0,3.0,-14.0,5847.0,4536.0,-2848.0,-578.0,352.0,36.0,-475.0,388.0,-286.0,0.784389,0.51063,-0.352084,11994.0,10074.0,-7382.0,-334.0,81.0,-301.0
2859.0,2767.0,2839.0,3095.0,2987.0,0.55835,0.583557,-0.578003,0.116577,-6.0,6.0,-8.0,5986.0,4618.0,-3440.0,-416.0,383.0,-578.0,-140.0,792.0,74.0,0.781514,0.516894,-0.349282,12486.0,9096.0,-8564.0,-133.0,141.0,-179.0
2831.0,2739.0,2832.0,3055.0,2995.0,0.558411,0.584229,-0.577271,0.116516,2.0,7.0,-5.0,6073.0,4607.0,-3704.0,-323.0,363.0,-843.0,37.0,944.0,230.0,0.780852,0.517956,-0.349166,12642.0,9228.0,-8942.0,51.0,182.0,-114.0
2847.0,2768.0,2863.0,3071.0,2991.0,0.557495,0.586243,-0.575684,0.118408,12.0,11.0,-1.0,6201.0,4790.0,-4086.0,-194.0,552.0,-1216.0,106.0,1223.0,560.0,0.780713,0.517324,-0.350271,12622.0,10446.0,-9254.0,286.0,261.0,-4.0
2855.0,2783.0,2854.0,3071.0,3007.0,0.556946,0.587341,-0.574829,0.119873,12.0,12.0,1.0,6236.0,4927.0,-4253.0,-162.0,696.0,-1378.0,75.0,1374.0,716.0,0.78111,0.516421,-0.35084,12672.0,10650.0,-9454.0,297.0,294.0,36.0
2851.0,2783.0,2869.0,3059.0,3013.0,0.556335,0.588928,-0.57312,0.123108,10.0,17.0,4.0,6334.0,5187.0,-4550.0,-77.0,974.0,-1677.0,11.0,1645.0,1028.0,0.782697,0.514172,-0.350638,12994.0,11164.0,-9980.0,230.0,404.0,106.0
2839.0,2755.0,2838.0,3107.0,2983.0,0.556519,0.589294,-0.572144,0.125,7.0,21.0,6.0,6396.0,5322.0,-4697.0,-27.0,1120.0,-1835.0,-21.0,1787.0,1194.0,0.784141,0.512871,-0.349278,13204.0,11468.0,-10286.0,179.0,489.0,149.0
2835.0,2763.0,2832.0,3057.0,2992.0,0.557678,0.589233,-0.570068,0.129578,5.0,28.0,11.0,6511.0,5468.0,-5130.0,51.0,1294.0,-2308.0,74.0,2182.0,1494.0,0.788532,0.509469,-0.344379,13458.0,10772.0,-11800.0,130.0,660.0,259.0
2863.0,2763.0,2875.0,3099.0,2997.0,0.558044,0.58905,-0.569092,0.132935,11.0,32.0,14.0,6613.0,5353.0,-5392.0,126.0,1206.0,-2592.0,292.0,2356.0,1595.0,0.791767,0.506129,-0.341761,13906.0,9892.0,-12318.0,259.0,750.0,334.0
2861.0,2768.0,2851.0,3087.0,3002.0,0.557251,0.589539,-0.56665,0.144348,33.0,46.0,24.0,6956.0,5122.0,-5703.0,388.0,1079.0,-2939.0,584.0,2499.0,1834.0,0.801731,0.493452,-0.337283,15032.0,9978.0,-11842.0,778.0,1056.0,567.0
2855.0,2755.0,2815.0,3047.0,2993.0,0.556519,0.589844,-0.564941,0.152405,41.0,53.0,31.0,7090.0,5241.0,-5718.0,466.0,1273.0,-2980.0,420.0,2566.0,1989.0,0.808591,0.484318,-0.334134,14932.0,11502.0,-11390.0,949.0,1225.0,720.0
2846.0,2762.0,2845.0,3071.0,3003.0,0.557068,0.588623,-0.560486,0.17041,33.0,67.0,42.0,7358.0,5793.0,-5221.0,599.0,1985.0,-2589.0,-401.0,2405.0,2248.0,0.825072,0.464781,-0.321257,15404.0,13322.0,-8128.0,757.0,1556.0,963.0
2851.0,2782.0,2833.0,3103.0,2989.0,0.559509,0.58606,-0.557861,0.179504,19.0,75.0,45.0,7377.0,6010.0,-4824.0,539.0,2278.0,-2289.0,-831.0,2281.0,2195.0,0.834658,0.455534,-0.309403,14624.0,13154.0,-7316.0,448.0,1735.0,1038.0
2855.0,2767.0,2859.0,3087.0,3003.0,0.568237,0.577087,-0.552795,0.196045,-9.0,83.0,48.0,7086.0,5827.0,-4132.0,85.0,2229.0,-1860.0,-1144.0,2160.0,1567.0,0.854508,0.4391,-0.277285,12996.0,9878.0,-6350.0,-201.0,1903.0,1118.0
2832.0,2761.0,2827.0,3088.0,2999.0,0.573364,0.571228,-0.55072,0.203979,-14.0,83.0,49.0,6902.0,5263.0,-3864.0,-180.0,1737.0,-1740.0,-861.0,2060.0,1043.0,0.864564,0.430372,-0.25924,12806.0,6648.0,-6106.0,-312.0,1923.0,1141.0
2851.0,2769.0,2838.0,3091.0,3007.0,0.582275,0.559753,-0.546021,0.222412,5.0,89.0,47.0,6688.0,3862.0,-3229.0,-560.0,511.0,-1402.0,-72.0,1591.0,26.0,0.884861,0.408978,-0.222951,12866.0,3648.0,-4530.0,123.0,2039.0,1090.0
2859.0,2778.0,2851.0,3051.0,2999.0,0.588745,0.551086,-0.538147,0.244995,28.0,95.0,45.0,6537.0,3079.0,-2215.0,-866.0,-76.0,-685.0,55.0,868.0,-684.0,0.90369,0.385212,-0.186655,12462.0,5166.0,-904.0,646.0,2178.0,1051.0
2855.0,2771.0,2859.0,3093.0,3007.0,0.591919,0.547058,-0.533264,0.256653,28.0,94.0,46.0,6382.0,3064.0,-1579.0,-1089.0,1.0,-207.0,-254.0,495.0,-958.0,0.912106,0.373901,-0.167405,11786.0,6312.0,782.0,660.0,2174.0,1055.0
2861.0,2778.0,2845.0,3095.0,2959.0,0.59967,0.537354,-0.523926,0.27771,9.0,86.0,47.0,6059.0,3262.0,-206.0,-1533.0,366.0,830.0,-1056.0,-325.0,-1396.0,0.926822,0.353471,-0.12652,11384.0,7080.0,3838.0,209.0,1986.0,1086.0
2855.0,2750.0,2853.0,3059.0,3007.0,0.604553,0.531006,-0.519958,0.28656,-5.0,82.0,46.0,5990.0,3264.0,480.0,-1653.0,445.0,1337.0,-1321.0,-795.0,-1529.0,0.933015,0.344044,-0.104723,11694.0,6294.0,5016.0,-105.0,1899.0,1070.0
2845.0,2775.0,2834.0,3071.0,2987.0,0.615967,0.515625,-0.513489,0.301575,-26.0,76.0,42.0,5846.0,2753.0,1502.0,-1883.0,86.0,1986.0,-1263.0,-1554.0,-1866.0,0.943583,0.325505,-0.059177,10984.0,2952.0,5272.0,-577.0,1746.0,970.0
2855.0,2754.0,2863.0,3091.0,2998.0,0.62146,0.507629,-0.511047,0.308044,-27.0,70.0,38.0,5756.0,2184.0,1843.0,-2009.0,-405.0,2152.0,-906.0,-1881.0,-2113.0,0.947936,0.316092,-0.037753,11044.0,734.0,5746.0,-597.0,1606.0,892.0
2855.0,2775.0,2842.0,3101.0,2991.0,0.63031,0.492981,-0.506592,0.320801,-15.0,57.0,32.0,5703.0,944.0,2602.0,-2119.0,-1484.0,2597.0,-90.0,-2713.0,-2461.0,0.954917,0.296432,0.000538,11432.0,-1604.0,7674.0,-326.0,1327.0,755.0
2861.0,2777.0,2855.0,3091.0,2983.0,0.633728,0.486877,-0.504211,0.327209,-6.0,52.0,28.0,5719.0,441.0,3032.0,-2126.0,-1911.0,2889.0,215.0,-3169.0,-2534.0,0.957688,0.28713,0.017398,11490.0,-1942.0,8700.0,-132.0,1201.0,661.0
2863.0,2765.0,2839.0,3071.0,2979.0,0.639038,0.4776,-0.498901,0.33844,1.0,32.0,16.0,5203.0,13.0,4016.0,-2668.0,-2221.0,3639.0,146.0,-4031.0,-3002.0,0.960912,0.272713,0.045907,7196.0,-302.0,11306.0,40.0,751.0,379.0
2863.0,2783.0,2847.0,3095.0,2997.0,0.641357,0.474609,-0.497253,0.340698,-8.0,6.0,3.0,4786.0,-25.0,4673.0,-3088.0,-2236.0,4223.0,-139.0,-4603.0,-3340.0,0.961231,0.269962,0.0549,7746.0,-370.0,13744.0,-169.0,160.0,81.0
2861.0,2779.0,2845.0,3089.0,2992.0,0.645569,0.469177,-0.497498,0.339966,-17.0,-18.0,-7.0,5414.0,-724.0,6109.0,-2461.0,-2915.0,5578.0,162.0,-6154.0,-2784.0,0.961346,0.267508,0.064705,12990.0,-4168.0,14592.0,-383.0,-394.0,-156.0
2854.0,2775.0,2847.0,3095.0,2999.0,0.647278,0.464844,-0.499817,0.339294,-9.0,-27.0,-6.0,5534.0,-1306.0,6198.0,-2350.0,-3457.0,5639.0,620.0,-6413.0,-2785.0,0.962479,0.262596,0.068193,10242.0,-3874.0,11916.0,-187.0,-605.0,-117.0
2865.0,2768.0,2835.0,3069.0,2997.0,0.64679,0.464478,-0.501709,0.337891,-4.0,-42.0,-12.0,5312.0,-1383.0,6115.0,-2575.0,-3527.0,5582.0,624.0,-6371.0,-3039.0,0.962885,0.261793,0.065056,9172.0,-3056.0,11764.0,-86.0,-940.0,-254.0
2855.0,2769.0,2837.0,3055.0,2994.0,0.643555,0.468018,-0.507812,0.329895,-4.0,-79.0,-31.0,4854.0,-1391.0,6020.0,-3030.0,-3581.0,5642.0,469.0,-6367.0,-3613.0,0.962404,0.26734,0.046079,8582.0,-2524.0,11936.0,-86.0,-1790.0,-689.0
2859.0,2785.0,2855.0,3095.0,2995.0,0.641113,0.471558,-0.512146,0.322876,-8.0,-96.0,-40.0,4720.0,-1286.0,5989.0,-3154.0,-3529.0,5738.0,303.0,-6372.0,-3822.0,0.961196,0.273924,0.030615,8708.0,-1794.0,11726.0,-175.0,-2192.0,-911.0
2851.0,2777.0,2849.0,3095.0,3007.0,0.634277,0.481506,-0.523621,0.302551,-14.0,-130.0,-58.0,4476.0,-1152.0,5514.0,-3352.0,-3560.0,5613.0,168.0,-6060.0,-4318.0,0.955602,0.293973,-0.012182,8186.0,-2348.0,8734.0,-317.0,-2977.0,-1324.0
2850.0,2783.0,2850.0,3095.0,3003.0,0.621826,0.497131,-0.53833,0.276184,2.0,-161.0,-74.0,4339.0,-1295.0,4321.0,-3395.0,-3923.0,4927.0,592.0,-5245.0,-4828.0,0.944095,0.320902,-0.073993,8538.0,-2744.0,4486.0,56.0,-3677.0,-1683.0
2860.0,2771.0,2839.0,3071.0,2993.0,0.612915,0.507751,-0.545776,0.261963,16.0,-171.0,-81.0,4334.0,-1193.0,3555.0,-3325.0,-3949.0,4467.0,768.0,-4653.0,-4935.0,0.935053,0.336471,-0.111394,8628.0,-1472.0,2338.0,380.0,-3905.0,-1847.0
2855.0,2775.0,2846.0,3071.0,2995.0,0.590149,0.53479,-0.558533,0.231689,42.0,-180.0,-98.0,4218.0,-74.0,1435.0,-3212.0,-3124.0,3040.0,606.0,-2666.0,-4672.0,0.907045,0.372399,-0.196003,8222.0,5326.0,-4462.0,979.0,-4108.0,-2222.0
2851.0,2773.0,2847.0,3071.0,2997.0,0.565918,0.566528,-0.56604,0.195801,30.0,-168.0,-117.0,4294.0,3224.0,-1428.0,-2771.0,-212.0,888.0,-971.0,337.0,-2730.0,0.862518,0.419555,-0.282755,8816.0,18784.0,-12518.0,701.0,-3834.0,-2661.0
2855.0,2783.0,2851.0,3102.0,2997.0,0.556091,0.581543,-0.567627,0.174194,5.0,-158.0,-122.0,4343.0,5252.0,-3159.0,-2488.0,1573.0,-530.0,-1849.0,2021.0,-1198.0,0.833908,0.449027,-0.320811,9080.0,22284.0,-16844.0,124.0,-3600.0,-2787.0
2859.0,2783.0,2819.0,3091.0,2998.0,0.541565,0.602905,-0.571716,0.127747,-48.0,-138.0,-94.0,4375.0,7953.0,-6809.0,-1959.0,3800.0,-3689.0,-2043.0,4940.0,1816.0,0.773281,0.506955,-0.380743,8400.0,21074.0,-25280.0,-1091.0,-3143.0,-2144.0
2854.0,2775.0,2845.0,3095.0,2995.0,0.526062,0.614441,-0.580933,0.090515,-24.0,-112.0,-48.0,4954.0,7477.0,-9590.0,-964.0,3042.0,-6066.0,274.0,5850.0,3559.0,0.722446,0.541302,-0.430086,12260.0,10822.0,-24664.0,-548.0,-2552.0,-1078.0
2854.0,2777.0,2847.0,3071.0,2983.0,0.516052,0.619934,-0.58551,0.080872,17.0,-91.0,-33.0,5147.0,6769.0,-10386.0,-624.0,2303.0,-6664.0,1306.0,5798.0,3843.0,0.704578,0.545134,-0.45429,11140.0,9380.0,-25212.0,412.0,-2080.0,-737.0
2859.0,2773.0,2857.0,3071.0,2991.0,0.492432,0.633911,-0.591797,0.07373,67.0,-61.0,-16.0,5453.0,7065.0,-10316.0,-87.0,2665.0,-6186.0,809.0,4954.0,4491.0,0.676316,0.537049,-0.504142,12586.0,18820.0,-17760.0,1545.0,-1387.0,-348.0
2853.0,2778.0,2847.0,3071.0,2992.0,0.4823,0.640564,-0.593567,0.068787,3.0,-22.0,2.0,5953.0,8802.0,-8802.0,540.0,4409.0,-4498.0,-1311.0,3520.0,5083.0,0.660679,0.536229,-0.525299,12588.0,20914.0,-13100.0,70.0,-500.0,53.0
2855.0,2778.0,2850.0,3093.0,2993.0,0.483582,0.63916,-0.594421,0.065002,-33.0,-10.0,9.0,5897.0,8793.0,-8238.0,506.0,4361.0,-3947.0,-1502.0,3152.0,4759.0,0.657996,0.540894,-0.523786,11078.0,16412.0,-13518.0,-749.0,-211.0,228.0
2854.0,2789.0,2854.0,3102.0,3003.0,0.48938,0.63208,-0.598083,0.05719,-52.0,-4.0,16.0,5510.0,6963.0,-7684.0,122.0,2455.0,-3469.0,-179.0,2775.0,3215.0,0.657677,0.550246,-0.514466,10192.0,6452.0,-13954.0,-1187.0,-72.0,377.0
2855.0,2770.0,2847.0,3071.0,3003.0,0.490906,0.628906,-0.600342,0.055603,-34.0,-1.0,15.0,5488.0,5669.0,-7378.0,86.0,1157.0,-3184.0,740.0,2352.0,2323.0,0.659361,0.550706,-0.511853,11060.0,3684.0,-12726.0,-769.0,-11.0,365.0
2859.0,2767.0,2843.0,3088.0,2999.0,0.490051,0.626465,-0.60321,0.059204,12.0,10.0,11.0,5567.0,4034.0,-6604.0,116.0,-410.0,-2404.0,1607.0,1481.0,1087.0,0.665387,0.542575,-0.512666,11266.0,5194.0,-10708.0,297.0,234.0,263.0
2862.0,2783.0,2853.0,3093.0,2995.0,0.488647,0.627014,-0.603394,0.062805,23.0,13.0,8.0,5530.0,3881.0,-6224.0,54.0,-517.0,-2009.0,1463.0,1239.0,792.0,0.668453,0.536985,-0.51451,10688.0,7446.0,-10270.0,544.0,310.0,203.0
2855.0,2782.0,2853.0,3127.0,2999.0,0.486816,0.628662,-0.602539,0.06842,15.0,13.0,4.0,5323.0,4303.0,-5581.0,-187.0,-35.0,-1349.0,654.0,1059.0,552.0,0.672678,0.529634,-0.516598,10162.0,10220.0,-9306.0,355.0,320.0,100.0
2853.0,2778.0,2847.0,3071.0,2997.0,0.487122,0.629028,-0.601685,0.069946,6.0,14.0,2.0,5260.0,4527.0,-5329.0,-262.0,196.0,-1105.0,319.0,989.0,496.0,0.674183,0.528655,-0.515521,10132.0,10244.0,-9316.0,150.0,343.0,59.0
2847.0,2775.0,2854.0,3071.0,2999.0,0.489197,0.628906,-0.600037,0.071411,-6.0,15.0,0.0,5079.0,4707.0,-5244.0,-466.0,368.0,-1056.0,95.0,1132.0,419.0,0.676894,0.529619,-0.511154,9786.0,9786.0,-10706.0,-118.0,346.0,15.0
2865.0,2773.0,2849.0,3103.0,2991.0,0.490417,0.628662,-0.599182,0.071777,-7.0,16.0,-1.0,5089.0,4748.0,-5284.0,-464.0,401.0,-1117.0,99.0,1181.0,466.0,0.677946,0.530598,-0.508574,10396.0,9688.0,-10754.0,-151.0,372.0,-2.0
2861.0,2783.0,2855.0,3102.0,3003.0,0.49353,0.628174,-0.596985,0.07373,-5.0,24.0,1.0,5250.0,4809.0,-5404.0,-336.0,450.0,-1291.0,178.0,1231.0,658.0,0.681891,0.532014,-0.501985,10934.0,9820.0,-11250.0,-92.0,566.0,26.0
2853.0,2778.0,2845.0,3071.0,2979.0,0.4953,0.627869,-0.595581,0.075562,-2.0,29.0,2.0,5326.0,4856.0,-5473.0,-284.0,498.0,-1394.0,201.0,1283.0,764.0,0.684868,0.531961,-0.497904,11078.0,9988.0,-11410.0,-31.0,672.0,60.0
2859.0,2768.0,2837.0,3071.0,3007.0,0.498535,0.627686,-0.592346,0.081116,6.0,35.0,6.0,5287.0,4946.0,-5716.0,-385.0,606.0,-1704.0,223.0,1605.0,888.0,0.692441,0.529749,-0.489746,10178.0,10134.0,-12362.0,142.0,816.0,144.0
2855.0,2768.0,2859.0,3087.0,3003.0,0.499573,0.627808,-0.590881,0.084473,9.0,35.0,9.0,5243.0,5016.0,-5858.0,-462.0,695.0,-1871.0,199.0,1801.0,955.0,0.696442,0.527445,-0.486575,10330.0,10498.0,-12458.0,227.0,816.0,210.0
2863.0,2775.0,2839.0,3103.0,2999.0,0.501526,0.627686,-0.588135,0.092285,13.0,38.0,13.0,5366.0,5221.0,-5949.0,-415.0,952.0,-2018.0,44.0,1943.0,1171.0,0.705782,0.521049,-0.479847,11300.0,11078.0,-12086.0,305.0,888.0,309.0
2853.0,2767.0,2847.0,3070.0,2997.0,0.502808,0.627502,-0.586609,0.096741,13.0,42.0,14.0,5459.0,5314.0,-5984.0,-368.0,1074.0,-2087.0,-25.0,1997.0,1286.0,0.711313,0.517528,-0.475695,11470.0,11144.0,-12202.0,308.0,983.0,334.0
2863.0,2771.0,2843.0,3071.0,3006.0,0.506348,0.626465,-0.582886,0.106689,11.0,52.0,17.0,5594.0,5527.0,-6122.0,-336.0,1348.0,-2317.0,-172.0,2226.0,1520.0,0.72396,0.510042,-0.464443,11484.0,11720.0,-12802.0,253.0,1202.0,404.0
2861.0,2775.0,2847.0,3071.0,2993.0,0.511475,0.624329,-0.57843,0.117981,7.0,64.0,21.0,5708.0,5762.0,-6385.0,-346.0,1648.0,-2708.0,-290.0,2624.0,1787.0,0.739022,0.502169,-0.448842,11654.0,12234.0,-13718.0,180.0,1476.0,498.0
2864.0,2739.0,2830.0,3099.0,2998.0,0.514709,0.622742,-0.575989,0.124207,4.0,69.0,25.0,5790.0,5867.0,-6513.0,-334.0,1787.0,-2914.0,-335.0,2827.0,1920.0,0.747631,0.497979,-0.439217,12154.0,12350.0,-13692.0,113.0,1603.0,581.0
2859.0,2765.0,2841.0,3095.0,2995.0,0.523132,0.617065,-0.571289,0.138306,-5.0,82.0,37.0,6132.0,5909.0,-6485.0,-162.0,1914.0,-3090.0,-356.0,2957.0,2089.0,0.768407,0.487589,-0.414345,13668.0,11600.0,-12208.0,-95.0,1899.0,858.0
2855.0,2778.0,2837.0,3071.0,2987.0,0.528625,0.61261,-0.568909,0.146545,-9.0,92.0,43.0,6354.0,5780.0,-6284.0,-44.0,1840.0,-3023.0,-305.0,2865.0,2053.0,0.78103,0.48094,-0.398027,13926.0,10570.0,-11286.0,-195.0,2108.0,992.0
2855.0,2781.0,2855.0,3087.0,3025.0,0.540894,0.602356,-0.563049,0.165894,-5.0,108.0,46.0,6491.0,5143.0,-5803.0,-135.0,1335.0,-2855.0,-18.0,2753.0,1538.0,0.808953,0.464808,-0.359771,13060.0,7680.0,-9896.0,-107.0,2474.0,1067.0
2855.0,2778.0,2833.0,3063.0,2992.0,0.552185,0.592407,-0.555115,0.189514,15.0,115.0,48.0,6364.0,4236.0,-4882.0,-497.0,600.0,-2274.0,208.0,2324.0,573.0,0.837591,0.443833,-0.318275,12054.0,6280.0,-6568.0,346.0,2657.0,1106.0
2847.0,2765.0,2851.0,3071.0,2987.0,0.557007,0.587891,-0.550476,0.202576,23.0,116.0,50.0,6275.0,4020.0,-4222.0,-699.0,481.0,-1786.0,32.0,1971.0,143.0,0.851423,0.431892,-0.297346,12132.0,7058.0,-4224.0,529.0,2660.0,1148.0
2847.0,2770.0,2836.0,3103.0,2983.0,0.5672,0.577759,-0.540161,0.229431,21.0,117.0,55.0,6248.0,3967.0,-2538.0,-943.0,628.0,-479.0,-682.0,918.0,-451.0,0.87787,0.40755,-0.251225,12418.0,7932.0,148.0,484.0,2688.0,1264.0
2846.0,2783.0,2838.0,3071.0,2999.0,0.572998,0.571594,-0.534912,0.242615,14.0,117.0,56.0,6192.0,3950.0,-1696.0,-1101.0,710.0,152.0,-1023.0,390.0,-733.0,0.890362,0.39549,-0.225662,11946.0,7748.0,1606.0,321.0,2683.0,1305.0
2851.0,2764.0,2863.0,3093.0,3005.0,0.585876,0.556641,-0.525085,0.266785,-6.0,109.0,58.0,6004.0,3759.0,-59.0,-1469.0,710.0,1342.0,-1513.0,-682.0,-1305.0,0.912277,0.372076,-0.171138,11474.0,6452.0,4740.0,-117.0,2510.0,1334.0
2847.0,2757.0,2863.0,3107.0,2987.0,0.592712,0.547974,-0.520874,0.277588,-14.0,103.0,57.0,5898.0,3480.0,655.0,-1652.0,527.0,1828.0,-1547.0,-1187.0,-1594.0,0.921679,0.360405,-0.143222,11130.0,5102.0,5408.0,-300.0,2378.0,1315.0
2859.0,2762.0,2837.0,3071.0,2981.0,0.605286,0.530212,-0.513916,0.297241,-17.0,89.0,52.0,5772.0,2467.0,1805.0,-1906.0,-288.0,2546.0,-1083.0,-2134.0,-2113.0,0.937334,0.336346,-0.090512,11302.0,1356.0,6824.0,-378.0,2047.0,1211.0
2863.0,2813.0,2815.0,3111.0,2983.0,0.614807,0.513977,-0.507935,0.315857,-6.0,73.0,47.0,5670.0,1319.0,2705.0,-2106.0,-1229.0,3068.0,-399.0,-2976.0,-2517.0,0.94925,0.311124,-0.044417,11084.0,-514.0,7902.0,-116.0,1693.0,1087.0
2863.0,2791.0,2832.0,3067.0,2991.0,0.618225,0.507019,-0.505249,0.324646,-1.0,64.0,44.0,5639.0,872.0,3126.0,-2175.0,-1576.0,3328.0,-149.0,-3370.0,-2628.0,0.953919,0.29885,-0.024748,11102.0,-810.0,8820.0,-3.0,1485.0,1011.0
2843.0,2787.0,2839.0,3071.0,2999.0,0.623596,0.495117,-0.500366,0.339966,1.0,46.0,35.0,5530.0,373.0,3920.0,-2340.0,-1898.0,3846.0,12.0,-4044.0,-2739.0,0.960699,0.277292,0.008942,10654.0,-68.0,10154.0,35.0,1057.0,809.0
2867.0,2775.0,2838.0,3107.0,2997.0,0.626038,0.489807,-0.498596,0.345703,-5.0,35.0,29.0,5470.0,279.0,4313.0,-2418.0,-1920.0,4125.0,-47.0,-4357.0,-2749.0,0.962936,0.268543,0.022925,10590.0,58.0,10986.0,-105.0,805.0,683.0
2867.0,2778.0,2832.0,3119.0,2975.0,0.631042,0.47998,-0.497131,0.352417,-19.0,11.0,14.0,5274.0,-119.0,4974.0,-2637.0,-2211.0,4606.0,28.0,-4961.0,-2904.0,0.965729,0.255381,0.044892,9694.0,-1846.0,11540.0,-416.0,254.0,340.0
2837.0,2791.0,2845.0,3091.0,2993.0,0.633118,0.476074,-0.497681,0.353271,-22.0,-5.0,5.0,5104.0,-426.0,5151.0,-2813.0,-2483.0,4730.0,180.0,-5177.0,-3099.0,0.966548,0.251189,0.051306,9186.0,-2754.0,11220.0,-487.0,-94.0,131.0
2870.0,2800.0,2818.0,3071.0,2989.0,0.635254,0.471741,-0.501282,0.350037,-21.0,-38.0,-14.0,4874.0,-1144.0,5338.0,-3048.0,-3179.0,4909.0,643.0,-5563.0,-3481.0,0.967135,0.248416,0.05225,9298.0,-4648.0,11068.0,-460.0,-862.0,-320.0
2865.0,2783.0,2831.0,3071.0,2999.0,0.292847,-0.091003,0.328979,-1.21228,21803.0,12371.0,-2638.0,16032.0,-31580.0,-1448.0,15802.0,-24609.0,-13235.0,20619.0,29281.0,2338.0,0.027962,-0.850931,1.438874,8994.0,-4576.0,11132.0,-263.0,-1581.0,-693.0
2870.0,2774.0,2827.0,3071.0,3023.0,0.632019,0.47583,-0.511536,0.335388,-9.0,-85.0,-38.0,4637.0,-1835.0,5460.0,-3274.0,-3951.0,5264.0,1050.0,-6039.0,-4057.0,0.965776,0.258341,0.02385,8764.0,-4240.0,10996.0,-186.0,-1943.0,-852.0
2847.0,2783.0,2851.0,3071.0,2995.0,0.625061,0.485596,-0.52124,0.31897,0.0,-117.0,-53.0,4544.0,-1868.0,5245.0,-3331.0,-4116.0,5368.0,1046.0,-6022.0,-4413.0,0.961395,0.274534,-0.015052,8980.0,-3640.0,9468.0,4.0,-2660.0,-1197.0
2897.0,2774.0,2849.0,3071.0,3015.0,0.612854,0.501953,-0.532776,0.297607,16.0,-149.0,-68.0,4358.0,-1736.0,4549.0,-3439.0,-4178.0,5135.0,1062.0,-5535.0,-4886.0,0.951798,0.298132,-0.071647,7850.0,-2872.0,6422.0,387.0,-3403.0,-1545.0
2858.0,2779.0,2855.0,3071.0,3007.0,0.603821,0.513062,-0.539307,0.284973,28.0,-170.0,-74.0,4206.0,-1549.0,4015.0,-3524.0,-4106.0,4901.0,1025.0,-5082.0,-5138.0,0.943707,0.312219,-0.108275,7456.0,-1812.0,4664.0,644.0,-3876.0,-1694.0
2869.0,2770.0,2859.0,3069.0,2987.0,0.578552,0.541138,-0.554199,0.25531,48.0,-210.0,-85.0,3961.0,-676.0,2523.0,-3555.0,-3487.0,4161.0,695.0,-3690.0,-5291.0,0.917582,0.343168,-0.200061,7718.0,2362.0,-48.0,1106.0,-4804.0,-1928.0
2865.0,2784.0,2845.0,3118.0,2999.0,0.547424,0.57373,-0.568054,0.220093,52.0,-215.0,-95.0,4366.0,1576.0,646.0,-2797.0,-1521.0,3134.0,-520.0,-1975.0,-3972.0,0.874481,0.378099,-0.303738,10376.0,11856.0,-4978.0,1200.0,-4916.0,-2156.0
2870.0,2775.0,2830.0,3093.0,2991.0,0.533081,0.589355,-0.572815,0.200745,37.0,-199.0,-97.0,4523.0,3389.0,-663.0,-2418.0,125.0,2212.0,-1574.0,-755.0,-2775.0,0.847333,0.398369,-0.350983,9658.0,18342.0,-9834.0,861.0,-4557.0,-2212.0
2847.0,2751.0,2854.0,3107.0,2979.0,0.511414,0.614685,-0.580017,0.15564,-25.0,-170.0,-92.0,4327.0,7003.0,-4595.0,-2100.0,3331.0,-1084.0,-3055.0,2692.0,309.0,0.784596,0.448169,-0.42849,8042.0,22342.0,-22402.0,-569.0,-3877.0,-2085.0
2863.0,2767.0,2855.0,3119.0,2978.0,0.494751,0.629028,-0.58905,0.112305,-39.0,-132.0,-58.0,4519.0,7410.0,-8705.0,-1413.0,3394.0,-4729.0,-1200.0,5081.0,2935.0,0.724152,0.490119,-0.485266,9246.0,11942.0,-29180.0,-883.0,-3007.0,-1315.0
2847.0,2753.0,2847.0,3093.0,2995.0,0.48407,0.634949,-0.593872,0.098633,1.0,-108.0,-39.0,4492.0,6656.0,-10538.0,-1244.0,2579.0,-6345.0,319.0,5912.0,3659.0,0.700205,0.497568,-0.511792,8884.0,8396.0,-31422.0,28.0,-2473.0,-872.0
2847.0,2783.0,2839.0,3090.0,3010.0,0.455811,0.649353,-0.60199,0.090576,84.0,-66.0,-3.0,4642.0,6055.0,-12495.0,-817.0,2098.0,-7841.0,1355.0,6362.0,4923.0,0.666418,0.482912,-0.568084,10108.0,12744.0,-28254.0,1942.0,-1511.0,-62.0
