flex_1,flex_2,flex_3,flex_4,flex_5,Qw,Qx,Qy,Qz,GYRx,GYRy,GYRz,ACCx,ACCy,ACCz,ACCx_real,ACCy_real,ACCz_real,ACCx_world,ACCy_world,ACCz_world,GRAx,GRAy,GRAz,ACCx_raw,ACCy_raw,ACCz_raw,GYRx_raw,GYRy_raw,GYRz_raw
2893.0,2811.0,2895.0,3127.0,3023.0,1.0,0.0,0.0,0.0,0.0,0.0,0.0,0.0,0.0,0.0,0.0,0.0,0.0,0.0,0.0,0.0,0.0,0.0,0.0,0.0,0.0,0.0,0.0,0.0,0.0
2875.0,2819.0,2897.0,3151.0,3023.0,0.833862,-0.053894,-0.546082,0.059387,-53.0,159.0,10.0,10401.0,-2068.0,-4564.0,2992.0,-800.0,-7822.0,8392.0,-512.0,-281.0,0.904312,-0.154741,0.397744,25414.0,-6004.0,-9450.0,-1211.0,3643.0,248.0
2894.0,2832.0,2895.0,3153.0,3031.0,0.859924,-0.066223,-0.504211,0.043213,-56.0,306.0,-53.0,12492.0,-2401.0,-4664.0,5435.0,-1111.0,-8618.0,10181.0,-936.0,696.0,0.861444,-0.157471,0.482722,31560.0,-4942.0,-10306.0,-1263.0,7024.0,-1213.0
2885.0,2815.0,2896.0,3143.0,3031.0,0.901001,-0.070129,-0.428101,0.002869,-73.0,484.0,-164.0,14282.0,-2229.0,-4966.0,7965.0,-1173.0,-10074.0,12756.0,-1890.0,10.0,0.771036,-0.128829,0.623623,32767.0,-3888.0,-11252.0,-1662.0,11103.0,-3738.0
2895.0,2834.0,2887.0,3153.0,3039.0,0.924316,-0.069397,-0.374084,-0.029602,-91.0,582.0,-226.0,14519.0,-2413.0,-5357.0,8820.0,-1543.0,-11177.0,13854.0,-3231.0,-1641.0,0.695653,-0.106142,0.710482,28322.0,-6914.0,-13990.0,-2080.0,13344.0,-5160.0
2883.0,2819.0,2886.0,3155.0,3039.0,0.963318,-0.07135,-0.236816,-0.103821,-121.0,639.0,-228.0,8688.0,-4297.0,-7110.0,4828.0,-3573.0,-14299.0,9658.0,-6930.0,-9958.0,0.471074,-0.088293,0.877587,-8636.0,-14496.0,-17148.0,-2753.0,14655.0,-5203.0
2880.0,2821.0,2903.0,3152.0,3050.0,0.978577,-0.085205,-0.110962,-0.151001,-128.0,392.0,-95.0,-553.0,-4655.0,-4477.0,-2542.0,-3563.0,-12348.0,-1119.0,-5118.0,-12007.0,0.242902,-0.133249,0.960841,-27016.0,-9622.0,6814.0,-2910.0,8997.0,-2168.0
2887.0,2826.0,2893.0,3149.0,3023.0,0.980103,-0.09491,-0.04364,-0.168762,-25.0,119.0,-47.0,-6221.0,-4849.0,2753.0,-7184.0,-3445.0,-5260.0,-7634.0,-1925.0,-5399.0,0.117578,-0.171313,0.978169,-22022.0,-7548.0,30126.0,-569.0,2737.0,-1062.0
2887.0,2807.0,2883.0,3139.0,3053.0,0.979919,-0.090698,-0.031738,-0.174683,25.0,44.0,-49.0,-6812.0,-3683.0,6368.0,-7581.0,-2317.0,-1672.0,-7858.0,98.0,-1966.0,0.093889,-0.166666,0.981523,-15662.0,990.0,32767.0,583.0,1018.0,-1103.0
2885.0,2832.0,2903.0,3135.0,3053.0,0.97937,-0.077698,-0.032593,-0.183472,24.0,-51.0,-35.0,-5870.0,-376.0,10866.0,-6626.0,772.0,2790.0,-5982.0,3516.0,2030.0,0.092351,-0.14023,0.985728,-7340.0,7968.0,31310.0,552.0,-1168.0,-792.0
2879.0,2811.0,2890.0,3139.0,3029.0,0.978027,-0.073608,-0.052979,-0.187683,11.0,-119.0,-20.0,-4096.0,612.0,11995.0,-5171.0,1628.0,3937.0,-4466.0,3998.0,2991.0,0.131259,-0.124096,0.983538,-2006.0,1256.0,24714.0,274.0,-2725.0,-443.0
2883.0,2815.0,2885.0,3127.0,3031.0,0.97699,-0.07312,-0.069275,-0.187805,25.0,-146.0,-11.0,-2992.0,311.0,11841.0,-4325.0,1268.0,3815.0,-3911.0,3352.0,2884.0,0.162826,-0.116855,0.979634,640.0,-1686.0,22222.0,590.0,-3339.0,-246.0
2883.0,2813.0,2889.0,3135.0,3015.0,0.974121,-0.067139,-0.113159,-0.183716,81.0,-199.0,4.0,-1159.0,-468.0,10578.0,-3167.0,262.0,2669.0,-3296.0,1787.0,1776.0,0.24513,-0.089224,0.965351,2140.0,-2516.0,16164.0,1867.0,-4543.0,103.0
2879.0,2835.0,2898.0,3151.0,3015.0,0.968201,-0.051453,-0.174927,-0.171204,130.0,-274.0,31.0,-55.0,-357.0,8520.0,-2974.0,-31.0,872.0,-2908.0,1042.0,-244.0,0.356346,-0.039737,0.933477,3248.0,864.0,10282.0,2991.0,-6273.0,723.0
2877.0,2802.0,2895.0,3139.0,3025.0,0.962769,-0.041687,-0.212769,-0.161377,140.0,-305.0,44.0,832.0,144.0,7541.0,-2634.0,239.0,119.0,-2226.0,1015.0,-1009.0,0.423148,-0.011598,0.905958,7644.0,3724.0,9524.0,3219.0,-6972.0,1024.0
2881.0,2831.0,2897.0,3143.0,3055.0,0.945801,-0.024475,-0.29303,-0.137756,117.0,-316.0,66.0,2997.0,1519.0,5601.0,-1599.0,1236.0,-1174.0,-281.0,1432.0,-1825.0,0.561039,0.034436,0.82705,11786.0,6940.0,4758.0,2702.0,-7238.0,1524.0
2886.0,2827.0,2895.0,3153.0,3003.0,0.921265,-0.018616,-0.371826,-0.112305,67.0,-315.0,80.0,4815.0,2028.0,3346.0,-831.0,1624.0,-2574.0,1531.0,1439.0,-2353.0,0.689282,0.049216,0.72274,14930.0,3886.0,194.0,1537.0,-7211.0,1852.0
2885.0,2843.0,2894.0,3157.0,3031.0,0.906799,-0.020081,-0.409119,-0.09967,51.0,-305.0,84.0,5515.0,1718.0,2212.0,-596.0,1348.0,-3231.0,2265.0,1036.0,-2530.0,0.74598,0.045136,0.664438,14856.0,1116.0,-2530.0,1187.0,-6981.0,1944.0
2885.0,2823.0,2898.0,3138.0,3029.0,0.874817,-0.026062,-0.47821,-0.072754,54.0,-283.0,89.0,6468.0,152.0,27.0,-417.0,-44.0,-4406.0,3441.0,-508.0,-2736.0,0.840485,0.023984,0.541233,15164.0,-5012.0,-6676.0,1257.0,-6467.0,2058.0
2875.0,2839.0,2883.0,3123.0,3031.0,0.840393,-0.028931,-0.539551,-0.041504,80.0,-246.0,90.0,8020.0,-1070.0,-1551.0,571.0,-1038.0,-4959.0,4616.0,-1517.0,-1539.0,0.909271,-0.003839,0.416031,22942.0,-4050.0,-5846.0,1835.0,-5625.0,2080.0
2885.0,2831.0,2895.0,3131.0,3054.0,0.82489,-0.028137,-0.563965,-0.025513,83.0,-199.0,89.0,9126.0,-1057.0,-2031.0,1492.0,-912.0,-4998.0,5116.0,-1300.0,-404.0,0.931854,-0.017644,0.362247,24626.0,-1370.0,-7022.0,1914.0,-4548.0,2047.0
2891.0,2819.0,2895.0,3153.0,3019.0,0.802002,-0.026917,-0.59668,0.001892,53.0,-105.0,81.0,9891.0,-293.0,-3082.0,2051.0,79.0,-5428.0,5788.0,-71.0,404.0,0.956975,-0.045432,0.28646,19374.0,2038.0,-9398.0,1233.0,-2386.0,1866.0
2882.0,2812.0,2899.0,3135.0,3049.0,0.788086,-0.032715,-0.61438,0.018066,-1.0,-48.0,62.0,9201.0,30.0,-3799.0,1277.0,634.0,-5788.0,5931.0,549.0,-217.0,0.967186,-0.073763,0.242873,15970.0,-478.0,-9618.0,-11.0,-1087.0,1433.0
2889.0,2832.0,2881.0,3123.0,3007.0,0.783813,-0.038025,-0.619446,0.022156,-17.0,-22.0,49.0,8886.0,-338.0,-4121.0,944.0,375.0,-6002.0,6061.0,257.0,-496.0,0.969375,-0.087057,0.229695,16136.0,-3394.0,-10144.0,-384.0,-501.0,1127.0
2881.0,2814.0,2906.0,3151.0,3013.0,0.781494,-0.048462,-0.621521,0.025818,-19.0,37.0,20.0,8740.0,-1572.0,-4541.0,802.0,-688.0,-6365.0,6366.0,-881.0,-566.0,0.968928,-0.107838,0.222763,17572.0,-6632.0,-9868.0,-432.0,860.0,481.0
2894.0,2822.0,2903.0,3141.0,3023.0,0.783997,-0.051941,-0.618042,0.025757,-15.0,70.0,5.0,8878.0,-1992.0,-4578.0,961.0,-1064.0,-6467.0,6484.0,-1277.0,-442.0,0.96641,-0.113281,0.23064,18890.0,-6150.0,-9166.0,-336.0,1614.0,126.0
2881.0,2822.0,2896.0,3109.0,3043.0,0.797729,-0.054688,-0.60022,0.019958,-16.0,152.0,-28.0,9978.0,-2194.0,-4227.0,2151.0,-1282.0,-6467.0,6763.0,-1472.0,428.0,0.955443,-0.111211,0.273516,24748.0,-4244.0,-6796.0,-356.0,3484.0,-627.0
2891.0,2811.0,2909.0,3159.0,3027.0,0.825195,-0.053284,-0.562317,0.003235,-32.0,269.0,-71.0,11979.0,-1735.0,-3687.0,4379.0,-984.0,-6651.0,7730.0,-1253.0,1745.0,0.927698,-0.091577,0.361918,30298.0,-1366.0,-5678.0,-712.0,6184.0,-1605.0
2871.0,2821.0,2929.0,3139.0,3047.0,0.844177,-0.05127,-0.533447,-0.011414,-47.0,339.0,-102.0,12882.0,-1362.0,-3497.0,5494.0,-752.0,-6983.0,8590.0,-1242.0,2038.0,0.901818,-0.074384,0.425571,30996.0,-424.0,-5726.0,-1075.0,7781.0,-2319.0
2892.0,2823.0,2913.0,3143.0,3055.0,0.890015,-0.044373,-0.450073,-0.057739,-86.0,500.0,-187.0,13805.0,-1002.0,-3499.0,7200.0,-780.0,-8339.0,10761.0,-2316.0,898.0,0.806268,-0.027011,0.590925,26914.0,-2646.0,-9592.0,-1949.0,11467.0,-4278.0
2879.0,2815.0,2907.0,3153.0,3023.0,0.934509,-0.038086,-0.332886,-0.119873,-113.0,580.0,-217.0,10118.0,-2535.0,-5043.0,4946.0,-2605.0,-11395.0,10043.0,-5225.0,-5735.0,0.631301,0.008625,0.775414,4020.0,-10642.0,-14212.0,-2570.0,13287.0,-4967.0
2875.0,2798.0,2903.0,3151.0,3023.0,0.96167,-0.039246,-0.209473,-0.172485,-120.0,472.0,-151.0,3677.0,-3233.0,-4381.0,265.0,-3206.0,-11828.0,3714.0,-4836.0,-10632.0,0.416426,-0.003221,0.909141,-11898.0,-5676.0,-1552.0,-2737.0,10830.0,-3452.0
2881.0,2815.0,2865.0,3139.0,3027.0,0.968079,-0.042297,-0.157043,-0.190735,-119.0,377.0,-106.0,695.0,-2830.0,-2274.0,-1928.0,-2649.0,-10032.0,182.0,-3182.0,-10060.0,0.320196,-0.021987,0.947104,-16180.0,-2968.0,9556.0,-2717.0,8639.0,-2417.0
2890.0,2809.0,2897.0,3118.0,3047.0,0.972595,-0.050476,-0.083801,-0.210876,-74.0,174.0,-46.0,-4007.0,-2553.0,3352.0,-5516.0,-2038.0,-4683.0,-5137.0,-255.0,-5481.0,0.184298,-0.062842,0.98084,-18386.0,-5292.0,24624.0,-1677.0,4003.0,-1034.0
2864.0,2813.0,2895.0,3115.0,2999.0,0.972839,-0.048828,-0.052429,-0.220093,8.0,40.0,-25.0,-5890.0,-1956.0,8239.0,-6901.0,-1366.0,131.0,-6796.0,1708.0,-624.0,0.123504,-0.071925,0.989724,-15802.0,-206.0,28438.0,187.0,929.0,-553.0
2870.0,2783.0,2883.0,3135.0,3025.0,0.973022,-0.0448,-0.049683,-0.220703,24.0,-24.0,-2.0,-6305.0,-1165.0,9883.0,-7259.0,-630.0,1764.0,-6924.0,2711.0,943.0,0.11646,-0.065252,0.991007,-14554.0,2510.0,28942.0,571.0,-544.0,-28.0
2879.0,2807.0,2871.0,3135.0,3055.0,0.973755,-0.038208,-0.067688,-0.213684,45.0,-143.0,33.0,-6234.0,-213.0,11483.0,-7447.0,159.0,3390.0,-7022.0,3554.0,2238.0,0.148152,-0.045483,0.987818,-10652.0,1322.0,25694.0,1047.0,-3271.0,761.0
2891.0,2821.0,2864.0,3119.0,3039.0,0.972595,-0.03125,-0.112793,-0.200745,82.0,-232.0,45.0,-4840.0,-122.0,11452.0,-6740.0,4.0,3484.0,-6743.0,2957.0,1824.0,0.23195,-0.015502,0.972541,-4824.0,-992.0,20954.0,1891.0,-5307.0,1049.0
2882.0,2855.0,2903.0,3154.0,3047.0,0.970337,-0.02594,-0.144043,-0.192505,109.0,-273.0,49.0,-4008.0,-319.0,10832.0,-6379.0,-360.0,2990.0,-6584.0,2318.0,1013.0,0.289528,0.005117,0.957191,-2836.0,-1866.0,17410.0,2510.0,-6248.0,1127.0
2871.0,2797.0,2913.0,3147.0,3063.0,0.959656,-0.008606,-0.222595,-0.171509,166.0,-344.0,60.0,-1952.0,-340.0,8657.0,-5476.0,-830.0,1278.0,-5429.0,1119.0,-1254.0,0.430182,0.059837,0.900732,3612.0,1146.0,9658.0,3807.0,-7873.0,1376.0
2886.0,2837.0,2917.0,3149.0,3023.0,0.938721,0.013245,-0.3125,-0.144592,159.0,-347.0,77.0,1779.0,1059.0,6645.0,-2995.0,114.0,56.0,-2287.0,950.0,-1687.0,0.58287,0.115236,0.804272,14772.0,6864.0,5996.0,3662.0,-7932.0,1775.0
2875.0,2830.0,2878.0,3159.0,3031.0,0.925293,0.021423,-0.35553,-0.130188,133.0,-334.0,86.0,3439.0,1922.0,5424.0,-1905.0,838.0,-689.0,-712.0,1260.0,-1646.0,0.65236,0.132217,0.746256,16246.0,8592.0,3336.0,3059.0,-7641.0,1970.0
2867.0,2815.0,2930.0,3151.0,3023.0,0.894653,0.025208,-0.433716,-0.104248,57.0,-304.0,92.0,5942.0,2759.0,3215.0,-372.0,1648.0,-1884.0,1519.0,1602.0,-1236.0,0.770795,0.135532,0.622527,17900.0,5906.0,-478.0,1322.0,-6944.0,2119.0
2899.0,2802.0,2907.0,3117.0,3051.0,0.861694,0.013977,-0.50061,-0.081909,15.0,-271.0,95.0,7337.0,1557.0,973.0,288.0,687.0,-3110.0,2917.0,452.0,-1229.0,0.860457,0.106097,0.49842,18276.0,-2534.0,-4414.0,366.0,-6189.0,2192.0
2881.0,2809.0,2873.0,3134.0,3023.0,0.845093,0.006714,-0.529846,-0.070496,21.0,-247.0,91.0,7846.0,444.0,-66.0,517.0,-260.0,-3657.0,3470.0,-554.0,-1162.0,0.894592,0.086051,0.438369,18412.0,-6056.0,-6604.0,492.0,-5644.0,2107.0
2885.0,2806.0,2908.0,3127.0,3043.0,0.81366,-0.002747,-0.57959,-0.044373,60.0,-196.0,84.0,8559.0,-1396.0,-1644.0,830.0,-1780.0,-4331.0,4218.0,-2072.0,-721.0,0.943421,0.046966,0.328079,19226.0,-6210.0,-6764.0,1379.0,-4483.0,1946.0
2874.0,2813.0,2903.0,3114.0,3055.0,0.799988,-0.003601,-0.599182,-0.030334,72.0,-164.0,79.0,8998.0,-1437.0,-2044.0,1142.0,-1687.0,-4353.0,4402.0,-1917.0,-183.0,0.958895,0.03059,0.281868,20910.0,-2074.0,-6174.0,1651.0,-3752.0,1816.0
2874.0,2815.0,2893.0,3151.0,2991.0,0.779907,-0.003296,-0.625854,-0.008118,42.0,-85.0,63.0,9759.0,-280.0,-2550.0,1761.0,-321.0,-4324.0,4596.0,-402.0,780.0,0.97627,0.00502,0.216616,20618.0,3598.0,-6804.0,968.0,-1941.0,1447.0
2881.0,2819.0,2915.0,3135.0,3027.0,0.769958,-0.009766,-0.638062,0.001282,-21.0,-21.0,46.0,9700.0,512.0,-2821.0,1651.0,648.0,-4341.0,4578.0,613.0,805.0,0.982537,-0.016674,0.18562,18898.0,1622.0,-6032.0,-460.0,-479.0,1064.0
2881.0,2854.0,2879.0,3095.0,3025.0,0.768677,-0.015869,-0.639404,0.002136,-39.0,11.0,37.0,9553.0,294.0,-2934.0,1500.0,516.0,-4423.0,4630.0,455.0,656.0,0.982923,-0.027128,0.181779,18106.0,-1304.0,-6636.0,-877.0,252.0,860.0
2887.0,2839.0,2911.0,3123.0,3039.0,0.772705,-0.029419,-0.634094,0.000427,-45.0,68.0,18.0,9258.0,-728.0,-3069.0,1230.0,-351.0,-4659.0,4793.0,-512.0,316.0,0.979911,-0.046006,0.194132,17932.0,-4540.0,-6066.0,-1027.0,1563.0,421.0
2891.0,2833.0,2895.0,3121.0,3071.0,0.785767,-0.038574,-0.61731,-0.004883,-36.0,130.0,-9.0,9640.0,-1429.0,-2864.0,1689.0,-981.0,-4788.0,4990.0,-1229.0,568.0,0.970499,-0.054592,0.234894,22098.0,-4214.0,-4714.0,-810.0,2996.0,-206.0
2879.0,2813.0,2909.0,3139.0,3035.0,0.796448,-0.040344,-0.603333,-0.010071,-33.0,176.0,-31.0,10430.0,-1479.0,-2576.0,2550.0,-1052.0,-4777.0,5212.0,-1330.0,1223.0,0.961858,-0.052112,0.268793,26124.0,-2882.0,-3564.0,-739.0,4049.0,-694.0
2890.0,2815.0,2899.0,3131.0,3039.0,0.828979,-0.036621,-0.55719,-0.031494,-40.0,313.0,-102.0,12571.0,-1223.0,-2151.0,4984.0,-1013.0,-5234.0,6608.0,-1566.0,2671.0,0.926105,-0.02562,0.376397,31602.0,-1298.0,-3446.0,-914.0,7182.0,-2323.0
2883.0,2783.0,2899.0,3121.0,3047.0,0.875122,-0.024658,-0.477417,-0.07489,-79.0,482.0,-192.0,13575.0,-684.0,-2550.0,6699.0,-916.0,-6997.0,9249.0,-2427.0,1797.0,0.83929,0.02835,0.542912,26470.0,168.0,-8572.0,-1793.0,11046.0,-4390.0
2881.0,2831.0,2837.0,3121.0,3059.0,0.921326,-0.013794,-0.362732,-0.139282,-138.0,588.0,-252.0,11119.0,-1502.0,-4842.0,5612.0,-2121.0,-10875.0,10578.0,-4797.0,-4397.0,0.672231,0.075627,0.736476,10684.0,-8048.0,-17670.0,-3143.0,13489.0,-5757.0
2895.0,2859.0,2898.0,3123.0,3056.0,0.939087,-0.011597,-0.296387,-0.173462,-151.0,590.0,-246.0,8376.0,-2532.0,-5886.0,3782.0,-3195.0,-12636.0,8810.0,-5782.0,-8550.0,0.560689,0.081043,0.823994,-1094.0,-11172.0,-17062.0,-3458.0,13537.0,-5623.0
2877.0,2811.0,2911.0,3151.0,3047.0,0.959045,-0.017517,-0.174194,-0.222656,-155.0,406.0,-121.0,1586.0,-3238.0,-4353.0,-1215.0,-3598.0,-12042.0,1350.0,-4066.0,-11877.0,0.341921,0.043972,0.938693,-16844.0,-6502.0,1906.0,-3528.0,9301.0,-2755.0
2896.0,2838.0,2903.0,3119.0,3055.0,0.964722,-0.026733,-0.094299,-0.244263,-70.0,207.0,-51.0,-3191.0,-3549.0,1522.0,-4788.0,-3503.0,-6512.0,-4700.0,-1483.0,-7300.0,0.195005,-0.005513,0.980745,-17412.0,-7040.0,21364.0,-1589.0,4754.0,-1156.0
2883.0,2800.0,2889.0,3163.0,3019.0,0.965698,-0.019165,-0.052917,-0.253479,16.0,96.0,-28.0,-5471.0,-1961.0,6840.0,-6387.0,-1877.0,-1300.0,-6332.0,1396.0,-1987.0,0.111921,-0.010188,0.993657,-15740.0,3434.0,27166.0,368.0,2208.0,-630.0
2886.0,2811.0,2891.0,3171.0,3039.0,0.965637,-0.012085,-0.041687,-0.256165,22.0,58.0,-21.0,-6045.0,-535.0,8712.0,-6755.0,-518.0,551.0,-6142.0,2909.0,-35.0,0.086701,-0.001982,0.996192,-15152.0,7688.0,27952.0,516.0,1347.0,-472.0
2896.0,2834.0,2865.0,3135.0,3023.0,0.965332,-0.002563,-0.032227,-0.258911,7.0,-16.0,-4.0,-6736.0,1321.0,11122.0,-7256.0,1224.0,2947.0,-5835.0,4749.0,2493.0,0.063546,0.011738,0.997856,-14940.0,5470.0,27894.0,171.0,-364.0,-90.0
2893.0,2829.0,2873.0,3139.0,3039.0,0.965637,0.001221,-0.044922,-0.255981,38.0,-116.0,22.0,-6561.0,1329.0,12112.0,-7266.0,1121.0,3953.0,-6075.0,4648.0,3339.0,0.086132,0.025356,0.995962,-10752.0,2404.0,25822.0,891.0,-2653.0,517.0
2881.0,2845.0,2915.0,3139.0,3027.0,0.965698,0.004211,-0.061768,-0.251953,61.0,-162.0,34.0,-5878.0,1424.0,12123.0,-6837.0,1102.0,3994.0,-5865.0,4384.0,3205.0,0.117176,0.039259,0.99222,-7278.0,3624.0,23756.0,1415.0,-3707.0,798.0
2879.0,2819.0,2934.0,3143.0,3019.0,0.96405,0.012085,-0.113708,-0.239807,94.0,-246.0,52.0,-4117.0,1582.0,10923.0,-5865.0,944.0,2945.0,-5267.0,3655.0,1689.0,0.213445,0.077837,0.973825,-2004.0,3014.0,16950.0,2157.0,-5633.0,1206.0
2895.0,2830.0,2867.0,3135.0,3010.0,-0.170898,0.100342,0.610474,-1.21228,27373.0,-21526.0,-28912.0,-18212.0,-20211.0,-11237.0,-17928.0,-7804.0,-20379.0,-21724.0,28250.0,-10305.0,-0.034627,-1.514427,1.116083,7430.0,6252.0,13992.0,2650.0,-6303.0,1365.0
2889.0,2835.0,2907.0,3162.0,3025.0,0.945129,0.030945,-0.254089,-0.203064,109.0,-286.0,81.0,353.0,1796.0,6797.0,-3478.0,471.0,-321.0,-2410.0,1806.0,-1829.0,0.467727,0.161687,0.868986,1938.0,1202.0,5402.0,2507.0,-6532.0,1870.0
2886.0,2811.0,2894.0,3135.0,3055.0,0.936462,0.03363,-0.29303,-0.189758,118.0,-326.0,97.0,194.0,1284.0,5311.0,-4197.0,-143.0,-1455.0,-2404.0,1371.0,-3476.0,0.536059,0.174197,0.825973,-976.0,-468.0,1340.0,2722.0,-7459.0,2234.0
2882.0,2799.0,2898.0,3147.0,3022.0,0.907593,0.034607,-0.38855,-0.155212,120.0,-431.0,137.0,1013.0,745.0,2288.0,-4676.0,-757.0,-3410.0,-789.0,527.0,-5758.0,0.694547,0.183434,0.695647,9400.0,1246.0,-2536.0,2770.0,-9857.0,3155.0
2895.0,2827.0,2899.0,3155.0,3003.0,0.88678,0.031616,-0.440857,-0.135254,107.0,-432.0,145.0,3069.0,890.0,1708.0,-3266.0,-546.0,-3283.0,602.0,142.0,-4621.0,0.773334,0.175328,0.609318,19730.0,2816.0,1142.0,2461.0,-9895.0,3331.0
2891.0,2832.0,2896.0,3121.0,3057.0,0.843445,0.022034,-0.528015,-0.09613,75.0,-324.0,144.0,7882.0,977.0,645.0,620.0,-159.0,-2970.0,2898.0,-461.0,-783.0,0.886467,0.138685,0.441355,29384.0,1502.0,-1418.0,1728.0,-7403.0,3308.0
2883.0,2842.0,2898.0,3151.0,3037.0,0.809509,0.008301,-0.584229,-0.057678,52.0,-211.0,151.0,9156.0,607.0,-609.0,1415.0,-55.0,-3207.0,3471.0,-373.0,315.0,0.944919,0.080834,0.31724,15908.0,292.0,-5832.0,1207.0,-4826.0,3470.0
2896.0,2821.0,2882.0,3139.0,3055.0,0.794312,0.000366,-0.606201,-0.039978,38.0,-201.0,146.0,8412.0,517.0,-1262.0,523.0,115.0,-3433.0,3450.0,-83.0,-400.0,0.962996,0.049051,0.265049,12310.0,642.0,-6130.0,889.0,-4589.0,3361.0
2895.0,2809.0,2895.0,3145.0,3031.0,0.762756,-0.017883,-0.646362,-0.010437,12.0,-187.0,127.0,8106.0,-157.0,-2123.0,25.0,-44.0,-3464.0,3416.0,-185.0,-542.0,0.986407,-0.013789,0.163802,18624.0,-3426.0,-6456.0,285.0,-4261.0,2918.0
2883.0,2811.0,2887.0,3149.0,3043.0,0.748535,-0.027039,-0.662537,0.002502,12.0,-151.0,116.0,8877.0,-712.0,-2371.0,752.0,-353.0,-3359.0,3412.0,-447.0,356.0,0.991729,-0.043795,0.120625,22690.0,-4680.0,-6242.0,291.0,-3445.0,2669.0
2879.0,2815.0,2907.0,3147.0,3039.0,0.731079,-0.040588,-0.680603,0.02478,19.0,-49.0,84.0,10170.0,-1317.0,-3082.0,2034.0,-554.0,-3657.0,3783.0,-459.0,1814.0,0.993138,-0.093078,0.070223,23680.0,-3204.0,-7954.0,448.0,-1110.0,1943.0
2885.0,2805.0,2907.0,3147.0,3029.0,0.731079,-0.049133,-0.679565,0.036194,-1.0,67.0,40.0,11579.0,-1248.0,-3568.0,3468.0,-256.0,-4154.0,4394.0,66.0,3167.0,0.990076,-0.121033,0.071563,27426.0,-2054.0,-8940.0,-3.0,1535.0,923.0
2901.0,2832.0,2896.0,3139.0,3037.0,0.738708,-0.052124,-0.671021,0.03595,-16.0,133.0,11.0,12264.0,-1130.0,-3861.0,4173.0,-103.0,-4631.0,5010.0,278.0,3698.0,0.987629,-0.125255,0.093997,28684.0,-1460.0,-9356.0,-350.0,3052.0,263.0
2887.0,2811.0,2882.0,3143.0,3013.0,0.770325,-0.054138,-0.635071,0.019714,-45.0,286.0,-71.0,13870.0,-1396.0,-4626.0,5872.0,-507.0,-6162.0,7153.0,-281.0,4632.0,0.976287,-0.108448,0.187543,32767.0,-5246.0,-12066.0,-1030.0,6573.0,-1619.0
2887.0,2815.0,2879.0,3133.0,3027.0,0.82251,-0.046997,-0.566467,-0.017456,-54.0,472.0,-169.0,15026.0,-2561.0,-5804.0,7378.0,-2089.0,-8701.0,10560.0,-2742.0,3929.0,0.933491,-0.057535,0.353733,32767.0,-9020.0,-15138.0,-1218.0,10818.0,-3865.0
2895.0,2832.0,2903.0,3127.0,3035.0,0.88623,-0.028442,-0.456238,-0.074768,-58.0,642.0,-256.0,13012.0,-4077.0,-7789.0,6352.0,-4222.0,-12557.0,13068.0,-6334.0,-2220.0,0.812917,0.017811,0.582033,11804.0,-13856.0,-23450.0,-1325.0,14713.0,-5856.0
2891.0,2819.0,2891.0,3151.0,3047.0,-0.694946,0.243958,0.779846,-1.028015,-30429.0,289.0,13668.0,-12449.0,26476.0,27195.0,-17219.0,-23148.0,20050.0,11806.0,9616.0,-13114.0,0.582318,-1.942462,0.87209,-3182.0,-10690.0,-18198.0,-1735.0,14246.0,-5460.0
2891.0,2832.0,2897.0,3134.0,3051.0,0.953552,-0.002747,-0.251709,-0.165283,-88.0,587.0,-220.0,4056.0,-4568.0,-8195.0,116.0,-5206.0,-15348.0,5800.0,-6315.0,-13752.0,0.480943,0.077969,0.873215,-10660.0,-3812.0,-8612.0,-1995.0,13467.0,-5035.0
2894.0,2821.0,2887.0,3126.0,3055.0,0.969604,0.0,-0.126831,-0.209167,-143.0,391.0,-122.0,-2975.0,-2259.0,-3521.0,-4989.0,-2693.0,-11449.0,-2668.0,-1041.0,-12450.0,0.245952,0.053058,0.967798,-27398.0,-2178.0,8318.0,-3271.0,8973.0,-2793.0
2891.0,2827.0,2898.0,3135.0,3039.0,0.970703,-0.007446,-0.047302,-0.235291,-49.0,191.0,-93.0,-7263.0,-3240.0,3209.0,-8044.0,-3303.0,-4944.0,-8191.0,550.0,-5713.0,0.095337,0.007803,0.995333,-22902.0,-7780.0,27080.0,-1101.0,4396.0,-2121.0
2883.0,2819.0,2903.0,3146.0,3047.0,0.967834,0.002869,-0.010254,-0.251221,22.0,67.0,-46.0,-8683.0,-1354.0,8443.0,-8833.0,-1441.0,253.0,-8421.0,3036.0,74.0,0.018407,0.010705,0.999702,-19650.0,5870.0,29798.0,509.0,1552.0,-1048.0
2879.0,2815.0,2899.0,3149.0,3019.0,0.967163,0.008484,-0.003357,-0.254028,16.0,13.0,-17.0,-8936.0,-27.0,10055.0,-8953.0,-175.0,1864.0,-7903.0,4219.0,1841.0,0.002183,0.018116,0.999852,-19100.0,7298.0,28736.0,372.0,309.0,-386.0
2891.0,2821.0,2919.0,3155.0,3018.0,0.967224,0.013733,-0.008667,-0.253296,23.0,-85.0,12.0,-8458.0,922.0,11754.0,-8538.0,668.0,3566.0,-7198.0,4688.0,3500.0,0.009809,0.030956,0.999418,-13994.0,2252.0,26384.0,531.0,-1938.0,287.0
2886.0,2815.0,2882.0,3150.0,3051.0,0.967529,0.015564,-0.020874,-0.251343,43.0,-132.0,20.0,-7817.0,806.0,11894.0,-8083.0,473.0,3713.0,-7003.0,4276.0,3463.0,0.032569,0.04061,0.998608,-11554.0,764.0,23996.0,1004.0,-3012.0,460.0
2892.0,2830.0,2896.0,3151.0,3035.0,0.966797,0.02124,-0.066956,-0.245667,85.0,-246.0,27.0,-6321.0,656.0,10947.0,-7296.0,50.0,2835.0,-6722.0,3507.0,1942.0,0.119029,0.073967,0.990114,-6994.0,1106.0,17612.0,1949.0,-5618.0,627.0
2878.0,2815.0,2902.0,3155.0,3039.0,0.960144,0.0271,-0.142395,-0.238831,114.0,-326.0,24.0,-3278.0,420.0,9475.0,-5411.0,-563.0,1627.0,-5293.0,2051.0,81.0,0.260495,0.120056,0.957906,3460.0,-450.0,13666.0,2614.0,-7465.0,572.0
2875.0,2811.0,2881.0,3199.0,3027.0,0.954041,0.030579,-0.18512,-0.233643,125.0,-337.0,36.0,-1621.0,123.0,8463.0,-4397.0,-1063.0,847.0,-4388.0,1088.0,-856.0,0.338934,0.14485,0.929578,6436.0,-1646.0,10684.0,2876.0,-7703.0,836.0
2877.0,2807.0,2899.0,3135.0,3019.0,0.936646,0.037537,-0.275146,-0.213379,146.0,-361.0,81.0,800.0,-385.0,6044.0,-3291.0,-1922.0,-884.0,-2751.0,-399.0,-2752.0,0.49941,0.187738,0.845721,7376.0,-802.0,5018.0,3348.0,-8247.0,1862.0
2878.0,2831.0,2876.0,3119.0,3029.0,0.909424,0.043335,-0.371033,-0.182617,133.0,-397.0,113.0,2159.0,866.0,3584.0,-3239.0,-889.0,-2321.0,-794.0,222.0,-3998.0,0.659025,0.214334,0.720858,8902.0,7972.0,188.0,3064.0,-9073.0,2608.0
2887.0,2810.0,2875.0,3157.0,3055.0,0.891052,0.041443,-0.42041,-0.166138,91.0,-410.0,130.0,3193.0,2102.0,2491.0,-2831.0,352.0,-2777.0,536.0,1085.0,-3792.0,0.735444,0.213547,0.643114,13096.0,11880.0,-1432.0,2090.0,-9381.0,2997.0
2879.0,2832.0,2879.0,3139.0,3039.0,0.848938,0.017395,-0.509827,-0.138123,-30.0,-349.0,144.0,8118.0,3976.0,1868.0,1066.0,2580.0,-2060.0,2823.0,1981.0,369.0,0.860817,0.170372,0.479548,32767.0,11450.0,6684.0,-672.0,-7977.0,3309.0
2864.0,2807.0,2875.0,3155.0,2983.0,0.832336,0.000244,-0.539062,-0.128967,-54.0,-246.0,118.0,10028.0,3540.0,2146.0,2677.0,2397.0,-1285.0,2699.0,1563.0,2198.0,0.8973,0.139449,0.418828,28820.0,2384.0,4572.0,-1231.0,-5623.0,2706.0
2881.0,2815.0,2888.0,3163.0,3029.0,0.811462,-0.02002,-0.572815,-0.114197,16.0,-117.0,46.0,9811.0,449.0,-19.0,2157.0,-356.0,-2828.0,3227.0,-1158.0,1010.0,0.934208,0.098337,0.342994,17368.0,-7836.0,-5942.0,377.0,-2674.0,1068.0
2897.0,2819.0,2910.0,3142.0,3051.0,0.796021,-0.018555,-0.597168,-0.096802,75.0,-95.0,31.0,8220.0,-404.0,-1127.0,402.0,-1109.0,-3470.0,3198.0,-1644.0,-704.0,0.954308,0.086074,0.286065,12608.0,1114.0,-4390.0,1732.0,-2155.0,729.0
2887.0,2819.0,2893.0,3147.0,3046.0,0.788513,-0.01593,-0.608521,-0.087463,63.0,-98.0,47.0,8114.0,378.0,-1028.0,229.0,-288.0,-3148.0,3022.0,-724.0,-617.0,0.962439,0.081324,0.258852,16432.0,5876.0,-334.0,1448.0,-2222.0,1086.0
2884.0,2846.0,2887.0,3139.0,3030.0,0.775391,-0.021851,-0.627075,-0.07135,-1.0,-78.0,79.0,7917.0,1522.0,-996.0,-74.0,1066.0,-2737.0,2785.0,722.0,-594.0,0.975575,0.055598,0.212621,16344.0,4926.0,-3508.0,-12.0,-1779.0,1812.0
2895.0,2830.0,2918.0,3159.0,3043.0,0.768372,-0.036011,-0.635803,-0.063293,-27.0,-4.0,43.0,9101.0,828.0,-1235.0,1059.0,622.0,-2782.0,2988.0,182.0,529.0,0.981625,0.025145,0.188858,20944.0,-2694.0,-4130.0,-604.0,-88.0,999.0
2862.0,2789.0,2902.0,3127.0,3071.0,0.769531,-0.039612,-0.634338,-0.061829,-10.0,39.0,13.0,9314.0,-76.0,-1559.0,1276.0,-219.0,-3132.0,3249.0,-710.0,646.0,0.981185,0.017475,0.192047,19324.0,-5724.0,-5022.0,-221.0,911.0,317.0
2879.0,2833.0,2928.0,3119.0,3047.0,0.778442,-0.035522,-0.623779,-0.060608,31.0,82.0,-27.0,8399.0,-1172.0,-1770.0,408.0,-1338.0,-3566.0,3349.0,-1812.0,-411.0,0.975458,0.020308,0.219283,13580.0,-4316.0,-3742.0,711.0,1892.0,-597.0
2885.0,2839.0,2903.0,3127.0,3056.0,0.784119,-0.029663,-0.616943,-0.059937,42.0,89.0,-29.0,8292.0,-1216.0,-1523.0,336.0,-1440.0,-3463.0,3227.0,-1863.0,-533.0,0.971069,0.027436,0.236935,17014.0,-2036.0,-1024.0,978.0,2058.0,-654.0
2899.0,2831.0,2907.0,3143.0,3024.0,0.801636,-0.018799,-0.594543,-0.059387,17.0,170.0,-15.0,10660.0,-22.0,-607.0,2832.0,-353.0,-3001.0,3622.0,-858.0,1814.0,0.955447,0.040477,0.292311,31656.0,5600.0,568.0,403.0,3905.0,-330.0
2907.0,2827.0,2887.0,3159.0,3031.0,0.836121,-0.015442,-0.543579,-0.071655,-68.0,341.0,-39.0,12698.0,1925.0,-1302.0,5233.0,1498.0,-4648.0,6505.0,460.0,2947.0,0.911208,0.052078,0.408515,25860.0,7262.0,-7868.0,-1537.0,7817.0,-884.0
2878.0,2829.0,2907.0,3153.0,3047.0,0.857361,-0.016968,-0.507507,-0.084351,-99.0,386.0,-60.0,11568.0,1905.0,-2707.0,4415.0,1441.0,-6674.0,8100.0,91.0,703.0,0.873096,0.056522,0.484331,14660.0,2520.0,-14160.0,-2257.0,8850.0,-1361.0
2879.0,2839.0,2875.0,3122.0,3055.0,0.894653,-0.026184,-0.43158,-0.112183,-112.0,356.0,-62.0,7855.0,-32.0,-3974.0,1480.0,-441.0,-9102.0,7768.0,-2000.0,-4568.0,0.778103,0.04998,0.626043,4402.0,-7274.0,-8660.0,-2565.0,8159.0,-1412.0
2879.0,2815.0,2902.0,3137.0,3023.0,0.922058,-0.034851,-0.362854,-0.130188,-62.0,281.0,-32.0,4992.0,-1865.0,-2291.0,-563.0,-2112.0,-8306.0,4526.0,-3232.0,-6544.0,0.678219,0.030209,0.734262,4982.0,-6146.0,3872.0,-1405.0,6457.0,-729.0
2897.0,2835.0,2903.0,3135.0,3031.0,0.933044,-0.035583,-0.331055,-0.136292,-44.0,275.0,-31.0,4682.0,-1677.0,-709.0,-458.0,-1872.0,-7084.0,3446.0,-2801.0,-5845.0,0.627477,0.023838,0.778284,8472.0,-1236.0,8330.0,-1007.0,6315.0,-698.0
2897.0,2835.0,2895.0,3151.0,3034.0,0.952759,-0.03241,-0.261108,-0.151672,-54.0,314.0,-45.0,4020.0,-366.0,2103.0,-136.0,-508.0,-4954.0,2149.0,-1144.0,-4345.0,0.507378,0.017449,0.861526,2668.0,3010.0,11182.0,-1230.0,7215.0,-1026.0
2911.0,2835.0,2911.0,3135.0,3047.0,0.967285,-0.033264,-0.188843,-0.166077,-61.0,245.0,-28.0,457.0,-418.0,4266.0,-2626.0,-404.0,-3323.0,-1251.0,7.0,-4066.0,0.376378,-0.001627,0.926454,-11518.0,-3586.0,15644.0,-1395.0,5633.0,-624.0
2903.0,2839.0,2871.0,3125.0,3047.0,0.97168,-0.034485,-0.161316,-0.16925,-36.0,171.0,-9.0,-1307.0,-1059.0,5688.0,-3970.0,-957.0,-2058.0,-3240.0,111.0,-3225.0,0.325168,-0.012411,0.945595,-12250.0,-5994.0,20492.0,-812.0,3925.0,-195.0
2910.0,2814.0,2903.0,3157.0,3019.0,0.976624,-0.029724,-0.131653,-0.167053,24.0,33.0,23.0,-4000.0,-746.0,8931.0,-6187.0,-630.0,1038.0,-6093.0,1482.0,-643.0,0.267082,-0.014072,0.963484,-16816.0,2962.0,26670.0,564.0,774.0,527.0
2895.0,2829.0,2891.0,3143.0,3059.0,0.977539,-0.025818,-0.130676,-0.16333,25.0,-55.0,28.0,-5043.0,153.0,10325.0,-7205.0,216.0,2423.0,-7102.0,2682.0,433.0,0.263916,-0.007789,0.964516,-14924.0,5640.0,28902.0,580.0,-1244.0,656.0
2897.0,2823.0,2911.0,3143.0,3039.0,0.974976,-0.022217,-0.152649,-0.159912,19.0,-139.0,-2.0,-3780.0,1027.0,12308.0,-6276.0,981.0,4506.0,-6658.0,3259.0,2384.0,0.304763,0.005499,0.952354,312.0,2630.0,29360.0,456.0,-3183.0,-23.0
2901.0,2823.0,2909.0,3165.0,3025.0,0.970032,-0.020447,-0.183594,-0.157715,37.0,-149.0,7.0,-1913.0,375.0,12660.0,-4883.0,225.0,5027.0,-5998.0,2161.0,2917.0,0.362633,0.018243,0.931711,-470.0,-1768.0,24920.0,867.0,-3394.0,179.0
2873.0,2815.0,2907.0,3147.0,3071.0,0.966919,-0.017578,-0.201904,-0.154541,59.0,-176.0,14.0,-1859.0,110.0,12264.0,-5102.0,-122.0,4745.0,-6305.0,1829.0,2331.0,0.395883,0.028412,0.917741,-4398.0,-1054.0,21514.0,1373.0,-4021.0,321.0
2903.0,2845.0,2891.0,3131.0,3047.0,0.9552,-0.007629,-0.25824,-0.144409,100.0,-317.0,24.0,-3293.0,-176.0,10004.0,-7352.0,-667.0,2905.0,-7678.0,1619.0,-1166.0,0.495545,0.060009,0.866515,-12526.0,-1322.0,10378.0,2307.0,-7250.0,561.0
2907.0,2835.0,2895.0,3127.0,3050.0,0.92572,0.00293,-0.356079,-0.127197,117.0,-469.0,44.0,-920.0,486.0,6927.0,-6314.0,-300.0,813.0,-5114.0,1279.0,-3579.0,0.658514,0.096009,0.746336,18558.0,6452.0,9956.0,2700.0,-10727.0,1026.0
2890.0,2835.0,2891.0,3147.0,3039.0,0.905212,0.006287,-0.408325,-0.117554,93.0,-415.0,50.0,3423.0,1504.0,6561.0,-2620.0,624.0,1101.0,-2359.0,1270.0,-1132.0,0.737764,0.107382,0.666459,32767.0,8910.0,10928.0,2139.0,-9489.0,1160.0
2903.0,2821.0,2919.0,3143.0,3035.0,0.871765,0.005615,-0.479919,-0.098145,44.0,-242.0,69.0,7947.0,2014.0,4894.0,1101.0,1162.0,476.0,366.0,985.0,1297.0,0.835652,0.103993,0.539253,19798.0,2810.0,2886.0,1017.0,-5528.0,1598.0
2901.0,2817.0,2895.0,3151.0,3047.0,0.84436,-0.000427,-0.530212,-0.077148,40.0,-222.0,79.0,7199.0,928.0,2305.0,-136.0,263.0,-1281.0,1123.0,171.0,-661.0,0.895447,0.081089,0.437771,11704.0,-1592.0,-2836.0,935.0,-5083.0,1822.0
2921.0,2834.0,2928.0,3143.0,3062.0,0.829041,-0.004517,-0.555359,-0.06488,41.0,-230.0,91.0,6801.0,429.0,1080.0,-747.0,-99.0,-2058.0,1602.0,-185.0,-1483.0,0.921416,0.064575,0.383074,11360.0,-1864.0,-5200.0,962.0,-5254.0,2099.0
2899.0,2799.0,2887.0,3157.0,3055.0,0.795715,-0.015564,-0.604309,-0.037354,31.0,-217.0,109.0,7549.0,217.0,-331.0,-338.0,50.0,-2535.0,2348.0,-113.0,-1006.0,0.962879,0.020377,0.269127,19298.0,854.0,-4088.0,721.0,-4958.0,2512.0
2899.0,2815.0,2911.0,3151.0,3035.0,0.780579,-0.021973,-0.624207,-0.025146,19.0,-180.0,103.0,8304.0,274.0,-898.0,311.0,297.0,-2698.0,2714.0,115.0,-290.0,0.97559,-0.00291,0.219819,21264.0,648.0,-4820.0,437.0,-4121.0,2373.0
2899.0,2826.0,2918.0,3157.0,3027.0,0.758667,-0.035278,-0.650452,-0.006531,-2.0,-94.0,79.0,9033.0,-139.0,-2010.0,944.0,229.0,-3249.0,3362.0,60.0,430.0,0.987413,-0.045033,0.151286,18882.0,-2220.0,-7466.0,-31.0,-2149.0,1816.0
2903.0,2833.0,2913.0,3139.0,3031.0,0.746765,-0.048218,-0.663269,0.004639,-14.0,-32.0,52.0,8841.0,-1004.0,-2966.0,729.0,-363.0,-3911.0,3942.0,-567.0,298.0,0.990165,-0.078168,0.115429,16636.0,-4804.0,-8200.0,-307.0,-728.0,1214.0
2911.0,2811.0,2896.0,3142.0,3053.0,0.74408,-0.053833,-0.665894,0.007996,-16.0,-7.0,40.0,8591.0,-1408.0,-3302.0,480.0,-664.0,-4181.0,4161.0,-910.0,86.0,0.990095,-0.090761,0.107406,15552.0,-5042.0,-8482.0,-355.0,-141.0,918.0
2907.0,2827.0,2896.0,3153.0,3057.0,0.74408,-0.062317,-0.6651,0.00946,-22.0,37.0,8.0,8157.0,-1948.0,-3608.0,58.0,-1085.0,-4488.0,4379.0,-1430.0,-310.0,0.988596,-0.105322,0.107502,15596.0,-5368.0,-7574.0,-497.0,855.0,205.0
2898.0,2831.0,2903.0,3147.0,3036.0,0.746826,-0.065308,-0.661743,0.007568,-26.0,60.0,-5.0,8200.0,-2171.0,-3559.0,111.0,-1289.0,-4506.0,4375.0,-1661.0,-272.0,0.987426,-0.107563,0.115638,16940.0,-5664.0,-6672.0,-576.0,1385.0,-93.0
2914.0,2834.0,2909.0,3156.0,3047.0,0.758789,-0.069397,-0.647644,-0.000549,-30.0,116.0,-26.0,8917.0,-2385.0,-3232.0,864.0,-1528.0,-4473.0,4396.0,-1910.0,331.0,0.982927,-0.104604,0.151502,21604.0,-4610.0,-4856.0,-687.0,2676.0,-581.0
2910.0,2822.0,2891.0,3151.0,3037.0,0.782776,-0.068726,-0.618225,-0.018982,-47.0,221.0,-74.0,11363.0,-1699.0,-2515.0,3412.0,-1009.0,-4367.0,4901.0,-1382.0,2408.0,0.970472,-0.084123,0.226173,32050.0,-554.0,-2986.0,-1055.0,5071.0,-1679.0
2898.0,2829.0,2898.0,3139.0,3047.0,0.824829,-0.060059,-0.559021,-0.059692,-84.0,406.0,-165.0,13673.0,-837.0,-2289.0,6059.0,-572.0,-5301.0,6984.0,-1632.0,3699.0,0.929364,-0.032338,0.367795,32767.0,434.0,-5442.0,-1902.0,9310.0,-3771.0
2901.0,2831.0,2895.0,3135.0,3027.0,0.851501,-0.052917,-0.513794,-0.090454,-107.0,509.0,-218.0,14153.0,-962.0,-3041.0,6906.0,-985.0,-6862.0,8880.0,-2907.0,2905.0,0.884566,0.002831,0.466452,29432.0,-4082.0,-11978.0,-2450.0,11677.0,-4991.0
2909.0,2837.0,2905.0,3151.0,3031.0,0.903259,-0.037903,-0.395081,-0.163086,-131.0,624.0,-264.0,11091.0,-3341.0,-6009.0,5142.0,-3835.0,-11620.0,10168.0,-7273.0,-4457.0,0.726083,0.060392,0.684949,8482.0,-14216.0,-19666.0,-2996.0,14301.0,-6045.0
2887.0,2815.0,2882.0,3133.0,3051.0,0.938599,-0.033447,-0.264893,-0.218506,-158.0,491.0,-113.0,3728.0,-3438.0,-5521.0,-465.0,-3871.0,-12545.0,4042.0,-5550.0,-11199.0,0.511872,0.052974,0.857425,-20688.0,-2856.0,-3662.0,-3598.0,11269.0,-2570.0
2897.0,2831.0,2898.0,3151.0,3027.0,0.948303,-0.039429,-0.213989,-0.231079,-153.0,319.0,-40.0,-1269.0,-3178.0,-3428.0,-4743.0,-3375.0,-10844.0,-1134.0,-2888.0,-11910.0,0.424076,0.024116,0.905331,-31706.0,-6150.0,7970.0,-3496.0,7316.0,-913.0
2895.0,2831.0,2906.0,3147.0,3039.0,0.954834,-0.047241,-0.159119,-0.246399,-27.0,91.0,-55.0,-5610.0,-3329.0,4139.0,-8289.0,-3232.0,-3601.0,-7421.0,343.0,-6076.0,0.327144,-0.011802,0.94487,-16554.0,-3442.0,29582.0,-617.0,2094.0,-1258.0
2896.0,2830.0,2895.0,3152.0,3031.0,0.954956,-0.039612,-0.140503,-0.258362,0.0,16.0,-37.0,-5725.0,-1004.0,8975.0,-8090.0,-978.0,1132.0,-7464.0,3225.0,-1249.0,0.288817,-0.003054,0.957382,-10428.0,4524.0,28706.0,2.0,374.0,-838.0
2885.0,2811.0,2896.0,3139.0,3025.0,0.95459,-0.037781,-0.136902,-0.26178,-7.0,-9.0,-24.0,-5524.0,-324.0,10307.0,-7827.0,-320.0,2445.0,-7214.0,3907.0,145.0,0.281151,-0.000454,0.959601,-9750.0,2692.0,27884.0,-138.0,-199.0,-530.0
2895.0,2815.0,2900.0,3131.0,3019.0,0.953674,-0.035767,-0.138672,-0.264526,17.0,-54.0,-6.0,-4762.0,-5.0,11791.0,-7083.0,-47.0,3935.0,-6809.0,4020.0,1765.0,0.283418,0.005145,0.95896,-6618.0,224.0,26434.0,393.0,-1231.0,-118.0
2895.0,2832.0,2895.0,3127.0,3039.0,0.952026,-0.030334,-0.156921,-0.260925,58.0,-112.0,12.0,-3366.0,190.0,11917.0,-5943.0,-7.0,4143.0,-6016.0,3468.0,2061.0,0.314617,0.024131,0.948892,-1888.0,1502.0,22802.0,1330.0,-2565.0,277.0
2896.0,2829.0,2901.0,3147.0,3035.0,0.950378,-0.025818,-0.172607,-0.257385,74.0,-140.0,16.0,-2530.0,400.0,11484.0,-5326.0,74.0,3791.0,-5459.0,3145.0,1744.0,0.341375,0.03978,0.939006,-16.0,1900.0,19818.0,1706.0,-3197.0,381.0
2897.0,2826.0,2895.0,3151.0,3039.0,0.944336,-0.015747,-0.216003,-0.247559,100.0,-193.0,23.0,-822.0,445.0,9843.0,-4227.0,-187.0,2419.0,-4370.0,2114.0,420.0,0.415756,0.077206,0.90615,3750.0,962.0,14220.0,2309.0,-4415.0,537.0
2898.0,2829.0,2896.0,3139.0,3031.0,0.939697,-0.010437,-0.242554,-0.240845,107.0,-212.0,33.0,105.0,481.0,8917.0,-3670.0,-315.0,1690.0,-3718.0,1594.0,-231.0,0.460882,0.09722,0.882096,5540.0,1288.0,11912.0,2463.0,-4853.0,763.0
2899.0,2821.0,2883.0,3151.0,3029.0,0.927002,-0.001526,-0.30188,-0.222351,112.0,-251.0,54.0,1248.0,441.0,6797.0,-3342.0,-635.0,98.0,-2719.0,815.0,-1876.0,0.560365,0.131418,0.817639,4554.0,610.0,6940.0,2567.0,-5738.0,1252.0
2894.0,2831.0,2887.0,3139.0,3039.0,0.906616,0.003845,-0.371582,-0.199707,105.0,-306.0,65.0,2011.0,807.0,4884.0,-3495.0,-465.0,-1044.0,-1712.0,700.0,-3177.0,0.672229,0.155387,0.723748,7260.0,3362.0,4512.0,2406.0,-7005.0,1506.0
2892.0,2819.0,2897.0,3151.0,3039.0,0.892761,0.003662,-0.409607,-0.187561,90.0,-323.0,73.0,2912.0,1065.0,4125.0,-3068.0,-247.0,-1317.0,-939.0,613.0,-3154.0,0.729989,0.160191,0.664411,12086.0,3588.0,3912.0,2080.0,-7376.0,1680.0
2898.0,2821.0,2897.0,3141.0,3027.0,0.861328,-0.003967,-0.481506,-0.161926,59.0,-291.0,90.0,5694.0,997.0,2996.0,-1111.0,-224.0,-1396.0,555.0,-133.0,-1704.0,0.830755,0.149103,0.536242,19590.0,540.0,2120.0,1361.0,-6656.0,2063.0
2896.0,2823.0,2899.0,3151.0,3043.0,0.846069,-0.009766,-0.512146,-0.147705,54.0,-260.0,98.0,6879.0,648.0,2368.0,-244.0,-456.0,-1525.0,1093.0,-633.0,-998.0,0.869507,0.134768,0.475261,20328.0,-900.0,862.0,1257.0,-5935.0,2258.0
2895.0,2815.0,2899.0,3131.0,3043.0,0.81897,-0.019531,-0.561401,-0.117004,64.0,-198.0,101.0,7940.0,67.0,1043.0,369.0,-747.0,-1978.0,1776.0,-1111.0,-462.0,0.924112,0.099382,0.368848,16800.0,-1050.0,-1956.0,1479.0,-4516.0,2327.0
2893.0,2815.0,2891.0,3142.0,3027.0,0.794556,-0.024719,-0.600464,-0.086487,69.0,-171.0,92.0,7435.0,47.0,-278.0,-416.0,-482.0,-2552.0,2233.0,-794.0,-1138.0,0.95848,0.064583,0.277631,13180.0,722.0,-4298.0,1588.0,-3910.0,2117.0
2896.0,2821.0,2895.0,3143.0,3039.0,0.782104,-0.0271,-0.618347,-0.072632,58.0,-166.0,89.0,7608.0,361.0,-695.0,-347.0,-27.0,-2610.0,2432.0,-343.0,-948.0,0.971161,0.047434,0.233875,17440.0,2964.0,-3120.0,1338.0,-3781.0,2046.0
2897.0,2815.0,2896.0,3151.0,3037.0,0.761902,-0.03418,-0.644714,-0.051514,21.0,-94.0,76.0,9443.0,959.0,-1027.0,1366.0,841.0,-2389.0,2664.0,504.0,961.0,0.98594,0.01434,0.166323,24462.0,2944.0,-3932.0,482.0,-2133.0,1741.0
2896.0,2835.0,2903.0,3151.0,3039.0,0.755127,-0.043457,-0.652954,-0.039368,-5.0,5.0,54.0,10770.0,683.0,-1650.0,2663.0,799.0,-2825.0,3253.0,455.0,2218.0,0.989548,-0.014221,0.143529,24748.0,-348.0,-5074.0,-93.0,132.0,1246.0
2891.0,2815.0,2893.0,3143.0,3039.0,0.757324,-0.047791,-0.650269,-0.036011,-10.0,55.0,41.0,11122.0,372.0,-1979.0,3025.0,581.0,-3205.0,3672.0,217.0,2495.0,0.98837,-0.025553,0.149704,24154.0,-1040.0,-5910.0,-222.0,1263.0,945.0
2897.0,2829.0,2895.0,3143.0,3043.0,0.772034,-0.053101,-0.632263,-0.036865,-24.0,144.0,0.0,11010.0,26.0,-2453.0,2980.0,315.0,-4048.0,4564.0,-177.0,2121.0,0.980172,-0.035374,0.194819,20354.0,-1192.0,-6196.0,-543.0,3318.0,11.0
2896.0,2823.0,2901.0,3159.0,3053.0,0.783325,-0.054016,-0.617859,-0.041748,-31.0,179.0,-25.0,10803.0,-315.0,-2548.0,2836.0,-44.0,-4437.0,4929.0,-644.0,1735.0,0.972479,-0.033036,0.230674,20548.0,-3028.0,-5466.0,-706.0,4116.0,-563.0
2899.0,2819.0,2891.0,3150.0,3031.0,0.812073,-0.051392,-0.578369,-0.058472,-32.0,248.0,-69.0,10456.0,-1172.0,-2464.0,2711.0,-1042.0,-5132.0,5507.0,-1901.0,907.0,0.945366,-0.015831,0.325729,20352.0,-4548.0,-4202.0,-717.0,5686.0,-1559.0
2901.0,2813.0,2896.0,3153.0,3039.0,0.847229,-0.04187,-0.522644,-0.085083,-40.0,335.0,-119.0,10866.0,-1238.0,-2070.0,3552.0,-1385.0,-5757.0,6356.0,-2637.0,554.0,0.892723,0.017989,0.450126,22694.0,-1916.0,-3594.0,-915.0,7675.0,-2714.0
2897.0,2823.0,2907.0,3143.0,3039.0,0.866638,-0.034424,-0.486572,-0.104675,-52.0,384.0,-158.0,10810.0,-1343.0,-2134.0,3842.0,-1688.0,-6427.0,6949.0,-3253.0,-171.0,0.850571,0.042198,0.524081,20906.0,-3702.0,-4980.0,-1181.0,8808.0,-3611.0
2899.0,2815.0,2898.0,3139.0,3045.0,0.904663,-0.015137,-0.395691,-0.157288,-74.0,481.0,-231.0,9968.0,-2066.0,-2454.0,4064.0,-2861.0,-8076.0,7485.0,-5052.0,-2891.0,0.720696,0.097087,0.686354,15460.0,-5846.0,-6370.0,-1681.0,11020.0,-5283.0
2893.0,2829.0,2903.0,3139.0,3039.0,0.934326,-0.001282,-0.284485,-0.214539,-135.0,480.0,-187.0,6701.0,-1754.0,-2183.0,2341.0,-2734.0,-9048.0,5453.0,-4545.0,-6664.0,0.532153,0.119671,0.838059,-42.0,-556.0,-1038.0,-3071.0,10996.0,-4266.0
2896.0,2827.0,2898.0,3157.0,3037.0,0.944519,-0.004883,-0.231506,-0.232788,-175.0,392.0,-86.0,3727.0,-1084.0,-1200.0,125.0,-1891.0,-8512.0,2965.0,-2736.0,-7729.0,0.439598,0.09856,0.892687,-11848.0,1896.0,4506.0,-3990.0,8989.0,-1953.0
2891.0,2833.0,2911.0,3155.0,3039.0,0.957703,-0.031555,-0.157776,-0.238525,-139.0,149.0,40.0,-2457.0,-2686.0,2418.0,-5055.0,-2807.0,-5349.0,-4002.0,-948.0,-6717.0,0.317258,0.014826,0.9482,-19710.0,-16970.0,16980.0,-3163.0,3413.0,936.0
2896.0,2815.0,2895.0,3151.0,3039.0,0.96228,-0.032593,-0.127075,-0.238403,51.0,42.0,-17.0,-5279.0,-3129.0,7132.0,-7409.0,-3111.0,-778.0,-7602.0,491.0,-2671.0,0.260104,-0.002136,0.965609,-17256.0,2762.0,28556.0,1174.0,964.0,-377.0
2891.0,2819.0,2894.0,3135.0,3034.0,0.962646,-0.023499,-0.123474,-0.239746,47.0,-17.0,-14.0,-6300.0,-881.0,9143.0,-8339.0,-995.0,1210.0,-7864.0,3047.0,-918.0,0.248991,0.013963,0.968368,-18348.0,12224.0,29578.0,1084.0,-383.0,-315.0
2893.0,2819.0,2895.0,3141.0,3047.0,0.960449,-0.019958,-0.134583,-0.242798,-16.0,-122.0,-13.0,-6903.0,1521.0,11575.0,-9100.0,1299.0,3686.0,-8001.0,5722.0,1143.0,0.268211,0.027014,0.962903,-12826.0,4840.0,28366.0,-361.0,-2790.0,-276.0
2883.0,2829.0,2903.0,3139.0,3054.0,0.955811,-0.02832,-0.163269,-0.242737,17.0,-175.0,9.0,-5335.0,49.0,12328.0,-8004.0,-156.0,4586.0,-8075.0,4114.0,1721.0,0.325857,0.025125,0.945036,-3732.0,-6398.0,25694.0,401.0,-4004.0,209.0
2896.0,2831.0,2905.0,3153.0,3039.0,0.953247,-0.02887,-0.182983,-0.238647,65.0,-183.0,21.0,-4032.0,-785.0,12294.0,-7002.0,-1049.0,4664.0,-7786.0,2848.0,1770.0,0.362636,0.032297,0.931316,-112.0,-5796.0,23750.0,1506.0,-4177.0,500.0
2898.0,2819.0,2901.0,3143.0,3027.0,0.947021,-0.01532,-0.229126,-0.224487,134.0,-196.0,35.0,-1867.0,-402.0,11341.0,-5478.0,-1007.0,4013.0,-6499.0,1914.0,1100.0,0.440853,0.073855,0.894511,1068.0,3080.0,18530.0,3072.0,-4481.0,820.0
2896.0,2832.0,2875.0,3152.0,3031.0,0.935486,0.003357,-0.286743,-0.206238,130.0,-265.0,49.0,-1258.0,1138.0,9254.0,-5641.0,117.0,2410.0,-5484.0,2564.0,-990.0,0.535104,0.124555,0.835435,-1922.0,5788.0,10536.0,2988.0,-6063.0,1137.0
2894.0,2815.0,2891.0,3134.0,3035.0,0.925781,0.008789,-0.32312,-0.196045,115.0,-319.0,60.0,-875.0,1700.0,7880.0,-5747.0,528.0,1399.0,-4758.0,2760.0,-2236.0,0.594831,0.142966,0.791021,1534.0,6300.0,7648.0,2636.0,-7287.0,1383.0
2897.0,2826.0,2899.0,3135.0,3027.0,0.897522,0.008118,-0.405945,-0.171936,78.0,-352.0,87.0,2176.0,1927.0,5809.0,-3770.0,664.0,318.0,-2336.0,1852.0,-2421.0,0.725897,0.154165,0.670251,15832.0,3124.0,5856.0,1795.0,-8056.0,1995.0
2903.0,2817.0,2896.0,3139.0,3039.0,0.86554,-0.000671,-0.479919,-0.143127,69.0,-287.0,101.0,5714.0,908.0,3879.0,-1093.0,-207.0,-539.0,-148.0,-3.0,-1227.0,0.830971,0.136217,0.539321,20242.0,-2328.0,1640.0,1595.0,-6568.0,2325.0
2901.0,2827.0,2893.0,3150.0,3039.0,0.850586,-0.0047,-0.510254,-0.126587,76.0,-252.0,107.0,6698.0,321.0,2785.0,-422.0,-671.0,-1140.0,651.0,-716.0,-994.0,0.869219,0.121188,0.47914,18182.0,-2598.0,-1120.0,1753.0,-5770.0,2458.0
2899.0,2821.0,2897.0,3151.0,3045.0,0.821899,-0.010498,-0.561951,-0.092651,76.0,-214.0,106.0,7426.0,-5.0,1040.0,-157.0,-716.0,-1976.0,1648.0,-921.0,-935.0,0.925679,0.086874,0.368204,16478.0,194.0,-2330.0,1745.0,-4901.0,2442.0
2902.0,2822.0,2895.0,3153.0,3039.0,0.794861,-0.016785,-0.603394,-0.06189,53.0,-174.0,104.0,8133.0,216.0,-40.0,257.0,-177.0,-2262.0,2211.0,-424.0,-375.0,0.961305,0.048005,0.271269,18590.0,1280.0,-2734.0,1230.0,-3967.0,2397.0
2896.0,2827.0,2895.0,3139.0,3047.0,0.78302,-0.021667,-0.61969,-0.048462,36.0,-148.0,104.0,8432.0,350.0,-449.0,464.0,135.0,-2341.0,2386.0,-108.0,-85.0,0.972559,0.026131,0.230984,18348.0,1490.0,-3346.0,828.0,-3368.0,2390.0
2896.0,2822.0,2899.0,3141.0,3031.0,0.764343,-0.035095,-0.643311,-0.027344,0.0,-91.0,91.0,8945.0,345.0,-1194.0,873.0,496.0,-2585.0,2729.0,267.0,411.0,0.985339,-0.018469,0.169888,20064.0,-162.0,-4500.0,7.0,-2083.0,2093.0
2902.0,2823.0,2897.0,3151.0,3046.0,0.758301,-0.04248,-0.650208,-0.020081,-10.0,-54.0,76.0,9305.0,-14.0,-1577.0,1212.0,299.0,-2812.0,2979.0,73.0,761.0,0.987812,-0.038313,0.150849,20762.0,-2608.0,-5528.0,-213.0,-1231.0,1758.0
2903.0,2830.0,2899.0,3153.0,3039.0,0.754822,-0.054138,-0.653625,-0.010193,-6.0,23.0,41.0,9520.0,-1047.0,-2406.0,1427.0,-486.0,-3550.0,3664.0,-741.0,946.0,0.987845,-0.068405,0.139703,18456.0,-4588.0,-6944.0,-124.0,540.0,956.0
2901.0,2821.0,2900.0,3135.0,3035.0,0.75708,-0.057251,-0.650757,-0.007935,-5.0,54.0,20.0,9313.0,-1227.0,-2631.0,1233.0,-601.0,-3830.0,3906.0,-891.0,700.0,0.986259,-0.07636,0.146471,17280.0,-3094.0,-6308.0,-103.0,1238.0,474.0
2903.0,2830.0,2896.0,3139.0,3024.0,0.768066,-0.058838,-0.637573,-0.012024,-18.0,107.0,-24.0,9087.0,-1336.0,-2693.0,1052.0,-721.0,-4168.0,4205.0,-1096.0,335.0,0.980812,-0.075051,0.180109,18580.0,-3348.0,-5158.0,-410.0,2451.0,-534.0
2899.0,2818.0,2896.0,3135.0,3039.0,0.787903,-0.057678,-0.612549,-0.025879,-33.0,185.0,-55.0,10583.0,-1436.0,-2293.0,2651.0,-951.0,-4282.0,4672.0,-1389.0,1582.0,0.968243,-0.059185,0.242918,28026.0,-2622.0,-2956.0,-742.0,4244.0,-1252.0
2903.0,2815.0,2896.0,3149.0,3053.0,0.823059,-0.052551,-0.563049,-0.052734,-58.0,343.0,-108.0,13153.0,-993.0,-1872.0,5514.0,-770.0,-4824.0,6319.0,-1617.0,3423.0,0.932388,-0.027121,0.360421,32767.0,-284.0,-3196.0,-1308.0,7879.0,-2463.0
2902.0,2830.0,2893.0,3153.0,3031.0,0.847473,-0.047485,-0.523499,-0.073975,-75.0,448.0,-149.0,14010.0,-848.0,-2215.0,6683.0,-823.0,-5879.0,7977.0,-2244.0,3349.0,0.894327,-0.003034,0.447377,32767.0,-1248.0,-7624.0,-1716.0,10281.0,-3412.0
2898.0,2827.0,2897.0,3154.0,3031.0,0.900513,-0.033936,-0.413208,-0.130981,-102.0,610.0,-222.0,12018.0,-2265.0,-4738.0,5848.0,-2651.0,-10113.0,10386.0,-5482.0,-2356.0,0.753088,0.047126,0.656187,10122.0,-10926.0,-18580.0,-2327.0,13976.0,-5080.0
2895.0,2821.0,2899.0,3153.0,3053.0,0.940125,-0.025574,-0.284668,-0.18573,-123.0,496.0,-150.0,3758.0,-3429.0,-5469.0,-704.0,-3901.0,-12322.0,4517.0,-5286.0,-10917.0,0.544746,0.057658,0.83664,-20658.0,-6840.0,-6054.0,-2813.0,11382.0,-3428.0
2896.0,2831.0,2896.0,3139.0,3045.0,0.950439,-0.029053,-0.234741,-0.201782,-129.0,329.0,-77.0,-477.0,-3128.0,-3147.0,-4228.0,-3451.0,-10422.0,-260.0,-3162.0,-11328.0,0.457939,0.039507,0.888104,-25222.0,-4108.0,10356.0,-2938.0,7545.0,-1745.0
2897.0,2831.0,2897.0,3135.0,3039.0,0.95813,-0.03949,-0.181885,-0.217468,-48.0,65.0,-40.0,-5246.0,-3311.0,3702.0,-8241.0,-3339.0,-3921.0,-7055.0,-303.0,-6674.0,0.365714,0.003436,0.930664,-17554.0,-6710.0,28628.0,-1085.0,1493.0,-902.0
2883.0,2831.0,2896.0,3139.0,3039.0,0.958008,-0.036011,-0.170105,-0.227844,14.0,-17.0,-41.0,-5206.0,-1755.0,8982.0,-8010.0,-1824.0,1285.0,-7930.0,1957.0,-1550.0,0.342333,0.008518,0.93946,-7890.0,3090.0,30332.0,326.0,-369.0,-932.0
2898.0,2822.0,2899.0,3139.0,3027.0,0.957153,-0.033081,-0.170471,-0.23175,11.0,-37.0,-32.0,-4793.0,-818.0,10447.0,-7591.0,-946.0,2749.0,-7619.0,2831.0,-25.0,0.341667,0.015686,0.939696,-7246.0,3402.0,28630.0,260.0,-843.0,-722.0
2889.0,2830.0,2910.0,3143.0,3031.0,0.954224,-0.030151,-0.180542,-0.236389,21.0,-91.0,-18.0,-4032.0,-159.0,11667.0,-6971.0,-386.0,4024.0,-7244.0,3301.0,1242.0,0.35881,0.027814,0.932918,-5134.0,176.0,25308.0,492.0,-2077.0,-399.0
2896.0,2809.0,2891.0,3151.0,3029.0,0.949341,-0.026245,-0.207458,-0.234619,61.0,-155.0,3.0,-2874.0,-285.0,11550.0,-6201.0,-674.0,4074.0,-6846.0,2695.0,1166.0,0.406213,0.047516,0.912566,-2380.0,-1052.0,21210.0,1402.0,-3547.0,91.0
2898.0,2823.0,2887.0,3143.0,3035.0,0.945496,-0.022278,-0.228516,-0.230835,87.0,-195.0,12.0,-2329.0,-324.0,11035.0,-5953.0,-843.0,3707.0,-6636.0,2332.0,628.0,0.442406,0.063372,0.894531,-1458.0,-782.0,18482.0,1994.0,-4444.0,285.0
2898.0,2829.0,2895.0,3141.0,3035.0,0.932678,-0.009521,-0.286865,-0.218445,133.0,-268.0,21.0,-974.0,-21.0,9320.0,-5391.0,-902.0,2477.0,-5676.0,1705.0,-935.0,0.539266,0.107567,0.835225,2842.0,1340.0,13004.0,3061.0,-6127.0,487.0
2899.0,2815.0,2899.0,3143.0,3045.0,0.911743,0.006226,-0.358398,-0.200623,135.0,-290.0,39.0,1603.0,1383.0,7769.0,-3730.0,111.0,1682.0,-3534.0,1706.0,-1161.0,0.651037,0.155158,0.743037,12162.0,8170.0,11580.0,3107.0,-6640.0,900.0
2903.0,2833.0,2887.0,3139.0,3037.0,0.899414,0.011047,-0.393188,-0.190491,108.0,-283.0,54.0,2770.0,2112.0,6776.0,-2989.0,722.0,1119.0,-2402.0,1864.0,-1206.0,0.70307,0.16967,0.690513,12076.0,8160.0,7478.0,2479.0,-6471.0,1240.0
2899.0,2833.0,2901.0,3151.0,3043.0,0.872009,0.009705,-0.459595,-0.16803,62.0,-284.0,83.0,4266.0,2313.0,4624.0,-2273.0,909.0,-105.0,-841.0,1529.0,-1719.0,0.79828,0.171376,0.577313,12260.0,3394.0,2496.0,1433.0,-6500.0,1912.0
2899.0,2823.0,2897.0,3143.0,3051.0,0.839905,-0.003052,-0.524109,-0.14093,46.0,-288.0,108.0,5335.0,1301.0,2549.0,-1884.0,132.0,-1142.0,261.0,392.0,-2156.0,0.881263,0.142599,0.450602,13478.0,-1142.0,-694.0,1076.0,-6584.0,2474.0
2896.0,2831.0,2911.0,3135.0,3027.0,0.822266,-0.010742,-0.554993,-0.125488,51.0,-283.0,112.0,5844.0,638.0,1678.0,-1654.0,-358.0,-1465.0,672.0,-254.0,-2119.0,0.915399,0.121624,0.383736,15036.0,-2662.0,-1602.0,1179.0,-6478.0,2569.0
2897.0,2826.0,2879.0,3127.0,3039.0,0.787109,-0.021973,-0.609314,-0.093445,69.0,-230.0,96.0,7857.0,-50.0,580.0,-34.0,-699.0,-1521.0,1322.0,-907.0,-478.0,0.9633,0.079285,0.256527,22544.0,-1002.0,-1274.0,1589.0,-5262.0,2219.0
2891.0,2815.0,2903.0,3153.0,3063.0,0.772461,-0.024292,-0.629761,-0.078613,72.0,-185.0,84.0,8781.0,-19.0,133.0,779.0,-522.0,-1551.0,1575.0,-797.0,409.0,0.97675,0.061486,0.205687,22486.0,520.0,-2540.0,1658.0,-4219.0,1945.0
2895.0,2826.0,2887.0,3151.0,3039.0,0.750244,-0.026855,-0.658325,-0.054749,47.0,-115.0,67.0,9293.0,517.0,-735.0,1176.0,256.0,-1814.0,1966.0,-4.0,934.0,0.99075,0.031788,0.13175,18364.0,2810.0,-4028.0,1082.0,-2621.0,1544.0
2891.0,2815.0,2875.0,3137.0,2998.0,0.734558,-0.03302,-0.676514,-0.040161,8.0,-76.0,55.0,8668.0,614.0,-1477.0,504.0,566.0,-2152.0,2232.0,334.0,328.0,0.996529,0.005829,0.082427,14784.0,398.0,-4896.0,196.0,-1740.0,1271.0
2896.0,2811.0,2896.0,3147.0,3026.0,0.728271,-0.03772,-0.68335,-0.035156,-3.0,-65.0,50.0,8186.0,334.0,-1822.0,10.0,390.0,-2339.0,2362.0,147.0,-140.0,0.99798,-0.006892,0.063226,13524.0,-1336.0,-5662.0,-58.0,-1474.0,1161.0
2896.0,2831.0,2895.0,3135.0,3025.0,0.717957,-0.047485,-0.693909,-0.027222,-7.0,-41.0,39.0,7822.0,-460.0,-2286.0,-361.0,-210.0,-2551.0,2500.0,-488.0,-436.0,0.998978,-0.030406,0.032439,15852.0,-3236.0,-5824.0,-147.0,-919.0,900.0
2902.0,2807.0,2893.0,3133.0,3035.0,0.714905,-0.05127,-0.69696,-0.024048,-4.0,-20.0,30.0,8068.0,-739.0,-2431.0,-115.0,-413.0,-2621.0,2558.0,-694.0,-159.0,0.998987,-0.039785,0.023285,18028.0,-2822.0,-5588.0,-84.0,-449.0,710.0
2898.0,2815.0,2893.0,3181.0,3019.0,0.715881,-0.055542,-0.695679,-0.020996,-5.0,41.0,10.0,9067.0,-854.0,-2558.0,888.0,-441.0,-2769.0,2731.0,-697.0,837.0,0.998379,-0.05031,0.025873,21538.0,-1258.0,-5216.0,-103.0,950.0,233.0
2903.0,2819.0,2891.0,3141.0,3015.0,0.728821,-0.056641,-0.681885,-0.025574,-21.0,119.0,-15.0,10238.0,-603.0,-2472.0,2071.0,-212.0,-2993.0,3084.0,-479.0,1884.0,0.996841,-0.047685,0.063659,24022.0,-460.0,-4566.0,-478.0,2731.0,-340.0
2897.0,2829.0,2909.0,3142.0,3031.0,0.740051,-0.056641,-0.669495,-0.03125,-32.0,162.0,-29.0,10852.0,-482.0,-2364.0,2705.0,-138.0,-3160.0,3378.0,-453.0,2388.0,0.994461,-0.041991,0.097221,25330.0,-200.0,-4054.0,-712.0,3733.0,-642.0
2895.0,2847.0,2875.0,3142.0,3013.0,0.771973,-0.054871,-0.631287,-0.049927,-50.0,258.0,-60.0,11715.0,-430.0,-2251.0,3685.0,-252.0,-3864.0,4437.0,-848.0,2856.0,0.980151,-0.021681,0.196901,25108.0,-1002.0,-4308.0,-1132.0,5924.0,-1370.0
2910.0,2809.0,2881.0,3151.0,3043.0,0.81366,-0.050781,-0.573914,-0.077209,-65.0,347.0,-86.0,11531.0,-669.0,-2067.0,3815.0,-718.0,-4819.0,5587.0,-1787.0,1969.0,0.941782,0.005986,0.336048,20348.0,-2658.0,-3900.0,-1476.0,7957.0,-1949.0
2909.0,2815.0,2879.0,3151.0,3039.0,0.83606,-0.049072,-0.538635,-0.091919,-71.0,373.0,-82.0,10655.0,-843.0,-2026.0,3202.0,-981.0,-5424.0,5923.0,-2264.0,645.0,0.909684,0.016967,0.414909,15252.0,-2434.0,-3638.0,-1619.0,8545.0,-1867.0
2879.0,2823.0,2896.0,3135.0,3023.0,0.877747,-0.049438,-0.461609,-0.118469,-84.0,363.0,-47.0,7231.0,-934.0,-1154.0,496.0,-1119.0,-5814.0,4630.0,-2303.0,-2925.0,0.822065,0.022584,0.568947,932.0,-1778.0,1266.0,-1908.0,8317.0,-1072.0
2887.0,2822.0,2931.0,3143.0,3031.0,0.907837,-0.057434,-0.392517,-0.13562,-90.0,246.0,-13.0,2908.0,-529.0,1333.0,-3057.0,-546.0,-4280.0,822.0,-809.0,-5160.0,0.728261,0.002185,0.685192,-4294.0,140.0,12474.0,-2039.0,5652.0,-296.0
2897.0,2815.0,2887.0,3135.0,3031.0,0.917725,-0.061523,-0.365051,-0.143982,-80.0,203.0,-32.0,2086.0,-620.0,3226.0,-3548.0,-556.0,-2720.0,-852.0,-343.0,-4410.0,0.68775,-0.007802,0.725902,792.0,-2392.0,17968.0,-1817.0,4656.0,-731.0
2882.0,2811.0,2903.0,3139.0,3055.0,0.932129,-0.063049,-0.316895,-0.163391,-40.0,182.0,-62.0,2125.0,-1317.0,6165.0,-2883.0,-1202.0,-316.0,-2383.0,-435.0,-1995.0,0.611377,-0.013985,0.791164,5184.0,-4306.0,19462.0,-905.0,4169.0,-1402.0
2895.0,2827.0,2891.0,3139.0,3035.0,0.943298,-0.058594,-0.273132,-0.179138,-23.0,160.0,-36.0,1722.0,-1134.0,8020.0,-2671.0,-1030.0,1107.0,-3029.0,91.0,-485.0,0.536283,-0.012686,0.843868,206.0,-972.0,20108.0,-518.0,3670.0,-824.0
2899.0,2831.0,2895.0,3125.0,3035.0,0.947754,-0.05719,-0.255066,-0.182922,-21.0,120.0,-13.0,965.0,-931.0,8482.0,-3167.0,-807.0,1409.0,-3498.0,542.0,-368.0,0.504402,-0.015089,0.863369,-2748.0,-720.0,19664.0,-467.0,2765.0,-293.0
2896.0,2827.0,2907.0,3143.0,3027.0,0.952881,-0.055542,-0.234314,-0.184448,0.0,26.0,3.0,-363.0,-677.0,9593.0,-4188.0,-517.0,2351.0,-4639.0,1336.0,132.0,0.467036,-0.019412,0.884015,-4536.0,-654.0,22302.0,12.0,604.0,71.0
2889.0,2832.0,2903.0,3151.0,3035.0,0.953491,-0.053772,-0.232544,-0.184021,15.0,-23.0,0.0,-848.0,-462.0,9978.0,-4642.0,-323.0,2719.0,-5098.0,1725.0,264.0,0.463248,-0.016956,0.886041,-4354.0,770.0,21760.0,358.0,-517.0,0.0
2893.0,2822.0,2863.0,3163.0,3039.0,0.950317,-0.049622,-0.246338,-0.183777,22.0,-105.0,-11.0,-596.0,426.0,10198.0,-4580.0,456.0,3040.0,-4912.0,2472.0,426.0,0.486437,-0.00377,0.873732,1762.0,3688.0,20128.0,518.0,-2385.0,-251.0
2887.0,2834.0,2896.0,3127.0,3063.0,0.946838,-0.048523,-0.25885,-0.18457,16.0,-120.0,-16.0,217.0,769.0,10059.0,-3945.0,738.0,3003.0,-4289.0,2526.0,584.0,0.50809,0.003665,0.861211,5784.0,3240.0,19080.0,378.0,-2732.0,-362.0
2891.0,2823.0,2903.0,3135.0,3055.0,0.938843,-0.049255,-0.285828,-0.185608,13.0,-123.0,-9.0,1652.0,486.0,9050.0,-2894.0,374.0,2236.0,-3240.0,1717.0,258.0,0.554979,0.013618,0.831752,6618.0,-1288.0,14958.0,301.0,-2800.0,-184.0
2896.0,2820.0,2927.0,3151.0,3059.0,0.929443,-0.050171,-0.318298,-0.179688,46.0,-167.0,15.0,1696.0,-594.0,7504.0,-3298.0,-767.0,1013.0,-3278.0,493.0,-1224.0,0.609711,0.021126,0.792322,2386.0,-4058.0,10308.0,1075.0,-3803.0,345.0
2885.0,2837.0,2911.0,3125.0,3035.0,0.922913,-0.048279,-0.340393,-0.17334,73.0,-204.0,21.0,1371.0,-868.0,6702.0,-3913.0,-1104.0,446.0,-3433.0,183.0,-2215.0,0.645043,0.028893,0.763616,406.0,-2872.0,8432.0,1686.0,-4666.0,486.0
2891.0,2832.0,2890.0,3127.0,3053.0,0.901611,-0.040588,-0.401672,-0.155273,105.0,-314.0,32.0,373.0,-612.0,4627.0,-5663.0,-1034.0,-894.0,-3249.0,243.0,-4828.0,0.736909,0.051548,0.674025,-1448.0,442.0,2200.0,2415.0,-7173.0,752.0
2897.0,2847.0,2903.0,3131.0,3025.0,0.865295,-0.032288,-0.481995,-0.133972,110.0,-355.0,25.0,2495.0,83.0,3366.0,-4409.0,-517.0,-1002.0,-1511.0,202.0,-4288.0,0.842787,0.073271,0.533323,15262.0,1570.0,4562.0,2520.0,-8110.0,588.0
2899.0,2838.0,2925.0,3135.0,3063.0,0.845337,-0.027588,-0.519104,-0.12323,110.0,-322.0,27.0,4174.0,168.0,2770.0,-3071.0,-497.0,-994.0,-574.0,-102.0,-3213.0,0.884435,0.081296,0.45955,18296.0,504.0,1662.0,2539.0,-7374.0,620.0
2886.0,2814.0,2855.0,3127.0,3039.0,0.806885,-0.019226,-0.582153,-0.098206,106.0,-263.0,48.0,6488.0,272.0,1050.0,-1239.0,-410.0,-1583.0,1031.0,-463.0,-1711.0,0.943237,0.083315,0.321435,17520.0,1362.0,-2858.0,2438.0,-6008.0,1107.0
2887.0,2837.0,2922.0,3151.0,3039.0,0.788452,-0.016174,-0.608948,-0.085022,97.0,-246.0,55.0,6689.0,486.0,189.0,-1199.0,-153.0,-1922.0,1524.0,-261.0,-1662.0,0.963003,0.078043,0.257807,13616.0,2360.0,-4824.0,2235.0,-5630.0,1278.0
2885.0,2794.0,2906.0,3139.0,3047.0,0.749207,-0.015259,-0.659424,-0.060181,66.0,-251.0,69.0,6167.0,702.0,-1444.0,-1942.0,239.0,-2507.0,2259.0,116.0,-2234.0,0.989926,0.056505,0.12986,11016.0,1390.0,-7680.0,1517.0,-5733.0,1597.0
2887.0,2838.0,2915.0,3127.0,3055.0,0.706421,-0.0224,-0.706421,-0.037781,37.0,-234.0,75.0,7206.0,463.0,-2494.0,-983.0,284.0,-2501.0,2516.0,91.0,-978.0,0.999754,0.021731,0.000926,20396.0,-70.0,-7372.0,849.0,-5345.0,1722.0
2889.0,2827.0,2885.0,3159.0,3062.0,0.687805,-0.026978,-0.724854,-0.028198,29.0,-191.0,69.0,8549.0,165.0,-2925.0,368.0,134.0,-2496.0,2476.0,-60.0,498.0,0.998637,0.003769,-0.052269,25374.0,-1792.0,-8406.0,668.0,-4354.0,1603.0
2891.0,2827.0,2893.0,3143.0,3039.0,0.664612,-0.035889,-0.746277,-0.011597,19.0,-75.0,60.0,10401.0,-412.0,-4091.0,2267.0,-163.0,-3137.0,2839.0,-280.0,2620.0,0.992801,-0.030395,-0.116374,24200.0,-1784.0,-11544.0,457.0,-1707.0,1375.0
2871.0,2807.0,2903.0,3152.0,3015.0,0.659119,-0.043884,-0.750793,-0.002808,-5.0,20.0,37.0,10787.0,-510.0,-4920.0,2677.0,-70.0,-3845.0,3458.0,-141.0,3158.0,0.98997,-0.053634,-0.131171,22008.0,-1436.0,-11720.0,-113.0,470.0,851.0
2909.0,2839.0,2897.0,3135.0,3058.0,0.662292,-0.047546,-0.747742,-0.002197,-18.0,64.0,21.0,10784.0,-661.0,-5236.0,2668.0,-171.0,-4230.0,3860.0,-268.0,3172.0,0.990656,-0.059693,-0.122742,21482.0,-2366.0,-12226.0,-394.0,1470.0,503.0
2895.0,2827.0,2911.0,3151.0,3023.0,0.67981,-0.052795,-0.731445,-0.008484,-36.0,149.0,-15.0,10912.0,-1016.0,-5449.0,2757.0,-529.0,-4829.0,4557.0,-751.0,3140.0,0.995383,-0.059371,-0.075587,22822.0,-3272.0,-11074.0,-812.0,3421.0,-341.0
2896.0,2815.0,2891.0,3151.0,3055.0,0.712463,-0.05249,-0.69928,-0.025513,-48.0,250.0,-65.0,11947.0,-1413.0,-5365.0,3762.0,-1092.0,-5500.0,5423.0,-1552.0,3710.0,0.999101,-0.039114,0.016508,28562.0,-3728.0,-10158.0,-1085.0,5745.0,-1484.0
2891.0,2803.0,2891.0,3151.0,3019.0,0.763306,-0.042603,-0.642151,-0.056274,-57.0,407.0,-134.0,13908.0,-1881.0,-5171.0,5837.0,-1940.0,-6576.0,7128.0,-3005.0,4607.0,0.98511,0.007236,0.17163,32767.0,-5502.0,-10702.0,-1291.0,9333.0,-3053.0
2896.0,2787.0,2882.0,3153.0,3059.0,0.795166,-0.033997,-0.600586,-0.076843,-63.0,494.0,-165.0,14393.0,-2180.0,-5415.0,6525.0,-2493.0,-7678.0,8628.0,-4112.0,4049.0,0.960356,0.038236,0.276335,30504.0,-6086.0,-12796.0,-1430.0,11325.0,-3763.0
2885.0,2837.0,2896.0,3120.0,3039.0,0.861755,-0.01239,-0.491211,-0.126282,-81.0,613.0,-204.0,11716.0,-2953.0,-7054.0,4754.0,-3794.0,-11290.0,10959.0,-6290.0,-2188.0,0.849737,0.102707,0.517128,8872.0,-8460.0,-20042.0,-1842.0,14057.0,-4659.0
2899.0,2837.0,2899.0,3139.0,3053.0,0.913696,0.001587,-0.368652,-0.170898,-118.0,520.0,-123.0,4921.0,-2194.0,-6823.0,-593.0,-3249.0,-12787.0,7213.0,-4447.0,-10128.0,0.67313,0.128904,0.72814,-12852.0,1312.0,-7888.0,-2699.0,11916.0,-2805.0
2897.0,2829.0,2923.0,3151.0,3031.0,0.930725,-0.000244,-0.315369,-0.185181,-142.0,401.0,-57.0,1139.0,-1382.0,-5249.0,-3670.0,-2335.0,-11811.0,3438.0,-2295.0,-11888.0,0.587133,0.116346,0.801084,-19922.0,1030.0,138.0,-3241.0,9203.0,-1302.0
2891.0,2811.0,2897.0,3151.0,3055.0,0.949524,-0.011658,-0.241455,-0.199768,-69.0,190.0,-28.0,-3493.0,-2382.0,126.0,-7287.0,-2990.0,-7108.0,-3780.0,-869.0,-9874.0,0.463192,0.074331,0.883067,-15444.0,-8996.0,18822.0,-1568.0,4370.0,-623.0
2885.0,2819.0,2914.0,3155.0,3043.0,0.956665,-0.003723,-0.203979,-0.207825,29.0,69.0,-28.0,-5258.0,-1421.0,5305.0,-8467.0,-2057.0,-2205.0,-6995.0,1271.0,-5498.0,0.391828,0.07766,0.916778,-14502.0,4506.0,24598.0,670.0,1586.0,-641.0
2887.0,2819.0,2896.0,3167.0,3015.0,0.957703,0.00238,-0.19696,-0.209839,23.0,8.0,-15.0,-5657.0,-46.0,7348.0,-8739.0,-760.0,-208.0,-7517.0,2811.0,-3546.0,0.37626,0.087219,0.922428,-13162.0,7990.0,26276.0,544.0,187.0,-330.0
2899.0,2819.0,2875.0,3143.0,3030.0,0.956421,0.007385,-0.198669,-0.213684,7.0,-64.0,-16.0,-5155.0,1256.0,10231.0,-8242.0,444.0,2687.0,-7687.0,3986.0,-587.0,0.376867,0.099032,0.920878,-7196.0,3612.0,27174.0,171.0,-1455.0,-347.0
2891.0,2841.0,2915.0,3151.0,3035.0,0.953125,0.009888,-0.211548,-0.216125,34.0,-88.0,-7.0,-3595.0,911.0,11794.0,-6863.0,7.0,4336.0,-7371.0,3177.0,1209.0,0.398989,0.11029,0.910307,-2288.0,276.0,27000.0,779.0,-2010.0,-149.0
2891.0,2832.0,2907.0,3125.0,3057.0,0.951111,0.013428,-0.22113,-0.215027,57.0,-101.0,2.0,-2921.0,760.0,12074.0,-6319.0,-228.0,4686.0,-7206.0,2741.0,1576.0,0.414864,0.12064,0.901769,-2180.0,916.0,25174.0,1326.0,-2298.0,63.0
2901.0,2855.0,2883.0,3131.0,3035.0,0.944885,0.025879,-0.251282,-0.208313,96.0,-163.0,19.0,-2163.0,1111.0,11618.0,-5964.0,-147.0,4471.0,-6920.0,2540.0,1110.0,0.464083,0.153596,0.87239,-2774.0,3884.0,20370.0,2220.0,-3729.0,448.0
2887.0,2829.0,2891.0,3127.0,3055.0,0.939392,0.032837,-0.274231,-0.203003,106.0,-212.0,29.0,-1958.0,1378.0,10835.0,-6069.0,-39.0,3893.0,-6727.0,2581.0,246.0,0.501889,0.173033,0.847387,-2690.0,4320.0,16466.0,2433.0,-4842.0,670.0
2897.0,2817.0,2864.0,3175.0,3007.0,0.920776,0.042969,-0.338806,-0.188354,110.0,-310.0,52.0,-688.0,1769.0,8782.0,-5666.0,75.0,2501.0,-5539.0,2321.0,-1510.0,0.607743,0.206761,0.766671,5152.0,4568.0,11400.0,2527.0,-7080.0,1213.0
2895.0,2821.0,2879.0,3135.0,3039.0,0.892517,0.045105,-0.415833,-0.168701,88.0,-317.0,70.0,2967.0,2110.0,7266.0,-2989.0,301.0,1940.0,-3175.0,1410.0,-845.0,0.727057,0.220817,0.650096,17986.0,4818.0,10730.0,2027.0,-7258.0,1611.0
2898.0,2835.0,2886.0,3135.0,3046.0,0.877502,0.043762,-0.450684,-0.15802,76.0,-289.0,74.0,4595.0,2051.0,6439.0,-1771.0,255.0,1606.0,-2194.0,907.0,-372.0,0.777121,0.219237,0.58995,17978.0,3286.0,7482.0,1745.0,-6619.0,1710.0
2905.0,2835.0,2864.0,3149.0,3031.0,0.847229,0.037598,-0.512573,-0.134399,66.0,-264.0,90.0,5920.0,1112.0,4332.0,-1112.0,-538.0,467.0,-999.0,-186.0,-842.0,0.858428,0.201487,0.471715,13270.0,-1498.0,2024.0,1514.0,-6032.0,2074.0
2903.0,2827.0,2911.0,3139.0,3015.0,0.830872,0.033142,-0.542297,-0.120178,69.0,-269.0,104.0,5801.0,521.0,3166.0,-1516.0,-997.0,-189.0,-571.0,-622.0,-1616.0,0.893193,0.185418,0.409606,10224.0,-2290.0,-674.0,1593.0,-6147.0,2391.0
2893.0,2819.0,2877.0,3143.0,3035.0,0.791931,0.022522,-0.604004,-0.086731,76.0,-299.0,126.0,5447.0,-147.0,1005.0,-2357.0,-1297.0,-1201.0,408.0,-971.0,-2751.0,0.952752,0.140443,0.269349,11808.0,-1048.0,-3410.0,1758.0,-6839.0,2907.0
2895.0,2832.0,2885.0,3155.0,3051.0,0.747559,0.010803,-0.661987,-0.052856,62.0,-272.0,122.0,6889.0,349.0,35.0,-1209.0,-356.0,-975.0,800.0,-293.0,-1346.0,0.988607,0.086133,0.123294,18650.0,2872.0,-2616.0,1421.0,-6211.0,2817.0
2895.0,2823.0,2898.0,3151.0,3025.0,0.726929,0.004395,-0.685608,-0.038574,44.0,-241.0,116.0,7622.0,623.0,-517.0,-540.0,137.0,-1007.0,980.0,123.0,-590.0,0.996437,0.059283,0.059836,19488.0,2592.0,-4462.0,1029.0,-5511.0,2675.0
2885.0,2823.0,2911.0,3151.0,3043.0,0.690857,-0.011108,-0.722778,-0.015259,17.0,-180.0,104.0,8457.0,422.0,-1698.0,273.0,367.0,-1329.0,1328.0,315.0,335.0,0.999012,0.006709,-0.045016,18616.0,-816.0,-6332.0,400.0,-4123.0,2398.0
2887.0,2815.0,2911.0,3159.0,3047.0,0.662659,-0.026978,-0.748474,0.003418,9.0,-127.0,87.0,8413.0,-207.0,-2786.0,288.0,127.0,-1788.0,1743.0,84.0,498.0,0.991781,-0.04087,-0.121813,16138.0,-2424.0,-7990.0,207.0,-2898.0,2002.0
2895.0,2839.0,2909.0,3151.0,3039.0,0.651794,-0.033569,-0.757568,0.011475,11.0,-100.0,75.0,8249.0,-558.0,-3175.0,165.0,-57.0,-1945.0,1895.0,-97.0,458.0,0.986787,-0.061146,-0.150069,15524.0,-3220.0,-8746.0,273.0,-2272.0,1729.0
2879.0,2845.0,2887.0,3139.0,3055.0,0.637085,-0.042847,-0.769226,0.024475,13.0,-44.0,47.0,8139.0,-1063.0,-4047.0,127.0,-307.0,-2514.0,2435.0,-335.0,622.0,0.978027,-0.092248,-0.187068,16664.0,-3294.0,-11126.0,301.0,-996.0,1089.0
2891.0,2835.0,2919.0,3149.0,3035.0,0.633789,-0.045654,-0.771667,0.028564,9.0,-12.0,31.0,8468.0,-1233.0,-4423.0,476.0,-397.0,-2825.0,2665.0,-382.0,1055.0,0.975541,-0.101955,-0.195051,19430.0,-3498.0,-10940.0,208.0,-262.0,732.0
2899.0,2830.0,2897.0,3151.0,3039.0,0.639526,-0.048279,-0.766602,0.030701,-4.0,82.0,-2.0,10014.0,-1421.0,-4930.0,2005.0,-529.0,-3454.0,3023.0,-349.0,2639.0,0.977559,-0.108822,-0.180072,26020.0,-2470.0,-10766.0,-77.0,1883.0,-30.0
2893.0,2813.0,2897.0,3153.0,3023.0,0.667542,-0.046265,-0.74292,0.019165,-32.0,219.0,-57.0,12576.0,-1213.0,-5289.0,4465.0,-473.0,-4403.0,3887.0,-196.0,4939.0,0.990086,-0.090243,-0.108091,32767.0,-2086.0,-11694.0,-721.0,5035.0,-1302.0
2903.0,2837.0,2887.0,3141.0,3055.0,0.691467,-0.042419,-0.72113,0.006531,-45.0,309.0,-98.0,13586.0,-1210.0,-5526.0,5420.0,-652.0,-5168.0,4905.0,-523.0,5672.0,0.996722,-0.068082,-0.043659,32767.0,-2486.0,-12570.0,-1026.0,7096.0,-2231.0
2887.0,2807.0,2914.0,3159.0,3023.0,0.75946,-0.024475,-0.64917,-0.035278,-64.0,521.0,-210.0,14873.0,-1642.0,-6464.0,6781.0,-1712.0,-7741.0,8522.0,-2495.0,5475.0,0.987765,0.008628,0.156004,32767.0,-5548.0,-16500.0,-1458.0,11940.0,-4806.0
2899.0,2815.0,2890.0,3141.0,3046.0,0.843201,0.010071,-0.527954,-0.100891,-79.0,750.0,-337.0,14514.0,-3304.0,-8191.0,7236.0,-4315.0,-11814.0,12909.0,-6592.0,669.0,0.88831,0.123515,0.442329,19632.0,-14062.0,-26476.0,-1801.0,17193.0,-7708.0
2890.0,2807.0,2885.0,3165.0,3023.0,0.913208,0.045593,-0.36676,-0.171692,-125.0,726.0,-266.0,6236.0,-4153.0,-10613.0,876.0,-5866.0,-16567.0,10302.0,-6506.0,-12695.0,0.654201,0.209212,0.726835,-16808.0,-6.0,-18588.0,-2858.0,16631.0,-6079.0
2895.0,2831.0,2887.0,3151.0,3039.0,0.93573,0.04541,-0.292419,-0.191833,-217.0,555.0,-87.0,677.0,-1079.0,-8911.0,-3663.0,-2694.0,-15667.0,5184.0,-1498.0,-15394.0,0.529829,0.197175,0.82482,-32768.0,17600.0,-6220.0,-4948.0,12734.0,-1987.0
2891.0,2829.0,2875.0,3153.0,3043.0,0.957703,0.003052,-0.204102,-0.202637,-216.0,121.0,20.0,-7173.0,-2749.0,-2529.0,-10365.0,-3474.0,-10037.0,-6057.0,75.0,-13546.0,0.3897,0.088562,0.916589,-32768.0,-26512.0,22872.0,-4942.0,2788.0,478.0
2902.0,2829.0,2891.0,3127.0,3047.0,0.961365,-0.003418,-0.177307,-0.21051,79.0,-2.0,-36.0,-8499.0,-4612.0,6133.0,-11303.0,-5169.0,-1543.0,-11165.0,-274.0,-5667.0,0.342353,0.068078,0.937087,-17530.0,-264.0,32676.0,1811.0,-27.0,-809.0
2885.0,2803.0,2887.0,3151.0,3022.0,0.961182,0.007629,-0.178833,-0.209717,86.0,-57.0,3.0,-7987.0,-2097.0,8851.0,-10777.0,-2831.0,1184.0,-10682.0,1864.0,-2816.0,0.340582,0.089675,0.935812,-12170.0,11744.0,32767.0,1986.0,-1286.0,77.0
2871.0,2802.0,2901.0,3159.0,3031.0,0.958435,0.021057,-0.195374,-0.206848,34.0,-113.0,4.0,-6128.0,1621.0,11807.0,-9124.0,628.0,4247.0,-9030.0,4438.0,657.0,0.365794,0.121189,0.92277,-5674.0,10302.0,29412.0,792.0,-2568.0,107.0
2891.0,2834.0,2887.0,3139.0,3023.0,0.952332,0.021729,-0.224304,-0.205627,26.0,-168.0,14.0,-3860.0,1612.0,11947.0,-7286.0,517.0,4587.0,-7739.0,3630.0,1142.0,0.418288,0.133632,0.898434,-1150.0,-106.0,21472.0,617.0,-3841.0,332.0
2885.0,2825.0,2887.0,3153.0,3023.0,0.947693,0.020996,-0.245972,-0.202209,51.0,-207.0,26.0,-2857.0,883.0,11209.0,-6606.0,-257.0,4015.0,-7267.0,2603.0,465.0,0.45772,0.139271,0.878068,180.0,-2686.0,17538.0,1187.0,-4740.0,603.0
2883.0,2839.0,2894.0,3151.0,3037.0,0.9328,0.026428,-0.30542,-0.189331,115.0,-276.0,36.0,-915.0,26.0,9205.0,-5500.0,-1325.0,2553.0,-6006.0,972.0,-1224.0,0.559784,0.164955,0.811983,4134.0,-1068.0,12156.0,2654.0,-6311.0,841.0
2899.0,2864.0,2911.0,3155.0,3035.0,0.909119,0.040649,-0.377502,-0.171204,146.0,-310.0,42.0,662.0,261.0,6769.0,-4846.0,-1403.0,939.0,-4231.0,393.0,-2875.0,0.67247,0.20317,0.711647,5540.0,2266.0,5426.0,3354.0,-7084.0,973.0
2886.0,2815.0,2906.0,3143.0,3047.0,0.893677,0.047852,-0.41626,-0.160583,142.0,-326.0,51.0,1447.0,680.0,5510.0,-4521.0,-1115.0,194.0,-3144.0,434.0,-3412.0,0.728635,0.219217,0.648883,7742.0,4120.0,3660.0,3273.0,-7456.0,1184.0
2893.0,2828.0,2866.0,3159.0,3015.0,0.855713,0.054321,-0.496033,-0.13678,102.0,-350.0,83.0,2953.0,1475.0,3049.0,-3879.0,-398.0,-1063.0,-978.0,690.0,-3859.0,0.834063,0.228661,0.501954,9794.0,4772.0,-1880.0,2346.0,-7998.0,1923.0
2883.0,2799.0,2911.0,3157.0,3015.0,0.833313,0.051819,-0.536194,-0.124084,78.0,-358.0,97.0,3799.0,1577.0,1983.0,-3416.0,-220.0,-1454.0,-61.0,616.0,-3667.0,0.880775,0.219429,0.419618,13200.0,3258.0,-1774.0,1809.0,-8193.0,2236.0
2895.0,2827.0,2895.0,3143.0,3053.0,0.784973,0.038391,-0.610352,-0.099182,45.0,-333.0,105.0,5680.0,1192.0,266.0,-2107.0,-293.0,-1798.0,1208.0,31.0,-2509.0,0.950604,0.181344,0.252017,16562.0,-124.0,-3908.0,1036.0,-7606.0,2419.0
2885.0,2803.0,2903.0,3143.0,3039.0,0.737366,0.023193,-0.671265,-0.071899,57.0,-284.0,108.0,6805.0,-45.0,-1339.0,-1277.0,-1115.0,-2139.0,1928.0,-1060.0,-1614.0,0.9866,0.130731,0.097744,16154.0,-3774.0,-7376.0,1328.0,-6491.0,2481.0
2895.0,2830.0,2927.0,3183.0,3015.0,0.714478,0.016846,-0.697205,-0.056152,68.0,-262.0,110.0,7127.0,-464.0,-1996.0,-1018.0,-1302.0,-2219.0,2119.0,-1307.0,-1206.0,0.994382,0.102371,0.027253,16032.0,-2850.0,-7756.0,1580.0,-5979.0,2536.0
2898.0,2815.0,2875.0,3143.0,3007.0,0.671753,0.005981,-0.740356,-0.02533,62.0,-218.0,108.0,7416.0,-261.0,-3114.0,-729.0,-634.0,-2325.0,2368.0,-670.0,-529.0,0.99437,0.045542,-0.09627,15162.0,842.0,-9528.0,1425.0,-4981.0,2482.0
2877.0,2827.0,2855.0,3135.0,3038.0,0.633545,-0.007019,-0.773682,-0.000488,31.0,-178.0,104.0,7422.0,-16.0,-4197.0,-608.0,50.0,-2581.0,2650.0,18.0,-87.0,0.980331,-0.008138,-0.197253,14874.0,322.0,-11784.0,717.0,-4076.0,2389.0
2879.0,2835.0,2894.0,3171.0,3031.0,0.616394,-0.015198,-0.787231,0.009277,14.0,-158.0,101.0,7667.0,-80.0,-4620.0,-280.0,193.0,-2654.0,2645.0,172.0,358.0,0.970208,-0.033342,-0.239937,17318.0,-746.0,-11394.0,343.0,-3604.0,2327.0
2879.0,2819.0,2893.0,3165.0,3011.0,0.591614,-0.032837,-0.805176,0.024231,-4.0,-84.0,86.0,8761.0,-566.0,-5099.0,969.0,71.0,-2651.0,2242.0,150.0,1708.0,0.951115,-0.077874,-0.298792,20960.0,-2872.0,-11834.0,-72.0,-1921.0,1982.0
2866.0,2813.0,2919.0,3150.0,3043.0,0.583557,-0.047974,-0.809998,0.032349,-18.0,5.0,56.0,9599.0,-901.0,-5711.0,1880.0,-13.0,-3115.0,2363.0,193.0,2759.0,0.942256,-0.108395,-0.316812,21538.0,-2888.0,-12782.0,-402.0,127.0,1284.0
2863.0,2821.0,2885.0,3151.0,3055.0,0.586487,-0.05365,-0.807495,0.03302,-20.0,54.0,35.0,9934.0,-1079.0,-5842.0,2203.0,-126.0,-3303.0,2459.0,119.0,3116.0,0.943627,-0.116257,-0.30987,21650.0,-3358.0,-12574.0,-458.0,1257.0,803.0
2883.0,2853.0,2879.0,3135.0,3043.0,0.605591,-0.059998,-0.79303,0.028015,-28.0,142.0,-9.0,10545.0,-1420.0,-5957.0,2704.0,-460.0,-3786.0,2919.0,-213.0,3645.0,0.957141,-0.117102,-0.264971,23600.0,-3752.0,-11720.0,-630.0,3268.0,-189.0
2895.0,2821.0,2895.0,3135.0,3027.0,0.642456,-0.058838,-0.763916,0.013733,-33.0,246.0,-57.0,12296.0,-1616.0,-5702.0,4268.0,-824.0,-4275.0,3428.0,-592.0,5006.0,0.979949,-0.096583,-0.174091,31584.0,-3390.0,-10278.0,-733.0,5645.0,-1293.0
2887.0,2832.0,2925.0,3135.0,3029.0,0.668823,-0.05481,-0.741394,0.002197,-36.0,316.0,-87.0,13380.0,-1603.0,-5507.0,5257.0,-975.0,-4644.0,4008.0,-851.0,5776.0,0.991482,-0.076574,-0.10534,32767.0,-2996.0,-9920.0,-816.0,7255.0,-1989.0
2896.0,2832.0,2887.0,3151.0,3019.0,0.736145,-0.038452,-0.674927,-0.032593,-51.0,469.0,-165.0,14718.0,-1569.0,-5508.0,6557.0,-1465.0,-6212.0,6580.0,-2056.0,6016.0,0.996194,-0.012617,0.085967,32160.0,-3106.0,-11094.0,-1162.0,10752.0,-3758.0
2896.0,2841.0,2905.0,3135.0,3039.0,0.81366,-0.011292,-0.574707,-0.086792,-80.0,615.0,-256.0,13527.0,-1938.0,-5880.0,5849.0,-2604.0,-8658.0,9575.0,-4337.0,2333.0,0.937192,0.081385,0.339159,17812.0,-6252.0,-15002.0,-1814.0,14103.0,-5855.0
2883.0,2827.0,2907.0,3135.0,3024.0,0.850525,0.004333,-0.512085,-0.119812,-94.0,649.0,-283.0,10728.0,-2741.0,-6882.0,3600.0,-3806.0,-10777.0,10248.0,-5689.0,-2487.0,0.870044,0.130079,0.475498,2802.0,-10958.0,-20384.0,-2142.0,14881.0,-6475.0
2891.0,2831.0,2900.0,3167.0,3023.0,0.905029,0.023193,-0.385193,-0.178894,-136.0,523.0,-189.0,3471.0,-3165.0,-6704.0,-2172.0,-4637.0,-12456.0,5980.0,-4786.0,-11076.0,0.688923,0.179799,0.70217,-14882.0,-2378.0,-7362.0,-3100.0,11986.0,-4326.0
2875.0,2833.0,2895.0,3153.0,3007.0,0.933044,0.015137,-0.288452,-0.214355,-162.0,263.0,-62.0,-2962.0,-2018.0,-2127.0,-7318.0,-3262.0,-8951.0,-1827.0,-823.0,-11844.0,0.531788,0.151909,0.833086,-22706.0,-4136.0,12724.0,-3692.0,6032.0,-1398.0
2879.0,2806.0,2899.0,3153.0,3047.0,0.939575,0.005676,-0.259521,-0.223145,-117.0,136.0,-32.0,-5017.0,-2725.0,998.0,-8991.0,-3761.0,-6089.0,-5465.0,-229.0,-10105.0,0.485147,0.126488,0.865211,-20786.0,-10722.0,21188.0,-2669.0,3129.0,-715.0
2886.0,2811.0,2899.0,3143.0,3035.0,0.944214,0.001099,-0.236877,-0.22876,30.0,-11.0,-10.0,-6128.0,-3186.0,6796.0,-9788.0,-4090.0,-476.0,-9216.0,521.0,-5247.0,0.446823,0.110451,0.887759,-12268.0,-3508.0,27998.0,692.0,-240.0,-210.0
2895.0,2809.0,2899.0,3155.0,3029.0,0.943481,0.013367,-0.245483,-0.222107,75.0,-89.0,32.0,-4944.0,-748.0,10223.0,-8690.0,-1847.0,3021.0,-8963.0,2288.0,-1566.0,0.45728,0.13427,0.879048,-5116.0,6760.0,28246.0,1735.0,-2034.0,736.0
2875.0,2814.0,2896.0,3120.0,3025.0,0.942017,0.019653,-0.256409,-0.215454,77.0,-114.0,48.0,-4080.0,443.0,11158.0,-7968.0,-765.0,4049.0,-8473.0,2918.0,-381.0,0.474614,0.147516,0.867684,-2922.0,7568.0,27250.0,1786.0,-2611.0,1115.0
2882.0,2826.0,2903.0,3143.0,3024.0,0.936646,0.03009,-0.288147,-0.196838,89.0,-167.0,76.0,-2539.0,1899.0,11590.0,-6863.0,507.0,4773.0,-7646.0,3388.0,434.0,0.527937,0.169805,0.832116,-1108.0,7118.0,22142.0,2052.0,-3823.0,1759.0
2892.0,2799.0,2893.0,3135.0,3031.0,0.924683,0.039368,-0.337341,-0.171997,108.0,-245.0,94.0,-1378.0,2590.0,10173.0,-6377.0,1042.0,3871.0,-6711.0,3342.0,-717.0,0.610325,0.188849,0.769272,664.0,6434.0,14564.0,2480.0,-5595.0,2167.0
2886.0,2846.0,2896.0,3152.0,3035.0,0.914795,0.043457,-0.369202,-0.157959,115.0,-284.0,100.0,-889.0,2597.0,8984.0,-6310.0,990.0,3056.0,-6126.0,3076.0,-1770.0,0.661759,0.196146,0.723602,912.0,4794.0,10228.0,2649.0,-6496.0,2293.0
2881.0,2847.0,2903.0,3167.0,3057.0,0.884583,0.050354,-0.445923,-0.126892,129.0,-355.0,107.0,450.0,1987.0,5744.0,-5908.0,330.0,851.0,-3990.0,1929.0,-4010.0,0.776132,0.202253,0.597205,7354.0,1768.0,1984.0,2972.0,-8112.0,2465.0
2876.0,2830.0,2910.0,3147.0,3053.0,0.864258,0.052612,-0.488098,-0.109863,129.0,-365.0,111.0,1913.0,1647.0,4428.0,-4903.0,23.0,184.0,-2602.0,1208.0,-3980.0,0.832125,0.198189,0.518004,13190.0,1258.0,1426.0,2964.0,-8345.0,2553.0
2887.0,2815.0,2875.0,3127.0,3024.0,0.819031,0.054871,-0.566223,-0.074036,121.0,-330.0,115.0,4806.0,857.0,2112.0,-2725.0,-566.0,-777.0,-254.0,-51.0,-2877.0,0.919384,0.173723,0.352673,17072.0,-1002.0,-2882.0,2774.0,-7550.0,2646.0
2870.0,2811.0,2911.0,3133.0,3023.0,0.772217,0.053101,-0.632019,-0.037842,99.0,-290.0,120.0,6524.0,197.0,140.0,-1439.0,-866.0,-1461.0,1154.0,-628.0,-1796.0,0.972093,0.129844,0.195483,16582.0,-1374.0,-4614.0,2280.0,-6631.0,2769.0
2893.0,2818.0,2897.0,3147.0,3030.0,0.749207,0.050293,-0.660034,-0.020569,86.0,-271.0,122.0,6789.0,-62.0,-658.0,-1295.0,-901.0,-1670.0,1521.0,-689.0,-1576.0,0.986935,0.102512,0.123559,14720.0,-1650.0,-6080.0,1982.0,-6198.0,2806.0
2877.0,2831.0,2913.0,3155.0,3039.0,0.703857,0.040588,-0.709045,0.011414,60.0,-241.0,125.0,7071.0,-756.0,-1924.0,-1113.0,-1091.0,-1851.0,1932.0,-905.0,-1140.0,0.99906,0.040951,-0.008847,15220.0,-3840.0,-6918.0,1391.0,-5516.0,2866.0
2879.0,2823.0,2897.0,3158.0,3039.0,0.662964,0.0271,-0.74707,0.039917,42.0,-190.0,117.0,7595.0,-1276.0,-2730.0,-537.0,-1081.0,-1765.0,1909.0,-913.0,-299.0,0.992725,-0.023709,-0.117734,16620.0,-3886.0,-8220.0,965.0,-4347.0,2681.0
2887.0,2829.0,2897.0,3159.0,3039.0,0.630737,0.013123,-0.773438,0.061951,19.0,-132.0,96.0,7960.0,-1621.0,-3614.0,-46.0,-971.0,-2002.0,2055.0,-740.0,425.0,0.977298,-0.079276,-0.19671,16812.0,-4178.0,-9650.0,436.0,-3017.0,2202.0
2883.0,2815.0,2883.0,3127.0,3021.0,0.618347,0.006104,-0.782837,0.069641,5.0,-104.0,82.0,8055.0,-1812.0,-3954.0,117.0,-980.0,-2105.0,2102.0,-716.0,687.0,0.96898,-0.101487,-0.225668,16544.0,-4864.0,-9900.0,133.0,-2380.0,1900.0
2863.0,2825.0,2899.0,3147.0,3023.0,0.601013,-0.007141,-0.795288,0.079224,-12.0,-53.0,54.0,7987.0,-2350.0,-4581.0,165.0,-1247.0,-2409.0,2364.0,-930.0,963.0,0.954826,-0.134595,-0.265041,15598.0,-6424.0,-10814.0,-264.0,-1202.0,1254.0
2878.0,2823.0,2898.0,3143.0,3035.0,0.487671,-0.157959,-0.291199,-1.21228,6865.0,29160.0,-15123.0,-15619.0,6318.0,30121.0,-21083.0,1796.0,17032.0,31206.0,-30003.0,14140.0,0.666999,0.551965,1.597699,18084.0,-5770.0,-9796.0,-433.0,-104.0,572.0
2869.0,2807.0,2893.0,3147.0,3051.0,0.594238,-0.02063,-0.799866,0.081726,-22.0,26.0,7.0,8624.0,-2635.0,-4861.0,864.0,-1363.0,-2563.0,2279.0,-958.0,1748.0,0.94725,-0.155258,-0.280412,20120.0,-4722.0,-9950.0,-497.0,607.0,172.0
2881.0,2835.0,2903.0,3163.0,3039.0,0.606995,-0.023804,-0.790955,0.073914,-33.0,100.0,-26.0,9883.0,-2287.0,-4808.0,2045.0,-1092.0,-2741.0,2162.0,-577.0,2807.0,0.956692,-0.145822,-0.25227,23962.0,-3130.0,-9514.0,-748.0,2307.0,-581.0
2875.0,2830.0,2896.0,3163.0,3043.0,0.636169,-0.023865,-0.769043,0.057617,-45.0,196.0,-61.0,12045.0,-1956.0,-4610.0,4051.0,-981.0,-3102.0,2312.0,-347.0,4640.0,0.975733,-0.118984,-0.183965,31734.0,-2768.0,-8434.0,-1016.0,4509.0,-1380.0
2875.0,2807.0,2895.0,3147.0,3033.0,0.658752,-0.021667,-0.750671,0.046143,-49.0,261.0,-86.0,13195.0,-1698.0,-4610.0,5109.0,-896.0,-3562.0,2884.0,-269.0,5585.0,0.987014,-0.097823,-0.127893,32767.0,-1646.0,-9330.0,-1106.0,5996.0,-1947.0
2879.0,2822.0,2883.0,3125.0,3039.0,0.71875,-0.010864,-0.695068,0.012512,-64.0,402.0,-158.0,14662.0,-1132.0,-4413.0,6479.0,-861.0,-4687.0,4903.0,-637.0,6343.0,0.998889,-0.033011,0.03352,32767.0,-708.0,-7540.0,-1450.0,9226.0,-3603.0
2879.0,2811.0,2879.0,3131.0,3055.0,0.792969,0.009949,-0.607971,-0.037415,-78.0,531.0,-236.0,13269.0,-1186.0,-3855.0,5376.0,-1687.0,-5988.0,7084.0,-2243.0,3516.0,0.96346,0.061272,0.260471,15628.0,-3808.0,-6676.0,-1767.0,12169.0,-5401.0
2885.0,2832.0,2907.0,3153.0,3035.0,0.828674,0.021484,-0.555481,-0.065369,-84.0,540.0,-242.0,10535.0,-1388.0,-3902.0,3016.0,-2274.0,-7030.0,7428.0,-2911.0,-163.0,0.917817,0.108229,0.381954,3006.0,-3530.0,-8338.0,-1913.0,12383.0,-5538.0
2879.0,2829.0,2909.0,3143.0,3039.0,0.882629,0.03894,-0.452515,-0.121216,-108.0,448.0,-225.0,5407.0,-1441.0,-3156.0,-1059.0,-2902.0,-7968.0,5327.0,-2870.0,-6034.0,0.789365,0.178444,0.587442,146.0,-3606.0,126.0,-2457.0,10268.0,-5150.0
2875.0,2819.0,2902.0,3147.0,3047.0,0.918335,0.049927,-0.353333,-0.171082,-104.0,398.0,-178.0,2710.0,-976.0,-457.0,-2466.0,-2717.0,-6562.0,1906.0,-1873.0,-7026.0,0.631872,0.212596,0.745271,-3130.0,1968.0,7834.0,-2364.0,9130.0,-4071.0
2877.0,2813.0,2901.0,3139.0,3031.0,0.931091,0.051086,-0.307922,-0.18866,-116.0,337.0,-115.0,791.0,-125.0,950.0,-3748.0,-1856.0,-5645.0,-18.0,-398.0,-7013.0,0.554132,0.211317,0.805097,-11034.0,4958.0,10024.0,-2645.0,7736.0,-2623.0
2887.0,2819.0,2903.0,3120.0,3031.0,0.946655,0.041626,-0.243347,-0.20697,-97.0,145.0,-27.0,-3107.0,27.0,3996.0,-6740.0,-1443.0,-3196.0,-4372.0,1393.0,-6054.0,0.443501,0.179542,0.878042,-14816.0,-2832.0,18500.0,-2202.0,3328.0,-598.0
2883.0,2834.0,2879.0,3139.0,3039.0,0.951721,0.036377,-0.220825,-0.210022,10.0,-11.0,7.0,-4633.0,-738.0,7121.0,-7951.0,-2065.0,-250.0,-7157.0,1423.0,-3780.0,0.405048,0.161998,0.899795,-11658.0,-1450.0,22130.0,236.0,-235.0,177.0
2881.0,2819.0,2900.0,3157.0,3031.0,0.951294,0.038757,-0.224487,-0.207581,44.0,-77.0,21.0,-4570.0,-250.0,8271.0,-7937.0,-1617.0,929.0,-7474.0,1818.0,-2699.0,0.411016,0.166938,0.896153,-7966.0,3224.0,22944.0,1019.0,-1762.0,498.0
2885.0,2823.0,2889.0,3157.0,3039.0,0.94574,0.046143,-0.25177,-0.199951,61.0,-156.0,31.0,-3093.0,1222.0,9442.0,-6843.0,-317.0,2324.0,-6689.0,2487.0,-1172.0,0.457765,0.187961,0.868887,-50.0,6104.0,20976.0,1402.0,-3557.0,712.0
2879.0,2831.0,2893.0,3151.0,3031.0,0.935913,0.051086,-0.292358,-0.189758,69.0,-188.0,43.0,-956.0,1401.0,9287.0,-5280.0,-291.0,2537.0,-5529.0,1803.0,-757.0,0.527856,0.20658,0.823858,3768.0,1454.0,16414.0,1590.0,-4306.0,999.0
2877.0,2827.0,2901.0,3151.0,3046.0,0.929443,0.053284,-0.316467,-0.182129,84.0,-211.0,55.0,-248.0,991.0,8683.0,-4908.0,-764.0,2178.0,-5155.0,1153.0,-1226.0,0.568868,0.214324,0.794045,3260.0,-676.0,13324.0,1942.0,-4822.0,1280.0
2877.0,2819.0,2910.0,3147.0,3024.0,0.9104,0.060303,-0.376587,-0.160339,124.0,-280.0,77.0,524.0,317.0,6812.0,-4934.0,-1571.0,1003.0,-4375.0,196.0,-2938.0,0.666352,0.230563,0.709083,3060.0,-396.0,7572.0,2856.0,-6412.0,1781.0
2879.0,2818.0,2895.0,3147.0,3031.0,0.896484,0.065002,-0.412842,-0.147034,135.0,-314.0,84.0,932.0,392.0,5782.0,-4975.0,-1557.0,451.0,-3733.0,104.0,-3664.0,0.721097,0.237951,0.650639,4538.0,1660.0,5276.0,3109.0,-7184.0,1938.0
2878.0,2819.0,2899.0,3147.0,3031.0,0.859192,0.071716,-0.492615,-0.118347,122.0,-354.0,99.0,2629.0,966.0,3852.0,-4166.0,-998.0,-280.0,-1918.0,183.0,-3836.0,0.829526,0.239835,0.504404,11630.0,3718.0,2164.0,2796.0,-8093.0,2289.0
2878.0,2827.0,2895.0,3152.0,3035.0,0.813416,0.068787,-0.570618,-0.089478,82.0,-343.0,112.0,4947.0,1395.0,2317.0,-2556.0,-358.0,-462.0,-439.0,228.0,-2574.0,0.915989,0.214019,0.339315,16832.0,3296.0,162.0,1890.0,-7835.0,2588.0
2877.0,2831.0,2899.0,3139.0,3039.0,0.789795,0.06427,-0.605286,-0.075562,69.0,-321.0,114.0,5932.0,1248.0,1420.0,-1820.0,-332.0,-701.0,197.0,40.0,-1968.0,0.94639,0.192993,0.258984,17440.0,1062.0,-2776.0,1584.0,-7331.0,2623.0
2879.0,2827.0,2901.0,3135.0,3031.0,0.743042,0.052917,-0.665588,-0.046021,68.0,-279.0,120.0,6987.0,275.0,-398.0,-1075.0,-871.0,-1286.0,1162.0,-690.0,-1319.0,0.98425,0.139901,0.108421,15446.0,-2534.0,-6248.0,1576.0,-6368.0,2760.0
2869.0,2827.0,2901.0,3142.0,3031.0,0.696655,0.042542,-0.716003,-0.013916,74.0,-250.0,119.0,7259.0,-127.0,-1837.0,-903.0,-775.0,-1599.0,1652.0,-636.0,-914.0,0.996431,0.079201,-0.028948,15748.0,58.0,-6982.0,1716.0,-5708.0,2726.0
2877.0,2823.0,2896.0,3163.0,3047.0,0.674561,0.037903,-0.737244,0.000854,67.0,-230.0,113.0,7621.0,-7.0,-2292.0,-527.0,-415.0,-1555.0,1616.0,-303.0,-405.0,0.994696,0.049876,-0.089932,17732.0,790.0,-7150.0,1539.0,-5248.0,2599.0
2879.0,2822.0,2898.0,3153.0,3035.0,0.636536,0.027527,-0.770325,0.025146,39.0,-168.0,98.0,8784.0,292.0,-3022.0,738.0,322.0,-1479.0,1285.0,422.0,1002.0,0.982063,-0.003698,-0.188348,21274.0,1308.0,-8370.0,912.0,-3835.0,2262.0
2871.0,2831.0,2897.0,3143.0,3047.0,0.622314,0.021973,-0.781738,0.033997,24.0,-128.0,86.0,9355.0,364.0,-3393.0,1372.0,575.0,-1564.0,1167.0,709.0,1671.0,0.974468,-0.025805,-0.223166,21916.0,958.0,-8934.0,560.0,-2929.0,1974.0
2879.0,2833.0,2898.0,3139.0,3039.0,0.605347,0.011169,-0.794617,0.0448,-2.0,-47.0,56.0,9905.0,79.0,-4195.0,2015.0,551.0,-2039.0,1382.0,794.0,2445.0,0.963038,-0.057675,-0.263089,20458.0,-1410.0,-11226.0,-32.0,-1070.0,1286.0
2875.0,2826.0,2895.0,3143.0,3039.0,0.602356,0.002319,-0.796753,0.048523,-12.0,23.0,25.0,9870.0,-628.0,-4774.0,2005.0,-17.0,-2565.0,1912.0,298.0,2617.0,0.960083,-0.074527,-0.269633,19360.0,-3384.0,-11030.0,-262.0,536.0,576.0
2879.0,2823.0,2895.0,3143.0,3039.0,0.605835,-0.000488,-0.794128,0.048523,-14.0,55.0,8.0,9870.0,-911.0,-4943.0,1987.0,-274.0,-2802.0,2183.0,59.0,2665.0,0.962174,-0.077659,-0.26125,19950.0,-3074.0,-10382.0,-305.0,1277.0,202.0
2881.0,2827.0,2902.0,3151.0,3039.0,0.622864,-0.002625,-0.781128,0.043396,-24.0,123.0,-24.0,10421.0,-1089.0,-4948.0,2451.0,-506.0,-3143.0,2535.0,-158.0,3112.0,0.972845,-0.071065,-0.220325,23690.0,-2230.0,-9316.0,-528.0,2840.0,-549.0
2879.0,2830.0,2899.0,3153.0,3043.0,0.655518,-0.00061,-0.754578,0.030212,-37.0,218.0,-62.0,12158.0,-1017.0,-4746.0,4054.0,-636.0,-3609.0,3025.0,-308.0,4540.0,0.989241,-0.046395,-0.138772,30926.0,-1696.0,-8640.0,-836.0,5006.0,-1402.0
2879.0,2819.0,2891.0,3135.0,3037.0,0.679077,0.002319,-0.733765,0.019958,-44.0,282.0,-86.0,13267.0,-944.0,-4633.0,5102.0,-729.0,-4003.0,3614.0,-477.0,5411.0,0.996658,-0.02614,-0.076872,32767.0,-1502.0,-8598.0,-1006.0,6480.0,-1968.0
2883.0,2827.0,2898.0,3135.0,3045.0,0.741577,0.014038,-0.670654,-0.010132,-59.0,440.0,-157.0,14701.0,-1002.0,-4713.0,6554.0,-1283.0,-5532.0,6166.0,-1464.0,5919.0,0.994399,0.034411,0.100065,32767.0,-2892.0,-10532.0,-1347.0,10082.0,-3574.0
2875.0,2827.0,2903.0,3143.0,3037.0,0.817078,0.034729,-0.572815,-0.055359,-77.0,590.0,-240.0,13516.0,-1670.0,-5725.0,5879.0,-2654.0,-8521.0,9859.0,-3453.0,2252.0,0.932223,0.120173,0.341357,17298.0,-6174.0,-17134.0,-1748.0,13523.0,-5475.0
2879.0,2823.0,2897.0,3135.0,3042.0,0.883606,0.055603,-0.451721,-0.109924,-109.0,565.0,-236.0,7039.0,-2775.0,-7258.0,599.0,-4393.0,-12056.0,9478.0,-4418.0,-7458.0,0.786063,0.197573,0.585699,-8680.0,-7270.0,-14860.0,-2485.0,12962.0,-5394.0
2883.0,2831.0,2903.0,3155.0,3039.0,0.906677,0.058105,-0.396057,-0.132996,-133.0,456.0,-167.0,3183.0,-2421.0,-6502.0,-2573.0,-4147.0,-12068.0,6369.0,-3233.0,-10882.0,0.702736,0.210714,0.679514,-16588.0,-1612.0,-7048.0,-3037.0,10467.0,-3824.0
2883.0,2823.0,2897.0,3151.0,3039.0,0.9328,0.046204,-0.316711,-0.165405,-138.0,219.0,-84.0,-1821.0,-1647.0,-1771.0,-6536.0,-3211.0,-8283.0,-742.0,-967.0,-10960.0,0.575572,0.190969,0.795034,-11972.0,-2926.0,14840.0,-3142.0,5026.0,-1923.0
2883.0,2827.0,2897.0,3155.0,3045.0,0.944214,0.037903,-0.265869,-0.190613,-58.0,146.0,-87.0,-2309.0,-1800.0,3709.0,-6303.0,-3216.0,-3301.0,-4341.0,-675.0,-6454.0,0.487625,0.172933,0.85575,-4174.0,-3076.0,21430.0,-1306.0,3363.0,-1975.0
2879.0,2827.0,2901.0,3141.0,3043.0,0.947571,0.038391,-0.246582,-0.199402,-30.0,119.0,-64.0,-2377.0,-1397.0,5694.0,-6079.0,-2798.0,-1477.0,-5147.0,-192.0,-4519.0,0.451997,0.171094,0.875375,-5658.0,202.0,22650.0,-676.0,2744.0,-1454.0
2879.0,2823.0,2896.0,3143.0,3046.0,0.951843,0.041626,-0.221985,-0.207275,-2.0,32.0,-15.0,-3324.0,-118.0,8530.0,-6644.0,-1521.0,1173.0,-6506.0,1374.0,-1900.0,0.405334,0.171267,0.897959,-9726.0,3464.0,24266.0,-39.0,755.0,-330.0
2875.0,2831.0,2907.0,3143.0,3039.0,0.951782,0.045532,-0.220764,-0.208008,23.0,-64.0,7.0,-3767.0,952.0,10319.0,-7054.0,-510.0,2959.0,-7246.0,2486.0,-263.0,0.401297,0.178515,0.898347,-7810.0,4440.0,24404.0,540.0,-1462.0,167.0
2878.0,2830.0,2903.0,3155.0,3043.0,0.949951,0.047302,-0.229431,-0.206543,35.0,-111.0,16.0,-3503.0,1236.0,10723.0,-6913.0,-276.0,3430.0,-7259.0,2628.0,124.0,0.416357,0.184644,0.890191,-4762.0,3880.0,23448.0,820.0,-2532.0,368.0
2879.0,2827.0,2903.0,3157.0,3039.0,0.942505,0.051758,-0.262451,-0.200256,70.0,-174.0,28.0,-2064.0,1198.0,10699.0,-5946.0,-462.0,3679.0,-6708.0,2011.0,240.0,0.473993,0.202679,0.856859,614.0,1424.0,19768.0,1614.0,-3984.0,645.0
2882.0,2825.0,2911.0,3155.0,3035.0,0.930115,0.06134,-0.309692,-0.187744,111.0,-212.0,44.0,-320.0,925.0,9548.0,-4850.0,-962.0,2988.0,-5667.0,997.0,-511.0,0.553066,0.230393,0.800689,4340.0,1488.0,14470.0,2557.0,-4851.0,1019.0
2879.0,2815.0,2898.0,3135.0,3039.0,0.921753,0.067749,-0.337097,-0.179077,123.0,-229.0,52.0,381.0,980.0,8654.0,-4511.0,-1032.0,2399.0,-5038.0,729.0,-1115.0,0.597176,0.245629,0.763473,4652.0,2578.0,11694.0,2828.0,-5235.0,1202.0
2879.0,2815.0,2897.0,3143.0,3035.0,0.899292,0.080139,-0.399353,-0.159119,123.0,-277.0,66.0,1331.0,1480.0,6607.0,-4344.0,-741.0,1133.0,-3745.0,808.0,-2453.0,0.692767,0.271226,0.66814,5358.0,4698.0,7196.0,2824.0,-6322.0,1532.0
2871.0,2827.0,2901.0,3142.0,3039.0,0.867126,0.085571,-0.470947,-0.137695,99.0,-323.0,82.0,2383.0,1930.0,4533.0,-4114.0,-348.0,94.0,-2267.0,982.0,-3308.0,0.793176,0.278097,0.541755,9070.0,4902.0,3042.0,2279.0,-7382.0,1880.0
2881.0,2814.0,2895.0,3155.0,3069.0,0.847534,0.084839,-0.508301,-0.127075,84.0,-330.0,85.0,3396.0,2033.0,3831.0,-3485.0,-203.0,-10.0,-1589.0,857.0,-2987.0,0.840043,0.272993,0.468895,13300.0,4442.0,4036.0,1945.0,-7537.0,1948.0
2879.0,2822.0,2896.0,3158.0,3035.0,0.806213,0.079407,-0.576843,-0.104675,75.0,-301.0,92.0,5239.0,1576.0,2344.0,-2244.0,-462.0,-292.0,-460.0,140.0,-2258.0,0.913494,0.2488,0.321883,15190.0,958.0,-34.0,1726.0,-6886.0,2129.0
2877.0,2815.0,2899.0,3147.0,3035.0,0.785217,0.076111,-0.607666,-0.091797,79.0,-284.0,97.0,5893.0,1208.0,1522.0,-1810.0,-685.0,-525.0,30.0,-233.0,-1991.0,0.940326,0.231091,0.249942,15384.0,330.0,-2036.0,1829.0,-6484.0,2238.0
2879.0,2828.0,2897.0,3143.0,3031.0,0.743286,0.070618,-0.66217,-0.06366,85.0,-248.0,99.0,6904.0,909.0,-56.0,-1086.0,-641.0,-982.0,849.0,-404.0,-1291.0,0.975373,0.189285,0.11307,16700.0,1714.0,-4362.0,1955.0,-5659.0,2283.0
2883.0,2822.0,2897.0,3143.0,3047.0,-0.045288,-1.21228,0.880127,0.64209,7687.0,-26890.0,-11783.0,22220.0,7649.0,21390.0,-31216.0,-2509.0,-29156.0,-21504.0,-24087.0,30813.0,-1.477067,1.240045,-1.829916,17038.0,2970.0,-6378.0,1668.0,-4665.0,2110.0
2879.0,2832.0,2898.0,3151.0,3043.0,0.686829,0.062988,-0.723633,-0.025391,59.0,-182.0,88.0,7865.0,1230.0,-1903.0,-251.0,220.0,-1450.0,1445.0,321.0,-141.0,0.990825,0.123271,-0.055234,17228.0,3314.0,-6822.0,1363.0,-4161.0,2030.0
2879.0,2822.0,2894.0,3155.0,3071.0,0.656921,0.054321,-0.751953,-0.00708,28.0,-136.0,79.0,8416.0,1150.0,-2748.0,329.0,478.0,-1627.0,1530.0,543.0,586.0,0.987179,0.082017,-0.136788,18750.0,1198.0,-7756.0,650.0,-3106.0,1818.0
2879.0,2821.0,2891.0,3147.0,3027.0,0.636658,0.043823,-0.769897,0.007385,18.0,-73.0,67.0,9147.0,376.0,-3566.0,1110.0,12.0,-2015.0,1767.0,82.0,1470.0,0.98097,0.044429,-0.189275,20168.0,-1542.0,-9494.0,416.0,-1671.0,1536.0
2874.0,2817.0,2898.0,3151.0,3043.0,0.63092,0.039062,-0.774719,0.013916,16.0,-40.0,59.0,9305.0,117.0,-3936.0,1287.0,-110.0,-2269.0,1965.0,-4.0,1718.0,0.97866,0.027729,-0.203462,19182.0,-1062.0,-10122.0,371.0,-900.0,1363.0
2874.0,2828.0,2896.0,3135.0,3031.0,0.627869,0.031433,-0.777344,0.02301,3.0,18.0,37.0,9355.0,-109.0,-4505.0,1346.0,-139.0,-2780.0,2438.0,43.0,1900.0,0.977586,0.003698,-0.210503,19084.0,-844.0,-10304.0,79.0,431.0,850.0
2877.0,2832.0,2896.0,3159.0,3027.0,0.630615,0.028503,-0.775146,0.025146,-4.0,49.0,23.0,9503.0,-252.0,-4669.0,1482.0,-227.0,-3003.0,2647.0,-19.0,2062.0,0.979072,-0.003035,-0.203357,20106.0,-1484.0,-10288.0,-78.0,1132.0,529.0
2887.0,2822.0,2893.0,3153.0,3047.0,0.646179,0.025085,-0.762329,0.024719,-18.0,122.0,-8.0,10431.0,-322.0,-4744.0,2350.0,-278.0,-3403.0,2983.0,-53.0,2876.0,0.986443,-0.005269,-0.163616,24566.0,-290.0,-9644.0,-396.0,2815.0,-169.0
2877.0,2815.0,2897.0,3158.0,3039.0,0.678589,0.02533,-0.733948,0.015015,-39.0,225.0,-48.0,12104.0,114.0,-4424.0,3937.0,12.0,-3780.0,3455.0,159.0,4221.0,0.996858,0.012337,-0.078613,29448.0,1670.0,-8360.0,-892.0,5169.0,-1088.0
2879.0,2827.0,2896.0,3147.0,3047.0,0.701477,0.026794,-0.712219,0.005554,-56.0,283.0,-74.0,12944.0,320.0,-4344.0,4756.0,76.0,-4213.0,4135.0,123.0,4822.0,0.999509,0.02968,-0.015873,30842.0,1748.0,-8204.0,-1264.0,6497.0,-1680.0
2879.0,2822.0,2897.0,3147.0,3043.0,0.759155,0.033081,-0.649597,-0.024475,-88.0,412.0,-139.0,14000.0,375.0,-4151.0,5933.0,-296.0,-5411.0,6265.0,-670.0,4985.0,0.984671,0.082025,0.153845,29542.0,110.0,-8088.0,-1993.0,9453.0,-3182.0
2887.0,2807.0,2893.0,3167.0,3047.0,0.792297,0.037903,-0.607239,-0.045105,-103.0,478.0,-174.0,13909.0,82.0,-4203.0,6054.0,-858.0,-6329.0,7654.0,-1529.0,4063.0,0.958808,0.11484,0.259594,26242.0,-2004.0,-8932.0,-2346.0,10952.0,-3969.0
2881.0,2814.0,2887.0,3151.0,3039.0,0.858643,0.047791,-0.502075,-0.091187,-117.0,546.0,-187.0,10237.0,-1556.0,-5179.0,3245.0,-2978.0,-9203.0,9246.0,-3665.0,-2268.0,0.853491,0.173635,0.491219,3684.0,-9038.0,-14060.0,-2674.0,12511.0,-4282.0
2887.0,2833.0,2903.0,3155.0,3029.0,0.907471,0.049133,-0.397034,-0.128174,-116.0,420.0,-123.0,3724.0,-2049.0,-4557.0,-2075.0,-3613.0,-10126.0,5372.0,-3040.0,-9043.0,0.707998,0.190953,0.679882,-10500.0,-3616.0,-1374.0,-2656.0,9626.0,-2810.0
2879.0,2822.0,2911.0,3135.0,3035.0,0.923706,0.047241,-0.352478,-0.142395,-106.0,340.0,-94.0,1096.0,-1859.0,-2669.0,-4128.0,-3396.0,-8788.0,2125.0,-2134.0,-9834.0,0.637718,0.187656,0.747037,-12956.0,-2336.0,6530.0,-2424.0,7800.0,-2131.0
2891.0,2819.0,2902.0,3147.0,3035.0,0.943359,0.042664,-0.286194,-0.162292,-66.0,186.0,-59.0,-2148.0,-1204.0,2038.0,-6457.0,-2624.0,-4782.0,-3150.0,-400.0,-7833.0,0.526119,0.173388,0.832539,-10006.0,-198.0,19172.0,-1493.0,4262.0,-1347.0
2871.0,2833.0,2897.0,3151.0,3045.0,0.952087,0.04248,-0.246643,-0.17572,-26.0,95.0,-40.0,-2768.0,-284.0,6246.0,-6493.0,-1656.0,-919.0,-5376.0,755.0,-4033.0,0.454722,0.167571,0.874711,-6344.0,2524.0,23186.0,-591.0,2185.0,-902.0
2886.0,2831.0,2896.0,3158.0,3053.0,0.954346,0.042847,-0.235107,-0.179016,-17.0,51.0,-17.0,-2925.0,131.0,7757.0,-6475.0,-1228.0,501.0,-5971.0,1199.0,-2566.0,0.433407,0.165957,0.885711,-6944.0,2370.0,24044.0,-371.0,1175.0,-383.0
2883.0,2814.0,2903.0,3167.0,3051.0,0.956055,0.04303,-0.229675,-0.176819,21.0,-43.0,25.0,-3033.0,136.0,9733.0,-6505.0,-1203.0,2436.0,-6901.0,1202.0,-784.0,0.423947,0.1635,0.890703,-5078.0,-280.0,24292.0,501.0,-981.0,576.0
2879.0,2823.0,2879.0,3143.0,3039.0,0.953735,0.050293,-0.244568,-0.167236,71.0,-97.0,35.0,-1998.0,581.0,10751.0,-5681.0,-874.0,3581.0,-6671.0,1080.0,424.0,0.449684,0.177734,0.875236,70.0,4046.0,23700.0,1638.0,-2216.0,824.0
2896.0,2810.0,2895.0,3159.0,3031.0,0.951111,0.056519,-0.256897,-0.16156,80.0,-116.0,37.0,-1301.0,1144.0,10952.0,-5154.0,-416.0,3894.0,-6293.0,1246.0,851.0,0.470413,0.190519,0.861523,1514.0,5674.0,22812.0,1836.0,-2641.0,870.0
2891.0,2815.0,2907.0,3127.0,3031.0,0.942871,0.068787,-0.289795,-0.14917,87.0,-166.0,45.0,-579.0,1654.0,10204.0,-4887.0,-116.0,3465.0,-5841.0,1309.0,254.0,0.525957,0.216171,0.822545,-398.0,3522.0,16108.0,1994.0,-3781.0,1038.0
2887.0,2842.0,2911.0,3167.0,3027.0,0.93634,0.074463,-0.312256,-0.142151,96.0,-207.0,49.0,-539.0,1491.0,9314.0,-5155.0,-378.0,2810.0,-5727.0,1111.0,-760.0,0.563586,0.22822,0.793892,-998.0,1682.0,12864.0,2205.0,-4724.0,1140.0
2893.0,2800.0,2887.0,3151.0,3043.0,0.914856,0.084534,-0.374268,-0.125427,105.0,-298.0,68.0,398.0,1581.0,7399.0,-5038.0,-455.0,1619.0,-4686.0,942.0,-2314.0,0.663596,0.248559,0.705471,7020.0,4844.0,10878.0,2418.0,-6804.0,1564.0
2886.0,2806.0,2913.0,3147.0,3046.0,0.884094,0.088257,-0.446716,-0.104797,79.0,-316.0,94.0,2602.0,2145.0,5894.0,-3717.0,99.0,1099.0,-3029.0,1008.0,-2199.0,0.77138,0.249684,0.58526,11272.0,5382.0,6982.0,1830.0,-7226.0,2156.0
2879.0,2845.0,2899.0,3155.0,3051.0,0.866516,0.086609,-0.482544,-0.09375,66.0,-314.0,99.0,3655.0,2202.0,5152.0,-3062.0,231.0,897.0,-2328.0,923.0,-1989.0,0.820025,0.240573,0.519289,13714.0,4446.0,5922.0,1527.0,-7178.0,2290.0
2886.0,2830.0,2879.0,3153.0,3029.0,0.829224,0.079712,-0.548645,-0.070801,59.0,-287.0,104.0,5242.0,1403.0,3407.0,-2119.0,-316.0,250.0,-1061.0,111.0,-1874.0,0.898611,0.209887,0.385259,13344.0,-1146.0,828.0,1366.0,-6570.0,2405.0
2891.0,2818.0,2896.0,3163.0,3026.0,0.809448,0.075745,-0.579529,-0.056885,70.0,-283.0,115.0,5485.0,712.0,2350.0,-2130.0,-832.0,-245.0,-457.0,-420.0,-2214.0,0.92958,0.188555,0.316851,12122.0,-2578.0,-1550.0,1617.0,-6467.0,2657.0
2893.0,2823.0,2911.0,3178.0,3035.0,0.765076,0.068542,-0.639832,-0.023132,89.0,-291.0,137.0,5306.0,210.0,407.0,-2688.0,-891.0,-1000.0,544.0,-475.0,-2914.0,0.975868,0.134482,0.171793,10308.0,990.0,-4342.0,2044.0,-6663.0,3148.0
2871.0,2818.0,2907.0,3159.0,3057.0,0.715149,0.059021,-0.696411,0.009399,58.0,-282.0,141.0,6474.0,939.0,-522.0,-1694.0,354.0,-710.0,622.0,537.0,-1680.0,0.997185,0.071326,0.023054,18478.0,3594.0,-2764.0,1331.0,-6448.0,3243.0
2883.0,2830.0,2907.0,3141.0,3035.0,0.691589,0.051453,-0.720093,0.023193,39.0,-252.0,141.0,7472.0,965.0,-945.0,-706.0,655.0,-598.0,551.0,743.0,-654.0,0.998404,0.037765,-0.042347,21100.0,1666.0,-4690.0,900.0,-5757.0,3234.0
2893.0,2825.0,2887.0,3139.0,3011.0,0.653015,0.032776,-0.755127,0.047607,17.0,-162.0,129.0,9646.0,488.0,-1892.0,1541.0,726.0,-723.0,406.0,823.0,1606.0,0.989339,-0.029093,-0.142596,24628.0,-760.0,-6760.0,408.0,-3703.0,2972.0
2891.0,2795.0,2896.0,3150.0,3007.0,0.640198,0.023682,-0.765686,0.057861,13.0,-111.0,114.0,10021.0,192.0,-2519.0,1967.0,669.0,-1096.0,645.0,868.0,2085.0,0.983121,-0.058285,-0.173635,21246.0,-1390.0,-8962.0,307.0,-2521.0,2629.0
2896.0,2819.0,2896.0,3183.0,3057.0,0.623901,0.008423,-0.778015,0.073364,4.0,-50.0,78.0,9060.0,-548.0,-3564.0,1097.0,301.0,-1837.0,1506.0,612.0,1422.0,0.972045,-0.103647,-0.210743,13390.0,-3568.0,-10238.0,100.0,-1123.0,1790.0
2879.0,2832.0,2885.0,3153.0,3019.0,0.614868,-0.002136,-0.784241,0.083496,6.0,-14.0,43.0,8339.0,-1611.0,-4036.0,441.0,-516.0,-2151.0,2018.0,-186.0,988.0,0.964053,-0.133589,-0.230004,16256.0,-6778.0,-9312.0,148.0,-319.0,1003.0
2883.0,2835.0,2909.0,3151.0,3037.0,0.613953,-0.005249,-0.784424,0.087646,11.0,12.0,29.0,8350.0,-2127.0,-4362.0,467.0,-947.0,-2471.0,2361.0,-554.0,1155.0,0.962278,-0.143949,-0.230729,16906.0,-7056.0,-10680.0,272.0,294.0,668.0
2887.0,2814.0,2919.0,3167.0,3047.0,0.619812,-0.00885,-0.779236,0.092407,2.0,64.0,6.0,8788.0,-2419.0,-4626.0,888.0,-1149.0,-2868.0,2685.0,-633.0,1649.0,0.964324,-0.154985,-0.214581,19868.0,-4702.0,-9248.0,57.0,1488.0,158.0
2877.0,2817.0,2897.0,3167.0,3027.0,0.57312,-0.143188,-0.282288,-1.21228,29957.0,20883.0,27812.0,27276.0,16683.0,-21513.0,21781.0,12420.0,30114.0,-7171.0,-16390.0,6666.0,0.670739,0.520295,1.697901,27064.0,-5284.0,-9610.0,-521.0,3268.0,-505.0
2895.0,2815.0,2906.0,3166.0,3019.0,0.655579,-0.012817,-0.750488,0.082397,-31.0,200.0,-42.0,11786.0,-2534.0,-4775.0,3742.0,-1383.0,-3736.0,3282.0,-488.0,4342.0,0.981896,-0.140482,-0.126824,32767.0,-5906.0,-10274.0,-704.0,4582.0,-958.0
2894.0,2835.0,2911.0,3151.0,3039.0,0.707581,-0.011108,-0.703857,0.061401,-47.0,370.0,-106.0,13901.0,-2319.0,-5147.0,5752.0,-1482.0,-5219.0,5320.0,-511.0,5826.0,0.994708,-0.102156,0.008902,32767.0,-2898.0,-12062.0,-1062.0,8480.0,-2418.0
2883.0,2832.0,2883.0,3135.0,3039.0,0.784668,-0.000793,-0.619629,0.017456,-83.0,576.0,-221.0,15022.0,-2062.0,-6366.0,7056.0,-1874.0,-8267.0,9721.0,-1503.0,4985.0,0.972378,-0.022878,0.232068,32470.0,-5124.0,-16926.0,-1891.0,13210.0,-5046.0
2896.0,2845.0,2929.0,3157.0,3039.0,0.827576,0.006592,-0.561096,-0.012573,-94.0,660.0,-255.0,13503.0,-3051.0,-6954.0,5896.0,-3255.0,-9986.0,11413.0,-3451.0,1696.0,0.928533,0.02502,0.370167,11744.0,-12348.0,-18380.0,-2134.0,15118.0,-5839.0
2899.0,2823.0,2889.0,3151.0,3057.0,0.892761,0.009338,-0.446899,-0.056274,-88.0,412.0,-110.0,1022.0,-4995.0,-8499.0,-5506.0,-5543.0,-13417.0,6937.0,-5358.0,-12814.0,0.796898,0.066972,0.600383,-32768.0,-12156.0,-12740.0,-2014.0,9452.0,-2504.0
2895.0,2819.0,2903.0,3167.0,3031.0,0.916199,0.006958,-0.393188,-0.076782,-13.0,132.0,-81.0,-2963.0,-4110.0,-1687.0,-8856.0,-4709.0,-7344.0,-1350.0,-3708.0,-11787.0,0.719409,0.07313,0.69067,-1810.0,-1086.0,21674.0,-288.0,3033.0,-1835.0
2899.0,2818.0,2911.0,3181.0,3003.0,0.922913,0.013062,-0.375122,-0.085876,9.0,133.0,-84.0,-1503.0,-2272.0,1985.0,-7156.0,-2997.0,-3898.0,-2774.0,-1904.0,-8003.0,0.690166,0.088538,0.718255,6040.0,7400.0,24254.0,209.0,3061.0,-1923.0
2896.0,2785.0,2907.0,3119.0,3030.0,0.935547,0.026184,-0.335083,-0.108704,-27.0,161.0,-103.0,498.0,1135.0,6036.0,-4591.0,136.0,-305.0,-3233.0,1139.0,-3071.0,0.621279,0.121842,0.774098,5200.0,9694.0,20316.0,-617.0,3697.0,-2351.0
2897.0,2811.0,2858.0,3135.0,3063.0,0.945618,0.031311,-0.293823,-0.135925,-41.0,126.0,-91.0,-98.0,1232.0,7390.0,-4580.0,92.0,628.0,-3952.0,1363.0,-1974.0,0.547177,0.139093,0.825356,-5590.0,-652.0,16852.0,-938.0,2909.0,-2080.0
2907.0,2834.0,2903.0,3127.0,3071.0,0.948364,0.031372,-0.280884,-0.14386,-22.0,59.0,-52.0,-1036.0,621.0,7898.0,-5326.0,-528.0,1014.0,-4949.0,1063.0,-2011.0,0.523734,0.14032,0.840211,-7718.0,-2428.0,19140.0,-492.0,1352.0,-1185.0
2915.0,2841.0,2903.0,3125.0,3015.0,0.947998,0.035156,-0.279846,-0.147461,36.0,-73.0,-4.0,-1673.0,727.0,9142.0,-5934.0,-495.0,2253.0,-6093.0,1339.0,-1266.0,0.520219,0.149189,0.840895,-516.0,5250.0,22764.0,832.0,-1661.0,-85.0
2899.0,2815.0,2899.0,3157.0,3051.0,0.942261,0.042725,-0.297974,-0.146851,29.0,-82.0,-3.0,896.0,2361.0,10155.0,-3601.0,984.0,3447.0,-4537.0,2050.0,1010.0,0.548989,0.168031,0.818807,9306.0,8040.0,21484.0,674.0,-1870.0,-46.0
2914.0,2821.0,2891.0,3175.0,3043.0,0.939514,0.045044,-0.306152,-0.146912,23.0,-76.0,-1.0,1574.0,2428.0,9915.0,-3030.0,997.0,3291.0,-4020.0,1887.0,1131.0,0.562034,0.174594,0.808512,6178.0,4358.0,17666.0,531.0,-1728.0,-20.0
2895.0,2827.0,2891.0,3151.0,3023.0,0.932678,0.048157,-0.327087,-0.144043,40.0,-117.0,15.0,1671.0,1489.0,8676.0,-3213.0,-18.0,2275.0,-3815.0,957.0,-141.0,0.596261,0.184059,0.781332,2474.0,-606.0,13122.0,936.0,-2675.0,347.0
2911.0,2853.0,2887.0,3134.0,3055.0,0.927429,0.050476,-0.343079,-0.139832,60.0,-154.0,27.0,1378.0,954.0,7909.0,-3719.0,-598.0,1687.0,-3929.0,525.0,-1146.0,0.622246,0.189572,0.759427,656.0,-1004.0,10970.0,1391.0,-3508.0,632.0
2917.0,2831.0,2919.0,3139.0,3045.0,0.909973,0.057129,-0.391174,-0.124756,90.0,-253.0,61.0,635.0,681.0,6191.0,-5080.0,-970.0,560.0,-3950.0,443.0,-3354.0,0.697662,0.201574,0.687334,-268.0,1888.0,6790.0,2082.0,-5783.0,1413.0
2900.0,2831.0,2909.0,3157.0,3029.0,0.879761,0.060608,-0.460083,-0.10321,79.0,-321.0,88.0,2262.0,1643.0,5181.0,-4267.0,-8.0,517.0,-2795.0,999.0,-3108.0,0.797015,0.201612,0.569282,13548.0,7082.0,9662.0,1832.0,-7343.0,2022.0
2880.0,2823.0,2927.0,3123.0,3023.0,0.862244,0.059143,-0.494507,-0.092041,60.0,-304.0,96.0,3970.0,2171.0,5111.0,-2926.0,589.0,983.0,-2235.0,1199.0,-1854.0,0.841884,0.193021,0.503901,18270.0,7226.0,9426.0,1391.0,-6947.0,2199.0
2915.0,2835.0,2865.0,3127.0,3039.0,0.829346,0.049744,-0.552185,-0.069214,34.0,-242.0,108.0,6292.0,1977.0,4007.0,-1154.0,674.0,851.0,-1184.0,854.0,-614.0,0.909019,0.158947,0.385222,15998.0,1088.0,3342.0,785.0,-5535.0,2480.0
2901.0,2813.0,2895.0,3122.0,3037.0,0.813599,0.043762,-0.577026,-0.056519,40.0,-231.0,111.0,6194.0,1307.0,3029.0,-1457.0,189.0,323.0,-774.0,392.0,-1228.0,0.933989,0.136435,0.330262,10662.0,-1658.0,44.0,918.0,-5273.0,2551.0
2903.0,2832.0,2928.0,3155.0,3015.0,0.777222,0.034607,-0.627686,-0.027588,66.0,-258.0,112.0,5234.0,110.0,955.0,-2743.0,-614.0,-762.0,167.0,-360.0,-2885.0,0.973792,0.088428,0.209648,8962.0,-2276.0,-4014.0,1529.0,-5890.0,2578.0
2908.0,2829.0,2893.0,3157.0,3039.0,0.340759,0.003296,0.013611,-1.21228,32327.0,19916.0,-8587.0,-31002.0,13052.0,-14965.0,-30860.0,13303.0,-27953.0,-12806.0,8475.0,21340.0,-0.017267,-0.030754,1.585544,21866.0,2876.0,-1114.0,1356.0,-5892.0,2528.0
2885.0,2825.0,2911.0,3159.0,3055.0,0.713379,0.023682,-0.700256,0.01416,42.0,-217.0,103.0,8444.0,614.0,-248.0,253.0,499.0,-397.0,374.0,516.0,252.0,0.999767,0.013956,0.01819,27060.0,2268.0,-2260.0,975.0,-4962.0,2371.0
2896.0,2837.0,2895.0,3175.0,3055.0,0.685486,0.012451,-0.727173,0.034241,17.0,-110.0,92.0,10294.0,282.0,-1632.0,2120.0,550.0,-1157.0,989.0,687.0,2164.0,0.997786,-0.032728,-0.057872,22098.0,-1078.0,-8326.0,401.0,-2509.0,2124.0
2906.0,2851.0,2890.0,3151.0,3025.0,0.6698,0.000366,-0.740967,0.04834,2.0,-51.0,65.0,9757.0,-356.0,-2715.0,1625.0,226.0,-1911.0,1715.0,467.0,1784.0,0.992634,-0.071146,-0.098063,17408.0,-3416.0,-8214.0,64.0,-1147.0,1511.0
2907.0,2835.0,2903.0,3149.0,3047.0,0.665405,-0.0047,-0.744568,0.053345,1.0,-26.0,50.0,9499.0,-949.0,-3249.0,1385.0,-247.0,-2357.0,2193.0,34.0,1649.0,0.990377,-0.085692,-0.108794,17716.0,-5586.0,-9668.0,36.0,-582.0,1166.0
2911.0,2831.0,2907.0,3159.0,3047.0,0.663818,-0.011475,-0.745361,0.060669,4.0,32.0,21.0,9723.0,-1788.0,-3977.0,1627.0,-922.0,-3064.0,2902.0,-525.0,2046.0,0.988177,-0.105675,-0.11136,21610.0,-4702.0,-9384.0,108.0,742.0,501.0
2899.0,2836.0,2895.0,3159.0,3035.0,0.668274,-0.013,-0.741272,0.061523,-2.0,74.0,3.0,10345.0,-1786.0,-4055.0,2241.0,-896.0,-3241.0,3033.0,-422.0,2635.0,0.989146,-0.108587,-0.099278,24794.0,-3228.0,-8440.0,-32.0,1698.0,85.0
2895.0,2821.0,2910.0,3153.0,3039.0,0.691772,-0.013184,-0.720032,0.053772,-25.0,189.0,-44.0,12497.0,-1768.0,-4201.0,4347.0,-984.0,-3896.0,3755.0,-341.0,4563.0,0.994778,-0.095675,-0.037179,32566.0,-5018.0,-9130.0,-571.0,4341.0,-1000.0
2893.0,2817.0,2883.0,3158.0,3037.0,0.737549,-0.009949,-0.674255,0.036621,-29.0,340.0,-90.0,13895.0,-2055.0,-4583.0,5753.0,-1530.0,-5325.0,5869.0,-952.0,5333.0,0.993864,-0.064059,0.0906,28524.0,-2732.0,-10836.0,-648.0,7795.0,-2055.0
2903.0,2819.0,2903.0,3153.0,3037.0,0.766541,-0.005432,-0.641785,0.022034,-45.0,396.0,-132.0,13624.0,-1730.0,-4783.0,5565.0,-1430.0,-6226.0,7140.0,-1077.0,4429.0,0.983669,-0.03661,0.176153,25180.0,-1816.0,-10566.0,-1012.0,9083.0,-3016.0
2911.0,2813.0,2909.0,3151.0,3056.0,0.830078,0.007751,-0.557068,-0.023926,-84.0,515.0,-220.0,13562.0,-1760.0,-5091.0,5988.0,-2083.0,-8197.0,9783.0,-2482.0,2344.0,0.924449,0.039525,0.379217,26996.0,-4324.0,-12362.0,-1903.0,11800.0,-5025.0
2883.0,2829.0,2897.0,3154.0,3063.0,0.893433,0.018799,-0.441589,-0.079956,-105.0,590.0,-216.0,9447.0,-3336.0,-6810.0,3007.0,-4189.0,-11801.0,10613.0,-5048.0,-5262.0,0.786054,0.104206,0.60926,-772.0,-11274.0,-20106.0,-2391.0,13535.0,-4937.0
2897.0,2807.0,2891.0,3149.0,3035.0,0.918518,0.021362,-0.380676,-0.10437,-103.0,545.0,-192.0,5861.0,-3755.0,-7023.0,168.0,-4727.0,-12832.0,8317.0,-5170.0,-9544.0,0.694857,0.118706,0.709198,-9928.0,-9286.0,-12734.0,-2352.0,12505.0,-4384.0
2896.0,2804.0,2898.0,3148.0,3051.0,0.95105,0.023132,-0.273193,-0.142395,-87.0,360.0,-117.0,-880.0,-3175.0,-3982.0,-5082.0,-4172.0,-10941.0,563.0,-2927.0,-12410.0,0.513053,0.121803,0.849602,-19622.0,-2624.0,5816.0,-1983.0,8259.0,-2677.0
2895.0,2813.0,2923.0,3147.0,3070.0,0.964661,0.021667,-0.20343,-0.166016,-56.0,186.0,-76.0,-4294.0,-1836.0,1785.0,-7450.0,-2731.0,-5721.0,-4986.0,-273.0,-8411.0,0.385288,0.109349,0.916278,-15416.0,-240.0,20026.0,-1267.0,4264.0,-1731.0
2894.0,2815.0,2915.0,3151.0,3055.0,0.96759,0.021973,-0.180481,-0.175171,-35.0,129.0,-68.0,-4955.0,-1245.0,4243.0,-7753.0,-2111.0,-3407.0,-6254.0,639.0,-6053.0,0.341565,0.105751,0.93386,-12886.0,1150.0,22862.0,-799.0,2975.0,-1552.0
2911.0,2847.0,2907.0,3147.0,3047.0,0.969788,0.024475,-0.152405,-0.188721,-14.0,45.0,-42.0,-5288.0,-54.0,8050.0,-7633.0,-914.0,248.0,-7137.0,2005.0,-2045.0,0.286363,0.104995,0.952277,-11274.0,3120.0,25660.0,-307.0,1050.0,-942.0
2903.0,2822.0,2911.0,3139.0,3027.0,0.969543,0.025879,-0.145996,-0.194824,6.0,-39.0,-15.0,-5111.0,531.0,10441.0,-7347.0,-346.0,2609.0,-7368.0,2529.0,451.0,0.273015,0.107069,0.955986,-8666.0,2458.0,26928.0,147.0,-885.0,-326.0
2903.0,2839.0,2883.0,3155.0,3029.0,0.968567,0.027161,-0.150391,-0.196045,20.0,-72.0,-7.0,-4692.0,781.0,11268.0,-6991.0,-133.0,3459.0,-7230.0,2611.0,1320.0,0.280677,0.11158,0.9532,-6612.0,3074.0,27094.0,462.0,-1647.0,-153.0
2903.0,2834.0,2895.0,3151.0,3035.0,0.965088,0.031006,-0.172302,-0.194641,46.0,-137.0,13.0,-3713.0,800.0,11835.0,-6338.0,-239.0,4145.0,-6996.0,2258.0,1828.0,0.320504,0.126921,0.93863,-4434.0,596.0,23842.0,1056.0,-3130.0,304.0
2911.0,2821.0,2895.0,3155.0,3053.0,0.962219,0.033875,-0.190308,-0.191711,67.0,-173.0,22.0,-3155.0,540.0,11611.0,-6048.0,-591.0,4031.0,-6904.0,1794.0,1511.0,0.353247,0.138158,0.925255,-2708.0,-564.0,21444.0,1546.0,-3955.0,513.0
2903.0,2843.0,2911.0,3135.0,3051.0,0.952698,0.044067,-0.239441,-0.181946,106.0,-225.0,33.0,-1558.0,402.0,10550.0,-5164.0,-999.0,3329.0,-6127.0,980.0,490.0,0.440194,0.171096,0.881463,2020.0,1392.0,16976.0,2447.0,-5137.0,769.0
2898.0,2827.0,2906.0,3143.0,3056.0,0.937439,0.057251,-0.299255,-0.168335,116.0,-260.0,44.0,-246.0,776.0,8798.0,-4684.0,-928.0,2127.0,-5074.0,755.0,-998.0,0.541793,0.208089,0.814297,2268.0,2536.0,11370.0,2667.0,-5940.0,1022.0
2890.0,2815.0,2898.0,3151.0,3037.0,0.927124,0.062866,-0.332825,-0.1604,111.0,-288.0,53.0,91.0,1064.0,7657.0,-4799.0,-765.0,1344.0,-4540.0,895.0,-2000.0,0.596972,0.22334,0.770563,2274.0,4054.0,8628.0,2559.0,-6595.0,1218.0
2911.0,2843.0,2896.0,3154.0,3051.0,0.898804,0.068604,-0.408813,-0.1427,92.0,-342.0,70.0,1136.0,1564.0,5414.0,-4723.0,-402.0,36.0,-3059.0,1094.0,-3451.0,0.715307,0.239998,0.656377,6808.0,4442.0,4132.0,2122.0,-7828.0,1623.0
2891.0,2815.0,2903.0,3153.0,3024.0,0.880737,0.068481,-0.44928,-0.133423,81.0,-350.0,73.0,2232.0,1692.0,4556.0,-4101.0,-278.0,-252.0,-2143.0,950.0,-3385.0,0.773121,0.240517,0.586958,11484.0,3882.0,4258.0,1878.0,-8014.0,1678.0
2891.0,2826.0,2894.0,3155.0,3027.0,0.841248,0.064819,-0.524536,-0.113647,71.0,-315.0,78.0,4926.0,1434.0,3024.0,-2182.0,-436.0,-590.0,-449.0,138.0,-2253.0,0.867796,0.228283,0.441274,18090.0,1676.0,1676.0,1643.0,-7200.0,1789.0
2915.0,2833.0,2901.0,3142.0,3045.0,0.803101,0.060425,-0.585938,-0.089844,76.0,-256.0,88.0,6804.0,967.0,1405.0,-816.0,-690.0,-1102.0,755.0,-507.0,-1236.0,0.930276,0.20234,0.306069,17814.0,798.0,-2176.0,1749.0,-5843.0,2025.0
2895.0,2819.0,2871.0,3149.0,3051.0,0.785156,0.058228,-0.611816,-0.076355,76.0,-232.0,95.0,7166.0,882.0,642.0,-631.0,-632.0,-1361.0,1137.0,-502.0,-1050.0,0.951851,0.184866,0.244591,15670.0,1484.0,-3316.0,1758.0,-5297.0,2193.0
2895.0,2839.0,2893.0,3151.0,3047.0,0.750488,0.052612,-0.656921,-0.049072,64.0,-206.0,102.0,7126.0,1122.0,-705.0,-909.0,-53.0,-1780.0,1644.0,103.0,-1132.0,0.98086,0.143443,0.131327,14336.0,3754.0,-4596.0,1469.0,-4710.0,2348.0
2907.0,2845.0,2891.0,3153.0,3056.0,0.733826,0.048645,-0.676575,-0.037231,47.0,-191.0,98.0,7325.0,1452.0,-1100.0,-779.0,454.0,-1753.0,1678.0,581.0,-855.0,0.989354,0.121774,0.079767,16240.0,4924.0,-4354.0,1091.0,-4365.0,2254.0
2906.0,2831.0,2925.0,3149.0,3055.0,0.705261,0.037842,-0.707642,-0.020081,12.0,-139.0,81.0,8266.0,1450.0,-1860.0,101.0,779.0,-1824.0,1803.0,813.0,172.0,0.996625,0.081796,-0.004392,20288.0,1442.0,-6070.0,277.0,-3177.0,1856.0
2896.0,2832.0,2898.0,3139.0,3039.0,0.687073,0.025635,-0.726135,-0.007629,3.0,-65.0,62.0,9295.0,476.0,-2629.0,1124.0,96.0,-2171.0,2103.0,94.0,1246.0,0.997424,0.046306,-0.055802,20824.0,-2414.0,-6780.0,73.0,-1482.0,1437.0
2898.0,2821.0,2890.0,3154.0,3007.0,0.682617,0.020569,-0.730469,-0.002197,3.0,-31.0,52.0,9367.0,44.0,-3081.0,1198.0,-212.0,-2523.0,2441.0,-188.0,1359.0,0.997171,0.031291,-0.068037,18644.0,-2386.0,-9038.0,70.0,-699.0,1202.0
2913.0,2818.0,2867.0,3135.0,3059.0,0.68103,0.013428,-0.732117,0.005493,1.0,26.0,28.0,9530.0,-461.0,-3426.0,1359.0,-544.0,-2833.0,2741.0,-485.0,1554.0,0.997335,0.010246,-0.072343,19684.0,-1808.0,-8018.0,36.0,600.0,661.0
2903.0,2829.0,2903.0,3167.0,3035.0,0.684082,0.011108,-0.729248,0.007141,-6.0,54.0,15.0,9845.0,-404.0,-3456.0,1670.0,-443.0,-2932.0,2829.0,-378.0,1851.0,0.99789,0.004783,-0.063907,22144.0,-16.0,-6698.0,-130.0,1244.0,363.0
2874.0,2838.0,2895.0,3167.0,3027.0,0.700684,0.008484,-0.71344,0.002014,-34.0,138.0,-22.0,11528.0,-84.0,-3242.0,3337.0,-157.0,-3093.0,3034.0,-142.0,3391.0,0.999825,0.009015,-0.018107,29768.0,338.0,-5800.0,-777.0,3164.0,-497.0
2901.0,2845.0,2901.0,3152.0,3047.0,-0.189697,-1.21228,0.360779,0.575684,28648.0,28306.0,19120.0,-24344.0,6222.0,5204.0,-14031.0,-948.0,15299.0,28062.0,16206.0,-2020.0,-1.258902,0.875321,-1.232388,32767.0,3170.0,-5170.0,-1528.0,6428.0,-1899.0
2874.0,2795.0,2911.0,3139.0,3047.0,0.76355,0.012756,-0.644714,-0.034424,-92.0,388.0,-137.0,14434.0,811.0,-3090.0,6375.0,287.0,-4469.0,5474.0,-265.0,5536.0,0.983665,0.063867,0.168374,32767.0,3868.0,-7740.0,-2098.0,8899.0,-3125.0
2899.0,2811.0,2885.0,3163.0,3045.0,0.834412,0.025452,-0.542664,-0.092712,-162.0,641.0,-261.0,15311.0,156.0,-5401.0,7930.0,-1016.0,-8757.0,10965.0,-2952.0,3410.0,0.90089,0.143098,0.409707,32488.0,-6756.0,-22844.0,-3704.0,14697.0,-5974.0
2919.0,2815.0,2881.0,3159.0,3059.0,0.902771,0.037964,-0.395935,-0.163391,-165.0,725.0,-288.0,9932.0,-4845.0,-10265.0,4177.0,-6466.0,-15864.0,12468.0,-8424.0,-9188.0,0.702471,0.19793,0.683486,-4106.0,-23948.0,-32768.0,-3764.0,16614.0,-6594.0
2899.0,2823.0,2911.0,3152.0,3054.0,0.926941,0.042297,-0.319519,-0.192078,-150.0,641.0,-225.0,5197.0,-5942.0,-10549.0,477.0,-7589.0,-17038.0,8216.0,-7939.0,-14749.0,0.576102,0.201159,0.792232,-19030.0,-15794.0,-19016.0,-3413.0,14697.0,-5144.0
2895.0,2821.0,2910.0,3158.0,3039.0,0.952515,0.039429,-0.207642,-0.219116,-101.0,259.0,-42.0,-4446.0,-5063.0,-5261.0,-7544.0,-6423.0,-12720.0,-3493.0,-2715.0,-15503.0,0.378284,0.166108,0.910626,-32768.0,-7050.0,12892.0,-2301.0,5941.0,-952.0
2891.0,2854.0,2877.0,3159.0,3057.0,0.957764,0.041504,-0.167542,-0.229858,8.0,30.0,-44.0,-8260.0,-2375.0,3179.0,-10732.0,-3657.0,-4524.0,-9015.0,1628.0,-8066.0,0.30185,0.156524,0.940353,-20692.0,7844.0,27808.0,201.0,700.0,-1005.0
2902.0,2819.0,2890.0,3135.0,3067.0,0.957031,0.045349,-0.162903,-0.235413,2.0,-23.0,-39.0,-8126.0,-368.0,6123.0,-10505.0,-1707.0,-1599.0,-8993.0,3394.0,-4837.0,0.290455,0.1635,0.942734,-14114.0,10388.0,28688.0,46.0,-517.0,-890.0
2896.0,2799.0,2897.0,3139.0,3055.0,0.954102,0.04425,-0.167358,-0.244324,-7.0,-74.0,-23.0,-6461.0,843.0,9518.0,-8900.0,-518.0,1817.0,-8192.0,3822.0,-1027.0,0.297731,0.166218,0.940037,-6684.0,1706.0,26552.0,-154.0,-1688.0,-506.0
2885.0,2811.0,2902.0,3159.0,3047.0,0.950928,0.044128,-0.182922,-0.245483,42.0,-97.0,10.0,-4343.0,609.0,11153.0,-7015.0,-814.0,3541.0,-7375.0,2696.0,860.0,0.326226,0.173735,0.929118,-2848.0,1222.0,25738.0,969.0,-2210.0,233.0
2910.0,2830.0,2899.0,3167.0,3039.0,0.949158,0.047607,-0.194824,-0.242432,68.0,-113.0,24.0,-3498.0,829.0,11481.0,-6338.0,-685.0,3948.0,-6964.0,2449.0,1305.0,0.346755,0.184837,0.919451,-2224.0,3360.0,24406.0,1564.0,-2588.0,559.0
2896.0,2823.0,2907.0,3167.0,3045.0,0.943237,0.059753,-0.229675,-0.232178,102.0,-169.0,41.0,-2124.0,1558.0,11015.0,-5446.0,-239.0,3746.0,-6108.0,2300.0,1062.0,0.40553,0.219374,0.887282,102.0,5066.0,19374.0,2346.0,-3850.0,945.0
2891.0,2827.0,2901.0,3153.0,3029.0,0.932312,0.071533,-0.280212,-0.217224,112.0,-222.0,59.0,-488.0,1935.0,9636.0,-4513.0,-154.0,2814.0,-4992.0,1838.0,86.0,0.491413,0.25512,0.832756,4218.0,4692.0,14206.0,2576.0,-5063.0,1354.0
2877.0,2831.0,2853.0,3139.0,3039.0,0.924744,0.075562,-0.309631,-0.207947,104.0,-239.0,71.0,570.0,2190.0,8829.0,-3863.0,-9.0,2301.0,-4181.0,1633.0,-259.0,0.541234,0.268524,0.796812,7866.0,5976.0,13092.0,2386.0,-5469.0,1631.0
2893.0,2815.0,2909.0,3131.0,2983.0,0.906799,0.075684,-0.370178,-0.187012,69.0,-249.0,90.0,2473.0,2226.0,7033.0,-2794.0,-32.0,1179.0,-2666.0,1076.0,-963.0,0.643047,0.275715,0.714498,9958.0,3642.0,8244.0,1598.0,-5687.0,2081.0
2902.0,2822.0,2899.0,3151.0,3031.0,0.896484,0.072571,-0.40033,-0.175537,64.0,-249.0,97.0,3177.0,1663.0,6111.0,-2494.0,-554.0,630.0,-2151.0,422.0,-1455.0,0.692301,0.270663,0.668967,9852.0,-702.0,6060.0,1476.0,-5703.0,2227.0
2903.0,2819.0,2896.0,3171.0,3045.0,0.871765,0.064209,-0.462708,-0.147583,80.0,-272.0,116.0,3686.0,373.0,3993.0,-2767.0,-1662.0,-623.0,-1276.0,-714.0,-2943.0,0.787792,0.248526,0.563534,8734.0,-2620.0,2388.0,1850.0,-6217.0,2664.0
2899.0,2829.0,2901.0,3143.0,3035.0,0.839783,0.057922,-0.528015,-0.112427,101.0,-288.0,134.0,4113.0,-37.0,2430.0,-3045.0,-1806.0,-1139.0,-475.0,-1011.0,-3547.0,0.873812,0.21601,0.43572,9184.0,154.0,838.0,2321.0,-6586.0,3079.0
2885.0,2834.0,2911.0,3153.0,3067.0,0.821045,0.05542,-0.560364,-0.093506,103.0,-292.0,136.0,4247.0,213.0,1841.0,-3206.0,-1390.0,-1155.0,-188.0,-681.0,-3611.0,0.909804,0.195799,0.365779,9434.0,2330.0,308.0,2361.0,-6679.0,3132.0
2901.0,2798.0,2898.0,3141.0,3047.0,0.779846,0.049316,-0.621338,-0.058167,82.0,-280.0,130.0,5449.0,899.0,1056.0,-2442.0,-323.0,-771.0,202.0,55.0,-2572.0,0.963359,0.149201,0.223051,15960.0,3412.0,-144.0,1897.0,-6403.0,2989.0
2883.0,2822.0,2909.0,3143.0,3047.0,0.739563,0.03949,-0.671387,-0.02771,52.0,-230.0,120.0,7310.0,1337.0,79.0,-807.0,553.0,-702.0,613.0,641.0,-813.0,0.990877,0.095619,0.095402,20316.0,3928.0,-2626.0,1208.0,-5261.0,2753.0
2897.0,2815.0,2896.0,3155.0,3031.0,0.721863,0.033569,-0.69104,-0.015625,35.0,-197.0,108.0,8093.0,1391.0,-415.0,-71.0,817.0,-764.0,740.0,840.0,-46.0,0.996623,0.07006,0.042667,20484.0,2702.0,-3840.0,806.0,-4496.0,2488.0
2898.0,2833.0,2893.0,3151.0,3035.0,0.69281,0.020569,-0.720825,0.003174,13.0,-137.0,87.0,8901.0,709.0,-1678.0,717.0,513.0,-1350.0,1302.0,539.0,782.0,0.99892,0.023925,-0.040016,19436.0,-1434.0,-6986.0,310.0,-3125.0,1993.0
2874.0,2827.0,2897.0,3229.0,3023.0,0.681458,0.014404,-0.731628,0.010986,11.0,-109.0,76.0,9084.0,265.0,-2164.0,912.0,235.0,-1582.0,1503.0,285.0,1022.0,0.997464,0.003556,-0.070983,19168.0,-2090.0,-7146.0,274.0,-2475.0,1755.0
2879.0,2813.0,2887.0,3134.0,3019.0,0.666687,0.004944,-0.744934,0.023926,12.0,-46.0,52.0,9508.0,-529.0,-2853.0,1369.0,-290.0,-1952.0,1797.0,-173.0,1583.0,0.993512,-0.029054,-0.109907,20194.0,-3294.0,-7730.0,291.0,-1042.0,1201.0
2895.0,2837.0,2913.0,3159.0,3031.0,0.663452,0.001404,-0.74762,0.029114,11.0,-16.0,42.0,9623.0,-821.0,-3169.0,1495.0,-479.0,-2202.0,2024.0,-323.0,1762.0,0.992101,-0.041669,-0.117921,19800.0,-3118.0,-8126.0,254.0,-350.0,980.0
2896.0,2831.0,2913.0,3147.0,3057.0,0.664734,-0.004395,-0.746216,0.0354,-2.0,40.0,24.0,9892.0,-969.0,-3443.0,1767.0,-488.0,-2511.0,2306.0,-274.0,2066.0,0.991759,-0.058675,-0.113733,21056.0,-1870.0,-7262.0,-36.0,921.0,552.0
2894.0,2815.0,2903.0,3153.0,3043.0,0.677551,-0.008728,-0.734619,0.033691,-23.0,106.0,-6.0,10688.0,-791.0,-3451.0,2537.0,-288.0,-2799.0,2590.0,-33.0,2764.0,0.994896,-0.061328,-0.079531,24578.0,-878.0,-6604.0,-524.0,2447.0,-122.0
2893.0,2811.0,2891.0,3135.0,3035.0,0.689026,-0.01001,-0.72406,0.028992,-34.0,148.0,-26.0,11380.0,-743.0,-3329.0,3210.0,-286.0,-2929.0,2770.0,-28.0,3359.0,0.997212,-0.055777,-0.048766,27178.0,-1178.0,-5752.0,-776.0,3392.0,-573.0
2889.0,2803.0,2885.0,3135.0,3039.0,0.724182,-0.00946,-0.689453,0.010559,-55.0,257.0,-78.0,13317.0,-647.0,-3071.0,5138.0,-415.0,-3473.0,3721.0,-266.0,4970.0,0.998379,-0.028262,0.049116,32767.0,-1138.0,-5474.0,-1244.0,5906.0,-1767.0
2896.0,2801.0,2895.0,3149.0,3025.0,0.77655,-0.001831,-0.629639,-0.022644,-73.0,399.0,-153.0,14728.0,-915.0,-3112.0,6716.0,-1125.0,-4808.0,6043.0,-1495.0,5543.0,0.977975,0.025671,0.207095,32767.0,-3876.0,-6338.0,-1661.0,9152.0,-3492.0
2893.0,2810.0,2903.0,3139.0,3039.0,0.901611,-0.08844,-0.2005,-1.21228,28354.0,-32546.0,-2056.0,-11501.0,1038.0,2063.0,-16219.0,-1637.0,-16242.0,9929.0,25415.0,19367.0,0.575975,0.326649,2.234504,16810.0,-6970.0,-12858.0,-1855.0,12324.0,-4527.0
2896.0,2837.0,2891.0,3167.0,3035.0,0.871216,0.01886,-0.481934,-0.091187,-89.0,555.0,-193.0,10944.0,-2439.0,-4669.0,4093.0,-3428.0,-9049.0,9270.0,-4591.0,-1829.0,0.836297,0.120754,0.534716,5428.0,-7328.0,-13074.0,-2034.0,12722.0,-4404.0
2895.0,2823.0,2907.0,3151.0,3035.0,0.919556,0.026306,-0.368958,-0.132446,-100.0,473.0,-144.0,4614.0,-2596.0,-4667.0,-887.0,-3792.0,-10616.0,5813.0,-3944.0,-8860.0,0.671586,0.146114,0.726303,-9228.0,-4098.0,-6342.0,-2279.0,10848.0,-3282.0
2897.0,2834.0,2903.0,3157.0,3047.0,0.947632,0.026978,-0.272583,-0.16394,-95.0,330.0,-95.0,-470.0,-1691.0,-1372.0,-4629.0,-2842.0,-8333.0,-154.0,-1497.0,-9831.0,0.507771,0.140504,0.849853,-15088.0,-180.0,9868.0,-2162.0,7562.0,-2154.0
2899.0,2843.0,2894.0,3131.0,3037.0,0.95575,0.024902,-0.235657,-0.174377,-83.0,239.0,-63.0,-2596.0,-1427.0,902.0,-6215.0,-2490.0,-6370.0,-3022.0,-411.0,-8723.0,0.441773,0.129787,0.88771,-17388.0,-1978.0,15702.0,-1901.0,5486.0,-1434.0
2893.0,2815.0,2893.0,3135.0,3039.0,0.963684,0.023193,-0.189514,-0.186523,-18.0,92.0,-34.0,-4985.0,-1149.0,5626.0,-7906.0,-2094.0,-1968.0,-6785.0,914.0,-4885.0,0.356611,0.1154,0.927024,-14256.0,-422.0,24638.0,-394.0,2110.0,-763.0
2895.0,2823.0,2883.0,3135.0,3035.0,0.96582,0.02887,-0.174072,-0.189758,20.0,-13.0,-1.0,-5470.0,192.0,9048.0,-8134.0,-806.0,1366.0,-7816.0,2330.0,-1463.0,0.325289,0.121829,0.937683,-11060.0,4920.0,26250.0,459.0,-283.0,-13.0
2845.0,2819.0,2896.0,3159.0,3043.0,0.965454,0.031921,-0.176208,-0.189087,27.0,-60.0,8.0,-5229.0,849.0,10100.0,-7917.0,-201.0,2434.0,-7787.0,2805.0,-346.0,0.328171,0.128275,0.935787,-8492.0,5410.0,25870.0,625.0,-1362.0,190.0
2896.0,2827.0,2901.0,3155.0,3047.0,0.961853,0.036865,-0.197266,-0.185791,41.0,-134.0,17.0,-3717.0,1550.0,11026.0,-6713.0,368.0,3494.0,-6974.0,2846.0,809.0,0.365783,0.144218,0.919407,-1758.0,4070.0,23276.0,956.0,-3067.0,406.0
2891.0,2831.0,2897.0,3143.0,3039.0,0.958679,0.039246,-0.214294,-0.182983,53.0,-161.0,22.0,-2798.0,1515.0,10924.0,-6046.0,256.0,3509.0,-6492.0,2472.0,817.0,0.396517,0.153673,0.905086,-226.0,2428.0,20586.0,1223.0,-3679.0,523.0
2895.0,2832.0,2907.0,3147.0,3035.0,0.94873,0.046204,-0.260254,-0.173035,92.0,-219.0,40.0,-1239.0,875.0,9845.0,-5153.0,-581.0,2798.0,-5749.0,1278.0,-158.0,0.477832,0.177735,0.860164,1518.0,-696.0,15238.0,2110.0,-5010.0,922.0
2897.0,2815.0,2896.0,3135.0,3031.0,0.931824,0.058838,-0.322144,-0.15625,134.0,-281.0,56.0,-260.0,397.0,7869.0,-5027.0,-1325.0,1434.0,-4960.0,390.0,-2077.0,0.581975,0.210323,0.785471,1844.0,362.0,9122.0,3072.0,-6416.0,1303.0
2891.0,2823.0,2903.0,3151.0,3031.0,0.919617,0.066223,-0.358826,-0.145386,141.0,-313.0,68.0,244.0,549.0,6799.0,-5004.0,-1303.0,788.0,-4325.0,325.0,-2922.0,0.640708,0.226136,0.733691,4010.0,2194.0,7416.0,3244.0,-7152.0,1563.0
2896.0,2835.0,2903.0,3158.0,3043.0,0.88678,0.076294,-0.439453,-0.120972,114.0,-349.0,89.0,2056.0,1609.0,4932.0,-4177.0,-370.0,0.0,-2495.0,821.0,-3267.0,0.760937,0.241635,0.602073,10502.0,6924.0,4936.0,2615.0,-7988.0,2059.0
2896.0,2831.0,2907.0,3143.0,3039.0,0.867249,0.077026,-0.479614,-0.109192,87.0,-348.0,95.0,3189.0,2066.0,4094.0,-3488.0,113.0,-232.0,-1590.0,1033.0,-2938.0,0.815068,0.238342,0.52808,13300.0,6510.0,3134.0,1999.0,-7963.0,2188.0
2898.0,2826.0,2896.0,3139.0,3035.0,0.825256,0.070068,-0.553406,-0.088196,47.0,-317.0,93.0,5340.0,1958.0,2416.0,-2041.0,210.0,-677.0,-118.0,672.0,-2049.0,0.901044,0.213265,0.377659,16452.0,1532.0,-262.0,1085.0,-7240.0,2135.0
2893.0,2831.0,2898.0,3141.0,3039.0,0.782898,0.059998,-0.615723,-0.065857,59.0,-279.0,93.0,6134.0,454.0,378.0,-1699.0,-979.0,-1543.0,1075.0,-642.0,-2157.0,0.956194,0.175043,0.234552,13172.0,-3762.0,-5760.0,1364.0,-6388.0,2149.0
2896.0,2823.0,2903.0,3159.0,3045.0,0.760986,0.056458,-0.644165,-0.052429,74.0,-269.0,94.0,6455.0,-108.0,-523.0,-1527.0,-1365.0,-1864.0,1577.0,-1081.0,-2002.0,0.974482,0.153473,0.163713,15358.0,-2988.0,-5978.0,1708.0,-6156.0,2173.0
2896.0,2826.0,2895.0,3152.0,3039.0,0.719727,0.053101,-0.691772,-0.024414,80.0,-212.0,87.0,8144.0,137.0,-1483.0,7.0,-765.0,-1788.0,1814.0,-684.0,-143.0,0.993181,0.110214,0.037234,22664.0,3264.0,-5082.0,1844.0,-4852.0,2007.0
2897.0,2822.0,2893.0,3159.0,3043.0,0.691284,0.049255,-0.720886,-0.004578,32.0,-116.0,72.0,9694.0,1319.0,-2125.0,1532.0,707.0,-1762.0,1650.0,693.0,1656.0,0.996224,0.074699,-0.044208,21758.0,5336.0,-6706.0,745.0,-2655.0,1659.0
2897.0,2821.0,2895.0,3135.0,3029.0,0.682373,0.0448,-0.729614,0.000977,4.0,-80.0,66.0,9680.0,1432.0,-2553.0,1522.0,942.0,-1990.0,1820.0,965.0,1708.0,0.995826,0.059715,-0.06871,18590.0,2798.0,-7738.0,96.0,-1825.0,1514.0
2887.0,2815.0,2896.0,3143.0,3043.0,0.671631,0.031982,-0.740112,0.008179,-19.0,-31.0,54.0,9143.0,430.0,-3279.0,994.0,177.0,-2479.0,2357.0,276.0,1236.0,0.994688,0.030854,-0.097634,16722.0,-2956.0,-8204.0,-415.0,-704.0,1256.0
2896.0,2833.0,2907.0,3165.0,3037.0,0.669373,0.025757,-0.742432,0.011414,-14.0,-7.0,46.0,8935.0,-177.0,-3530.0,787.0,-320.0,-2680.0,2598.0,-199.0,1054.0,0.994515,0.017534,-0.103678,16712.0,-3900.0,-8628.0,-313.0,-146.0,1070.0
2896.0,2832.0,2899.0,3159.0,3039.0,0.671082,0.016785,-0.741028,0.016785,-9.0,41.0,27.0,9095.0,-778.0,-3764.0,942.0,-758.0,-2954.0,2879.0,-619.0,1230.0,0.995144,-0.002348,-0.098772,19754.0,-2190.0,-7624.0,-198.0,950.0,619.0
2896.0,2830.0,2897.0,3135.0,3031.0,0.675781,0.013733,-0.736755,0.017456,-16.0,70.0,14.0,9526.0,-687.0,-3693.0,1364.0,-628.0,-2988.0,2883.0,-490.0,1620.0,0.99625,-0.007161,-0.086012,21958.0,-418.0,-6792.0,-344.0,1621.0,339.0
